RT,correct_response,ms-prestimblank,curstim,correct,SRmap_1,SRmap_0,SRmap_3,SRmap_2,SRmap_5,SRmap_4,ms-precue,ntrials,type,response,condition
18398.33498,1,600,2,1,0,3,5,1,2,4,400,250.0,train,1,E+
2302.7780056,5,600,3,1,0,3,5,1,2,4,400,250.0,train,5,E+
3279.43897247,4,600,4,1,0,3,5,1,2,4,400,250.0,train,4,E+
2622.70402908,5,600,3,1,0,3,5,1,2,4,400,250.0,train,5,E+
1278.50294113,1,600,2,1,0,3,5,1,2,4,400,250.0,train,1,E+
1151.21817589,0,600,1,1,0,3,5,1,2,4,400,250.0,train,0,E+
1631.0198307,4,600,4,1,0,3,5,1,2,4,400,250.0,train,4,E+
383.007049561,0,600,1,1,0,3,5,1,2,4,400,250.0,train,0,E+
399.207115173,1,600,2,1,0,3,5,1,2,4,400,250.0,train,1,E+
255.079984665,4,600,4,1,0,3,5,1,2,4,400,250.0,train,4,E+
847.012996674,1,600,2,1,0,3,5,1,2,4,400,250.0,train,1,E+
1278.97500992,4,600,4,1,0,3,5,1,2,4,400,250.0,train,4,E+
159.018039703,2,600,5,0,0,3,5,1,2,4,400,250.0,train,1,E+
1823.15897942,2,600,5,1,0,3,5,1,2,4,400,250.0,train,2,E+
159.096002579,0,600,1,1,0,3,5,1,2,4,400,250.0,train,0,E+
815.153121948,3,600,0,0,0,3,5,1,2,4,400,250.0,train,2,E+
447.572946548,5,600,3,1,0,3,5,1,2,4,400,250.0,train,5,E+
255.020141602,5,600,3,1,0,3,5,1,2,4,400,250.0,train,5,E+
79.2169570923,0,600,1,1,0,3,5,1,2,4,400,250.0,train,0,E+
575.135946274,0,600,1,1,0,3,5,1,2,4,400,250.0,train,0,E+
927.102088928,3,600,0,1,0,3,5,1,2,4,400,250.0,train,3,E+
447.105169296,5,600,3,1,0,3,5,1,2,4,400,250.0,train,5,E+
1695.02496719,5,600,3,1,0,3,5,1,2,4,400,250.0,train,5,E+
495.131969452,5,600,3,1,0,3,5,1,2,4,400,250.0,train,5,E+
399.160146713,3,600,0,1,0,3,5,1,2,4,400,250.0,train,3,E+
141.8800354,5,600,3,1,0,3,5,1,2,4,400,250.0,train,5,E+
334.211111069,1,600,2,0,0,3,5,1,2,4,400,250.0,train,0,E+
1183.03203583,4,600,4,0,0,3,5,1,2,4,400,250.0,train,1,E+
863.172054291,5,600,3,1,0,3,5,1,2,4,400,250.0,train,5,E+
751.999855042,2,600,5,0,0,3,5,1,2,4,400,250.0,train,1,E+
447.648048401,1,600,2,0,0,3,5,1,2,4,400,250.0,train,0,E+
623.076200485,2,600,5,1,0,3,5,1,2,4,400,250.0,train,2,E+
303.143024445,1,600,2,1,0,3,5,1,2,4,400,250.0,train,1,E+
415.069103241,1,600,2,1,0,3,5,1,2,4,400,250.0,train,1,E+
559.1609478,5,600,3,1,0,3,5,1,2,4,400,250.0,train,5,E+
127.09903717,1,600,2,1,0,3,5,1,2,4,400,250.0,train,1,E+
127.14600563,0,600,1,1,0,3,5,1,2,4,400,250.0,train,0,E+
1983.09803009,5,600,3,1,0,3,5,1,2,4,400,250.0,train,5,E+
238.578081131,5,600,3,1,0,3,5,1,2,4,400,250.0,train,5,E+
142.529010773,5,600,3,1,0,3,5,1,2,4,400,250.0,train,5,E+
3326.91597939,1,600,2,1,0,3,5,1,2,4,400,250.0,train,1,E+
1390.99192619,2,600,5,0,0,3,5,1,2,4,400,250.0,train,1,E+
319.084882736,4,600,4,0,0,3,5,1,2,4,400,250.0,train,2,E+
255.072116852,0,600,1,1,0,3,5,1,2,4,400,250.0,train,0,E+
719.145059586,0,600,1,1,0,3,5,1,2,4,400,250.0,train,0,E+
1599.04193878,1,600,2,1,0,3,5,1,2,4,400,250.0,train,1,E+
1327.04091072,5,600,3,1,0,3,5,1,2,4,400,250.0,train,5,E+
1342.88096428,3,600,0,1,0,3,5,1,2,4,400,250.0,train,3,E+
1183.06398392,5,600,3,1,0,3,5,1,2,4,400,250.0,train,5,E+
1295.01390457,3,600,0,1,0,3,5,1,2,4,400,250.0,train,3,E+
1695.16992569,0,600,1,1,0,3,5,1,2,4,400,250.0,train,0,E+
415.199041367,0,600,1,1,0,3,5,1,2,4,400,250.0,train,0,E+
1711.20905876,2,600,5,1,0,3,5,1,2,4,400,250.0,train,2,E+
1167.15097427,4,600,4,0,0,3,5,1,2,4,400,250.0,train,3,E+
895.158052444,2,600,5,1,0,3,5,1,2,4,400,250.0,train,2,E+
255.190134048,0,600,1,1,0,3,5,1,2,4,400,250.0,train,0,E+
1039.24894333,0,600,1,1,0,3,5,1,2,4,400,250.0,train,0,E+
2111.12093925,5,600,3,1,0,3,5,1,2,4,400,250.0,train,5,E+
1135.212183,3,600,0,1,0,3,5,1,2,4,400,250.0,train,3,E+
1295.15004158,3,600,0,1,0,3,5,1,2,4,400,250.0,train,3,E+
367.207050323,5,600,3,1,0,3,5,1,2,4,400,250.0,train,5,E+
367.604017258,3,600,0,1,0,3,5,1,2,4,400,250.0,train,3,E+
351.279020309,0,600,1,1,0,3,5,1,2,4,400,250.0,train,0,E+
799.305915833,1,600,2,1,0,3,5,1,2,4,400,250.0,train,1,E+
1551.11098289,2,600,5,1,0,3,5,1,2,4,400,250.0,train,2,E+
591.025114059,0,600,1,1,0,3,5,1,2,4,400,250.0,train,0,E+
2799.17883873,0,600,1,1,0,3,5,1,2,4,400,250.0,train,0,E+
255.117893219,0,600,1,1,0,3,5,1,2,4,400,250.0,train,0,E+
671.241044998,2,600,5,1,0,3,5,1,2,4,400,250.0,train,2,E+
527.636051178,3,600,0,1,0,3,5,1,2,4,400,250.0,train,3,E+
383.140087128,5,600,3,1,0,3,5,1,2,4,400,250.0,train,5,E+
302.282094955,0,600,1,1,0,3,5,1,2,4,400,250.0,train,0,E+
911.453008652,4,600,4,1,0,3,5,1,2,4,400,250.0,train,4,E+
190.907001495,4,600,4,1,0,3,5,1,2,4,400,250.0,train,4,E+
622.266054153,5,600,3,1,0,3,5,1,2,4,400,250.0,train,5,E+
703.177928925,3,600,0,1,0,3,5,1,2,4,400,250.0,train,3,E+
382.899045944,2,600,5,0,0,3,5,1,2,4,400,250.0,train,3,E+
1679.53109741,3,600,0,1,0,3,5,1,2,4,400,250.0,train,3,E+
399.056196213,2,600,5,1,0,3,5,1,2,4,400,250.0,train,2,E+
239.109039307,1,600,2,1,0,3,5,1,2,4,400,250.0,train,1,E+
175.082921982,1,600,2,1,0,3,5,1,2,4,400,250.0,train,1,E+
206.85005188,0,600,1,1,0,3,5,1,2,4,400,250.0,train,0,E+
846.240997314,5,600,3,1,0,3,5,1,2,4,400,250.0,train,5,E+
188.591003418,2,600,5,1,0,3,5,1,2,4,400,250.0,train,2,E+
111.274003983,0,600,1,1,0,3,5,1,2,4,400,250.0,train,0,E+
1199.14507866,5,600,3,1,0,3,5,1,2,4,400,250.0,train,5,E+
143.221139908,3,600,0,1,0,3,5,1,2,4,400,250.0,train,3,E+
79.3461799622,1,600,2,1,0,3,5,1,2,4,400,250.0,train,1,E+
479.147911072,4,600,4,1,0,3,5,1,2,4,400,250.0,train,4,E+
463.207006454,4,600,4,1,0,3,5,1,2,4,400,250.0,train,4,E+
927.258968353,5,600,3,1,0,3,5,1,2,4,400,250.0,train,5,E+
351.21011734,1,600,2,1,0,3,5,1,2,4,400,250.0,train,1,E+
111.387968063,1,600,2,1,0,3,5,1,2,4,400,250.0,train,1,E+
1151.50904655,4,600,4,1,0,3,5,1,2,4,400,250.0,train,4,E+
174.242019653,4,600,4,1,0,3,5,1,2,4,400,250.0,train,4,E+
239.182949066,3,600,0,0,0,3,5,1,2,4,400,250.0,train,4,E+
271.130084991,1,600,2,1,0,3,5,1,2,4,400,250.0,train,1,E+
175.5900383,0,600,1,1,0,3,5,1,2,4,400,250.0,train,0,E+
719.225168228,5,600,3,0,0,3,5,1,2,4,400,250.0,train,0,E+
255.219936371,1,600,2,1,0,3,5,1,2,4,400,250.0,train,1,E+
479.059934616,4,600,4,1,0,3,5,1,2,4,400,250.0,train,4,E+
527.476072311,3,600,0,1,0,3,5,1,2,4,400,250.0,train,3,E+
190.001964569,5,600,3,1,0,3,5,1,2,4,400,250.0,train,5,E+
190.452098846,1,600,2,1,0,3,5,1,2,4,400,250.0,train,1,E+
127.370119095,4,600,4,1,0,3,5,1,2,4,400,250.0,train,4,E+
111.218929291,1,600,2,1,0,3,5,1,2,4,400,250.0,train,1,E+
383.583784103,5,600,3,0,0,3,5,1,2,4,400,250.0,train,4,E+
511.615037918,2,600,5,1,0,3,5,1,2,4,400,250.0,train,2,E+
303.534984589,4,600,4,0,0,3,5,1,2,4,400,250.0,train,2,E+
238.958120346,0,600,1,1,0,3,5,1,2,4,400,250.0,train,0,E+
207.638978958,0,600,1,1,0,3,5,1,2,4,400,250.0,train,0,E+
1598.22201729,3,600,0,1,0,3,5,1,2,4,400,250.0,train,3,E+
156.887054443,5,600,3,1,0,3,5,1,2,4,400,250.0,train,5,E+
526.26490593,4,600,4,0,0,3,5,1,2,4,400,250.0,train,5,E+
174.280166626,1,600,2,1,0,3,5,1,2,4,400,250.0,train,1,E+
559.610843658,0,600,1,1,0,3,5,1,2,4,400,250.0,train,0,E+
142.17877388,1,600,2,1,0,3,5,1,2,4,400,250.0,train,1,E+
271.492004395,2,600,5,1,0,3,5,1,2,4,400,250.0,train,2,E+
270.422935486,5,600,3,1,0,3,5,1,2,4,400,250.0,train,5,E+
95.2467918396,1,600,2,1,0,3,5,1,2,4,400,250.0,train,1,E+
175.050020218,0,600,1,1,0,3,5,1,2,4,400,250.0,train,0,E+
174.743890762,0,600,1,1,0,3,5,1,2,4,400,250.0,train,0,E+
623.637914658,1,600,2,1,0,3,5,1,2,4,400,250.0,train,1,E+
111.011981964,5,600,3,1,0,3,5,1,2,4,400,250.0,train,5,E+
1102.37312317,3,600,0,1,0,3,5,1,2,4,400,250.0,train,3,E+
158.169031143,1,600,2,1,0,3,5,1,2,4,400,250.0,train,1,E+
126.461029053,5,600,3,1,0,3,5,1,2,4,400,250.0,train,5,E+
78.2179832458,2,600,5,0,0,3,5,1,2,4,400,250.0,train,1,E+
398.848056793,0,600,1,1,0,3,5,1,2,4,400,250.0,train,0,E+
751.148223877,5,600,3,1,0,3,5,1,2,4,400,250.0,train,5,E+
175.101995468,4,600,4,1,0,3,5,1,2,4,400,250.0,train,4,E+
1071.14100456,2,600,5,1,0,3,5,1,2,4,400,250.0,train,2,E+
175.642967224,3,600,0,1,0,3,5,1,2,4,400,250.0,train,3,E+
127.681016922,5,600,3,1,0,3,5,1,2,4,400,250.0,train,5,E+
143.626213074,5,600,3,1,0,3,5,1,2,4,400,250.0,train,5,E+
191.631793976,3,600,0,1,0,3,5,1,2,4,400,250.0,train,3,E+
31.6691398621,0,600,1,1,0,3,5,1,2,4,400,250.0,train,0,E+
126.966953278,1,600,2,1,0,3,5,1,2,4,400,250.0,train,1,E+
223.570108414,2,600,5,1,0,3,5,1,2,4,400,250.0,train,2,E+
31.7549705505,1,600,2,1,0,3,5,1,2,4,400,250.0,train,1,E+
127.564907074,2,600,5,1,0,3,5,1,2,4,400,250.0,train,2,E+
559.470891953,0,600,1,1,0,3,5,1,2,4,400,250.0,train,0,E+
207.083940506,4,600,4,0,0,3,5,1,2,4,400,250.0,train,3,E+
558.884859085,0,600,1,1,0,3,5,1,2,4,400,250.0,train,0,E+
30.3180217743,0,600,1,1,0,3,5,1,2,4,400,250.0,train,0,E+
190.225839615,1,600,2,1,0,3,5,1,2,4,400,250.0,train,1,E+
447.093963623,2,600,5,1,0,3,5,1,2,4,400,250.0,train,2,E+
190.781116486,5,600,3,1,0,3,5,1,2,4,400,250.0,train,5,E+
94.6891307831,1,600,2,1,0,3,5,1,2,4,400,250.0,train,1,E+
302.384138107,3,600,0,0,0,3,5,1,2,4,400,250.0,train,2,E+
270.328044891,4,600,4,1,0,3,5,1,2,4,400,250.0,train,4,E+
831.593990326,4,600,4,1,0,3,5,1,2,4,400,250.0,train,4,E+
814.28694725,5,600,3,0,0,3,5,1,2,4,400,250.0,train,4,E+
287.467956543,3,600,0,1,0,3,5,1,2,4,400,250.0,train,3,E+
287.431955338,5,600,3,1,0,3,5,1,2,4,400,250.0,train,5,E+
367.54488945,2,600,5,1,0,3,5,1,2,4,400,250.0,train,2,E+
350.829839706,2,600,5,1,0,3,5,1,2,4,400,250.0,train,2,E+
1598.40583801,5,600,3,1,0,3,5,1,2,4,400,250.0,train,5,E+
1791.56899452,3,600,0,0,0,3,5,1,2,4,400,250.0,train,4,E+
303.534984589,4,600,4,1,0,3,5,1,2,4,400,250.0,train,4,E+
606.793880463,5,600,3,1,0,3,5,1,2,4,400,250.0,train,5,E+
1086.61103249,2,600,5,1,0,3,5,1,2,4,400,250.0,train,2,E+
175.682067871,2,600,5,1,0,3,5,1,2,4,400,250.0,train,2,E+
1263.59415054,3,600,0,1,0,3,5,1,2,4,400,250.0,train,3,E+
254.884004593,4,600,4,1,0,3,5,1,2,4,400,250.0,train,4,E+
207.314014435,4,600,4,1,0,3,5,1,2,4,400,250.0,train,4,E+
271.581888199,1,600,2,1,0,3,5,1,2,4,400,250.0,train,1,E+
191.116094589,2,600,5,1,0,3,5,1,2,4,400,250.0,train,2,E+
2302.99091339,0,600,1,1,0,3,5,1,2,4,400,250.0,train,0,E+
334.437847137,5,600,3,1,0,3,5,1,2,4,400,250.0,train,5,E+
270.973920822,2,600,5,1,0,3,5,1,2,4,400,250.0,train,2,E+
287.626981735,0,600,1,1,0,3,5,1,2,4,400,250.0,train,0,E+
158.946037292,3,600,0,1,0,3,5,1,2,4,400,250.0,train,3,E+
271.583080292,1,600,2,1,0,3,5,1,2,4,400,250.0,train,1,E+
910.802125931,3,600,0,1,0,3,5,1,2,4,400,250.0,train,3,E+
142.286062241,0,600,1,1,0,3,5,1,2,4,400,250.0,train,0,E+
2894.49095726,0,600,1,1,0,3,5,1,2,4,400,250.0,train,0,E+
142.887115479,4,600,4,1,0,3,5,1,2,4,400,250.0,train,4,E+
543.105125427,5,600,3,1,0,3,5,1,2,4,400,250.0,train,5,E+
559.175014496,1,600,2,0,0,3,5,1,2,4,400,250.0,train,0,E+
975.211858749,1,600,2,1,0,3,5,1,2,4,400,250.0,train,1,E+
271.239995956,4,600,4,1,0,3,5,1,2,4,400,250.0,train,4,E+
255.198001862,1,600,2,1,0,3,5,1,2,4,400,250.0,train,1,E+
95.3099727631,4,600,4,1,0,3,5,1,2,4,400,250.0,train,4,E+
222.712993622,0,600,1,1,0,3,5,1,2,4,400,250.0,train,0,E+
111.485004425,0,600,1,1,0,3,5,1,2,4,400,250.0,train,0,E+
303.540945053,1,600,2,0,0,3,5,1,2,4,400,250.0,train,0,E+
430.320978165,1,600,2,1,0,3,5,1,2,4,400,250.0,train,1,E+
511.577129364,4,600,4,1,0,3,5,1,2,4,400,250.0,train,4,E+
335.567951202,3,600,0,1,0,3,5,1,2,4,400,250.0,train,3,E+
207.650184631,5,600,3,1,0,3,5,1,2,4,400,250.0,train,5,E+
239.033937454,2,600,5,1,0,3,5,1,2,4,400,250.0,train,2,E+
191.245079041,4,600,4,1,0,3,5,1,2,4,400,250.0,train,4,E+
398.82183075,1,600,2,0,0,3,5,1,2,4,400,250.0,train,2,E+
239.649057388,0,600,1,1,0,3,5,1,2,4,400,250.0,train,0,E+
1038.2809639,0,600,1,1,0,3,5,1,2,4,400,250.0,train,0,E+
1182.33013153,0,600,1,1,0,3,5,1,2,4,400,250.0,train,0,E+
542.181015015,2,600,5,0,0,3,5,1,2,4,400,250.0,train,4,E+
638.988018036,4,600,4,1,0,3,5,1,2,4,400,250.0,train,4,E+
799.121141434,1,600,2,0,0,3,5,1,2,4,400,250.0,train,2,E+
319.028139114,4,600,4,1,0,3,5,1,2,4,400,250.0,train,4,E+
3711.05599403,0,600,1,1,0,3,5,1,2,4,400,250.0,train,0,E+
335.201025009,2,600,5,1,0,3,5,1,2,4,400,250.0,train,2,E+
175.748109818,0,600,1,1,0,3,5,1,2,4,400,250.0,train,0,E+
1486.34505272,1,600,2,1,0,3,5,1,2,4,400,250.0,train,1,E+
1071.62904739,3,600,0,0,0,3,5,1,2,4,400,250.0,train,5,E+
222.986221313,5,600,3,1,0,3,5,1,2,4,400,250.0,train,5,E+
1135.15305519,5,600,3,1,0,3,5,1,2,4,400,250.0,train,5,E+
383.177042007,2,600,5,1,0,3,5,1,2,4,400,250.0,train,2,E+
127.22492218,0,600,1,1,0,3,5,1,2,4,400,250.0,train,0,E+
431.236982346,3,600,0,1,0,3,5,1,2,4,400,250.0,train,3,E+
191.662073135,3,600,0,1,0,3,5,1,2,4,400,250.0,train,3,E+
446.352005005,2,600,5,0,0,3,5,1,2,4,400,250.0,train,1,E+
239.358901978,5,600,3,1,0,3,5,1,2,4,400,250.0,train,5,E+
495.73302269,1,600,2,1,0,3,5,1,2,4,400,250.0,train,1,E+
334.689855576,0,600,1,1,0,3,5,1,2,4,400,250.0,train,0,E+
238.862991333,0,600,1,1,0,3,5,1,2,4,400,250.0,train,0,E+
734.835147858,3,600,0,1,0,3,5,1,2,4,400,250.0,train,3,E+
927.680969238,4,600,4,1,0,3,5,1,2,4,400,250.0,train,4,E+
159.601926804,3,600,0,1,0,3,5,1,2,4,400,250.0,train,3,E+
255.555152893,4,600,4,1,0,3,5,1,2,4,400,250.0,train,4,E+
703.629970551,3,600,0,1,0,3,5,1,2,4,400,250.0,train,3,E+
174.815893173,5,600,3,1,0,3,5,1,2,4,400,250.0,train,5,E+
271.110057831,4,600,4,1,0,3,5,1,2,4,400,250.0,train,4,E+
942.33417511,0,600,1,1,0,3,5,1,2,4,400,250.0,train,0,E+
223.62780571,0,600,1,1,0,3,5,1,2,4,400,250.0,train,0,E+
111.640930176,5,600,3,1,0,3,5,1,2,4,400,250.0,train,5,E+
111.675024033,0,600,1,1,0,3,5,1,2,4,400,250.0,train,0,E+
1534.31892395,3,600,0,0,0,3,5,1,2,4,400,250.0,train,4,E+
399.087905884,4,600,4,1,0,3,5,1,2,4,400,250.0,train,4,E+
415.121078491,0,600,1,1,0,3,5,1,2,4,400,250.0,train,0,E+
463.039875031,4,600,4,1,0,3,5,1,2,4,400,250.0,train,4,E+
207.135915756,3,600,0,1,0,3,5,1,2,4,400,250.0,train,3,E+
142.534017563,2,600,5,1,0,3,5,1,2,4,400,250.0,train,2,E+
222.221136093,0,600,1,1,0,3,5,1,2,4,400,250.0,train,0,E+
382.20500946,5,600,3,0,0,3,5,1,2,4,400,250.0,train,2,E+
494.240999222,0,600,1,1,0,3,5,1,2,4,400,250.0,train,0,E+
991.509914398,3,600,0,0,0,3,5,1,2,4,400,250.0,train,2,E+
670.433998108,0,600,1,0,0,3,5,1,2,4,400,250.0,train,2,E+
207.326889038,5,600,3,1,0,3,5,1,2,4,400,250.0,train,5,E+
7246.4568615,5,600,3,1,0,3,5,1,2,4,400,250.0,train,5,E+
174.846887589,4,600,4,1,0,3,5,1,2,4,400,250.0,train,4,E+
430.656909943,1,600,2,0,0,3,5,1,2,4,400,250.0,train,2,E+
270.322799683,3,600,0,1,0,3,5,1,2,4,400,250.0,train,3,E+
238.33489418,1,600,2,0,0,3,5,1,2,4,400,250.0,train,2,E+
479.048013687,3,600,0,0,0,3,5,1,2,4,400,250.0,train,4,E+
175.124883652,4,600,4,1,0,3,5,1,2,4,400,250.0,train,4,E+
175.173997879,1,600,2,0,0,3,5,1,2,4,400,250.0,train,4,E+
687.436103821,2,600,5,1,0,3,5,1,2,4,400,250.0,train,2,E+
367.146015167,5,600,3,0,0,3,5,1,2,4,400,250.0,train,4,E+
1166.85605049,5,1000,3,1,0,3,5,1,2,4,0,250.0,test,5,E+
527.014970779,5,1000,3,1,0,3,5,1,2,4,0,250.0,test,5,E+
719.028949738,2,1000,5,0,0,3,5,1,2,4,0,250.0,test,1,E+
750.227928162,1,1000,2,0,0,3,5,1,2,4,0,250.0,test,0,E+
2142.9400444,1,1000,2,0,0,3,5,1,2,4,0,250.0,test,2,E+
607.006072998,4,1000,4,1,0,3,5,1,2,4,0,250.0,test,4,E+
910.900115967,2,1000,5,1,0,3,5,1,2,4,0,250.0,test,2,E+
1053.19309235,2,1000,5,1,0,3,5,1,2,4,0,250.0,test,2,E+
1422.96481133,4,1000,4,1,0,3,5,1,2,4,0,250.0,test,4,E+
1406.99481964,3,1000,0,0,0,3,5,1,2,4,0,250.0,test,4,E+
1534.84082222,3,1000,0,1,0,3,5,1,2,4,0,250.0,test,3,E+
2446.43211365,1,1000,2,1,0,3,5,1,2,4,0,250.0,test,1,E+
686.384916306,0,1000,1,1,0,3,5,1,2,4,0,250.0,test,0,E+
1326.93386078,2,1000,5,1,0,3,5,1,2,4,0,250.0,test,2,E+
1087.01205254,5,1000,3,1,0,3,5,1,2,4,0,250.0,test,5,E+
590.250015259,5,1000,3,1,0,3,5,1,2,4,0,250.0,test,5,E+
813.118934631,0,1000,1,1,0,3,5,1,2,4,0,250.0,test,0,E+
894.8969841,5,1000,3,1,0,3,5,1,2,4,0,250.0,test,5,E+
2719.55394745,3,1000,0,1,0,3,5,1,2,4,0,250.0,test,3,E+
1855.10706902,5,1000,3,1,0,3,5,1,2,4,0,250.0,test,5,E+
2094.91896629,3,1000,0,1,0,3,5,1,2,4,0,250.0,test,3,E+
606.992006302,5,1000,3,1,0,3,5,1,2,4,0,250.0,test,5,E+
1822.9060173,4,1000,4,1,0,3,5,1,2,4,0,250.0,test,4,E+
1181.31899834,0,1000,1,1,0,3,5,1,2,4,0,250.0,test,0,E+
2989.99810219,4,1000,4,1,0,3,5,1,2,4,0,250.0,test,4,E+
575.099945068,3,1000,0,1,0,3,5,1,2,4,0,250.0,test,3,E+
559.005022049,0,1000,1,1,0,3,5,1,2,4,0,250.0,test,0,E+
1630.17296791,1,1000,2,1,0,3,5,1,2,4,0,250.0,test,1,E+
879.554033279,1,1000,2,1,0,3,5,1,2,4,0,250.0,test,1,E+
701.599836349,4,1000,4,1,0,3,5,1,2,4,0,250.0,test,4,E+
1567.47508049,3,1000,0,1,0,3,5,1,2,4,0,250.0,test,3,E+
494.275093079,1,1000,2,1,0,3,5,1,2,4,0,250.0,test,1,E+
1119.58193779,4,1000,4,1,0,3,5,1,2,4,0,250.0,test,4,E+
703.094959259,0,1000,1,1,0,3,5,1,2,4,0,250.0,test,0,E+
1038.41805458,3,1000,0,1,0,3,5,1,2,4,0,250.0,test,3,E+
687.618970871,2,1000,5,0,0,3,5,1,2,4,0,250.0,test,4,E+
686.933040619,4,1000,4,1,0,3,5,1,2,4,0,250.0,test,4,E+
607.634067535,2,1000,5,1,0,3,5,1,2,4,0,250.0,test,2,E+
575.042963028,2,1000,5,1,0,3,5,1,2,4,0,250.0,test,2,E+
991.687059402,4,1000,4,0,0,3,5,1,2,4,0,250.0,test,2,E+
1134.26804543,1,1000,2,0,0,3,5,1,2,4,0,250.0,test,0,E+
3054.83913422,0,1000,1,1,0,3,5,1,2,4,0,250.0,test,0,E+
3678.88998985,4,1000,4,0,0,3,5,1,2,4,0,250.0,test,0,E+
1262.96401024,2,1000,5,1,0,3,5,1,2,4,0,250.0,test,2,E+
2750.99992752,1,1000,2,0,0,3,5,1,2,4,0,250.0,test,0,E+
1918.95008087,5,1000,3,1,0,3,5,1,2,4,0,250.0,test,5,E+
1582.82613754,3,1000,0,1,0,3,5,1,2,4,0,250.0,test,3,E+
670.994997025,0,1000,1,1,0,3,5,1,2,4,0,250.0,test,0,E+
846.818208694,4,1000,4,1,0,3,5,1,2,4,0,250.0,test,4,E+
1055.00006676,0,1000,1,1,0,3,5,1,2,4,0,250.0,test,0,E+
2302.76799202,3,1000,0,1,0,3,5,1,2,4,0,250.0,test,3,E+
1342.79108047,0,1000,1,1,0,3,5,1,2,4,0,250.0,test,0,E+
1710.72483063,1,1000,2,0,0,3,5,1,2,4,0,250.0,test,0,E+
974.965810776,5,1000,3,1,0,3,5,1,2,4,0,250.0,test,5,E+
814.983844757,0,1000,1,1,0,3,5,1,2,4,0,250.0,test,0,E+
879.014968872,3,1000,0,1,0,3,5,1,2,4,0,250.0,test,3,E+
1262.99905777,1,1000,2,0,0,3,5,1,2,4,0,250.0,test,0,E+
1469.01202202,2,1000,5,0,0,3,5,1,2,4,0,250.0,test,1,E+
1055.74798584,2,1000,5,1,0,3,5,1,2,4,0,250.0,test,2,E+
1662.28508949,2,1000,5,1,0,3,5,1,2,4,0,250.0,test,2,E+
1103.18112373,1,1000,2,0,0,3,5,1,2,4,0,250.0,test,0,E+
2222.91183472,5,1000,3,0,0,3,5,1,2,4,0,250.0,test,1,E+
4893.99814606,0,1000,1,1,0,3,5,1,2,4,0,250.0,test,0,E+
1198.91500473,3,1000,0,1,0,3,5,1,2,4,0,250.0,test,3,E+
911.443948746,3,1000,0,1,0,3,5,1,2,4,0,250.0,test,3,E+
607.041120529,0,1000,1,1,0,3,5,1,2,4,0,250.0,test,0,E+
590.260982513,2,1000,5,1,0,3,5,1,2,4,0,250.0,test,2,E+
734.484910965,0,1000,1,1,0,3,5,1,2,4,0,250.0,test,0,E+
1038.4888649,2,1000,5,1,0,3,5,1,2,4,0,250.0,test,2,E+
1374.2980957,3,1000,0,1,0,3,5,1,2,4,0,250.0,test,3,E+
733.245134354,0,1000,1,1,0,3,5,1,2,4,0,250.0,test,0,E+
685.385227203,0,1000,1,1,0,3,5,1,2,4,0,250.0,test,0,E+
638.548135757,0,1000,1,1,0,3,5,1,2,4,0,250.0,test,0,E+
814.197063446,2,1000,5,0,0,3,5,1,2,4,0,250.0,test,1,E+
589.225053787,4,1000,4,0,0,3,5,1,2,4,0,250.0,test,3,E+
1279.53004837,1,1000,2,1,0,3,5,1,2,4,0,250.0,test,1,E+
510.43009758,2,1000,5,1,0,3,5,1,2,4,0,250.0,test,2,E+
637.192964554,2,1000,5,1,0,3,5,1,2,4,0,250.0,test,2,E+
542.225837708,0,1000,1,1,0,3,5,1,2,4,0,250.0,test,0,E+
590.693950653,2,1000,5,0,0,3,5,1,2,4,0,250.0,test,1,E+
815.608978271,1,1000,2,0,0,3,5,1,2,4,0,250.0,test,2,E+
542.777061462,0,1000,1,1,0,3,5,1,2,4,0,250.0,test,0,E+
734.070062637,1,1000,2,1,0,3,5,1,2,4,0,250.0,test,1,E+
590.288162231,2,1000,5,1,0,3,5,1,2,4,0,250.0,test,2,E+
494.086027145,1,1000,2,0,0,3,5,1,2,4,0,250.0,test,0,E+
590.178012848,3,1000,0,0,0,3,5,1,2,4,0,250.0,test,2,E+
991.556882858,3,1000,0,1,0,3,5,1,2,4,0,250.0,test,3,E+
655.565977097,1,1000,2,0,0,3,5,1,2,4,0,250.0,test,2,E+
RT,correct_response,ms-prestimblank,curstim,correct,SRmap_1,SRmap_0,SRmap_3,SRmap_2,SRmap_5,SRmap_4,ms-precue,ntrials,type,response,condition
1679.62789536,0,1000,2,1,1,2,4,0,5,3,0,250.0,train,0,H-
3999.57704544,1,1000,1,1,1,2,4,0,5,3,0,250.0,train,1,H-
4415.55500031,0,1000,2,1,1,2,4,0,5,3,0,250.0,train,0,H-
4271.73709869,0,1000,2,1,1,2,4,0,5,3,0,250.0,train,0,H-
3231.9021225,3,1000,4,1,1,2,4,0,5,3,0,250.0,train,3,H-
5632.20310211,3,1000,4,1,1,2,4,0,5,3,0,250.0,train,3,H-
2880.35297394,5,1000,5,1,1,2,4,0,5,3,0,250.0,train,5,H-
3664.32595253,2,1000,0,0,1,2,4,0,5,3,0,250.0,train,3,H-
2544.17109489,1,1000,1,1,1,2,4,0,5,3,0,250.0,train,1,H-
11151.9498825,2,1000,0,1,1,2,4,0,5,3,0,250.0,train,2,H-
2416.17202759,0,1000,2,1,1,2,4,0,5,3,0,250.0,train,0,H-
1936.33103371,0,1000,2,1,1,2,4,0,5,3,0,250.0,train,0,H-
3584.14888382,0,1000,2,0,1,2,4,0,5,3,0,250.0,train,1,H-
3984.21502113,4,1000,3,1,1,2,4,0,5,3,0,250.0,train,4,H-
2736.14192009,5,1000,5,1,1,2,4,0,5,3,0,250.0,train,5,H-
1392.33183861,2,1000,0,0,1,2,4,0,5,3,0,250.0,train,5,H-
5008.22901726,1,1000,1,1,1,2,4,0,5,3,0,250.0,train,1,H-
2000.35095215,1,1000,1,1,1,2,4,0,5,3,0,250.0,train,1,H-
1200.35982132,4,1000,3,0,1,2,4,0,5,3,0,250.0,train,1,H-
2064.30482864,4,1000,3,1,1,2,4,0,5,3,0,250.0,train,4,H-
2080.4810524,1,1000,1,1,1,2,4,0,5,3,0,250.0,train,1,H-
2144.31595802,4,1000,3,0,1,2,4,0,5,3,0,250.0,train,1,H-
992.736816406,0,1000,2,1,1,2,4,0,5,3,0,250.0,train,0,H-
2752.4368763,4,1000,3,0,1,2,4,0,5,3,0,250.0,train,0,H-
784.301042557,3,1000,4,0,1,2,4,0,5,3,0,250.0,train,4,H-
1696.27404213,0,1000,2,0,1,2,4,0,5,3,0,250.0,train,3,H-
2432.29317665,2,1000,0,1,1,2,4,0,5,3,0,250.0,train,2,H-
6272.179842,2,1000,0,1,1,2,4,0,5,3,0,250.0,train,2,H-
1904.3161869,5,1000,5,1,1,2,4,0,5,3,0,250.0,train,5,H-
1600.4447937,1,1000,1,1,1,2,4,0,5,3,0,250.0,train,1,H-
2144.39678192,3,1000,4,0,1,2,4,0,5,3,0,250.0,train,4,H-
1552.18100548,0,1000,2,1,1,2,4,0,5,3,0,250.0,train,0,H-
3776.27706528,2,1000,0,1,1,2,4,0,5,3,0,250.0,train,2,H-
6064.22400475,4,1000,3,1,1,2,4,0,5,3,0,250.0,train,4,H-
1472.23687172,1,1000,1,1,1,2,4,0,5,3,0,250.0,train,1,H-
3168.28393936,4,1000,3,1,1,2,4,0,5,3,0,250.0,train,4,H-
1904.26397324,5,1000,5,1,1,2,4,0,5,3,0,250.0,train,5,H-
1472.68676758,3,1000,4,1,1,2,4,0,5,3,0,250.0,train,3,H-
1936.63907051,1,1000,1,1,1,2,4,0,5,3,0,250.0,train,1,H-
1792.02198982,3,1000,4,0,1,2,4,0,5,3,0,250.0,train,1,H-
2543.79415512,5,1000,5,1,1,2,4,0,5,3,0,250.0,train,5,H-
4576.4811039,5,1000,5,1,1,2,4,0,5,3,0,250.0,train,5,H-
1808.50410461,0,1000,2,1,1,2,4,0,5,3,0,250.0,train,0,H-
2335.64400673,4,1000,3,1,1,2,4,0,5,3,0,250.0,train,4,H-
3871.84500694,2,1000,0,1,1,2,4,0,5,3,0,250.0,train,2,H-
2943.73106956,2,1000,0,0,1,2,4,0,5,3,0,250.0,train,3,H-
1711.82608604,1,1000,1,1,1,2,4,0,5,3,0,250.0,train,1,H-
2592.0920372,3,1000,4,1,1,2,4,0,5,3,0,250.0,train,3,H-
2544.28219795,5,1000,5,1,1,2,4,0,5,3,0,250.0,train,5,H-
3536.07392311,0,1000,2,1,1,2,4,0,5,3,0,250.0,train,0,H-
1807.7480793,0,1000,2,1,1,2,4,0,5,3,0,250.0,train,0,H-
3311.7249012,3,1000,4,1,1,2,4,0,5,3,0,250.0,train,3,H-
2064.65911865,0,1000,2,1,1,2,4,0,5,3,0,250.0,train,0,H-
2319.65708733,0,1000,2,1,1,2,4,0,5,3,0,250.0,train,0,H-
1648.3798027,4,1000,3,1,1,2,4,0,5,3,0,250.0,train,4,H-
4720.2630043,2,1000,0,1,1,2,4,0,5,3,0,250.0,train,2,H-
5472.1031189,2,1000,0,1,1,2,4,0,5,3,0,250.0,train,2,H-
1568.3028698,4,1000,3,1,1,2,4,0,5,3,0,250.0,train,4,H-
4112.22815514,3,1000,4,1,1,2,4,0,5,3,0,250.0,train,3,H-
2352.41103172,2,1000,0,1,1,2,4,0,5,3,0,250.0,train,2,H-
6192.29602814,2,1000,0,1,1,2,4,0,5,3,0,250.0,train,2,H-
2144.39296722,3,1000,4,1,1,2,4,0,5,3,0,250.0,train,3,H-
4192.29984283,2,1000,0,1,1,2,4,0,5,3,0,250.0,train,2,H-
7664.0381813,2,1000,0,1,1,2,4,0,5,3,0,250.0,train,2,H-
1904.27517891,1,1000,1,1,1,2,4,0,5,3,0,250.0,train,1,H-
1216.34793282,1,1000,1,1,1,2,4,0,5,3,0,250.0,train,1,H-
3008.33082199,5,1000,5,1,1,2,4,0,5,3,0,250.0,train,5,H-
9216.04704857,0,1000,2,1,1,2,4,0,5,3,0,250.0,train,0,H-
1056.40792847,1,1000,1,1,1,2,4,0,5,3,0,250.0,train,1,H-
1232.30195045,4,1000,3,1,1,2,4,0,5,3,0,250.0,train,4,H-
2752.27403641,5,1000,5,1,1,2,4,0,5,3,0,250.0,train,5,H-
3759.90605354,5,1000,5,1,1,2,4,0,5,3,0,250.0,train,5,H-
3312.06893921,2,1000,0,1,1,2,4,0,5,3,0,250.0,train,2,H-
5104.25710678,3,1000,4,1,1,2,4,0,5,3,0,250.0,train,3,H-
10400.177002,5,1000,5,1,1,2,4,0,5,3,0,250.0,train,5,H-
1104.28786278,4,1000,3,1,1,2,4,0,5,3,0,250.0,train,4,H-
1824.32889938,0,1000,2,1,1,2,4,0,5,3,0,250.0,train,0,H-
2272.33099937,4,1000,3,1,1,2,4,0,5,3,0,250.0,train,4,H-
1600.29101372,0,1000,2,1,1,2,4,0,5,3,0,250.0,train,0,H-
10831.9730759,2,1000,0,1,1,2,4,0,5,3,0,250.0,train,2,H-
8160.23111343,5,1000,5,1,1,2,4,0,5,3,0,250.0,train,5,H-
3184.2610836,2,1000,0,1,1,2,4,0,5,3,0,250.0,train,2,H-
3632.20906258,3,1000,4,1,1,2,4,0,5,3,0,250.0,train,3,H-
2944.32210922,4,1000,3,1,1,2,4,0,5,3,0,250.0,train,4,H-
6016.22509956,1,1000,1,0,1,2,4,0,5,3,0,250.0,train,0,H-
7056.18691444,3,1000,4,1,1,2,4,0,5,3,0,250.0,train,3,H-
1168.55502129,4,1000,3,1,1,2,4,0,5,3,0,250.0,train,4,H-
1440.19603729,5,1000,5,1,1,2,4,0,5,3,0,250.0,train,5,H-
1792.56892204,2,1000,0,1,1,2,4,0,5,3,0,250.0,train,2,H-
3392.38190651,0,1000,2,1,1,2,4,0,5,3,0,250.0,train,0,H-
5760.1249218,3,1000,4,0,1,2,4,0,5,3,0,250.0,train,1,H-
3408.19501877,2,1000,0,0,1,2,4,0,5,3,0,250.0,train,3,H-
2416.2979126,4,1000,3,1,1,2,4,0,5,3,0,250.0,train,4,H-
4112.35499382,0,1000,2,1,1,2,4,0,5,3,0,250.0,train,0,H-
5152.35686302,3,1000,4,1,1,2,4,0,5,3,0,250.0,train,3,H-
3040.42005539,3,1000,4,1,1,2,4,0,5,3,0,250.0,train,3,H-
6048.31409454,0,1000,2,1,1,2,4,0,5,3,0,250.0,train,0,H-
13759.9320412,5,1000,5,1,1,2,4,0,5,3,0,250.0,train,5,H-
2848.19293022,4,1000,3,1,1,2,4,0,5,3,0,250.0,train,4,H-
1744.76695061,0,1000,2,1,1,2,4,0,5,3,0,250.0,train,0,H-
1072.41296768,1,1000,1,1,1,2,4,0,5,3,0,250.0,train,1,H-
1120.35012245,4,1000,3,1,1,2,4,0,5,3,0,250.0,train,4,H-
1280.35402298,2,1000,0,0,1,2,4,0,5,3,0,250.0,train,3,H-
11120.0928688,3,1000,4,1,1,2,4,0,5,3,0,250.0,train,3,H-
1136.39807701,0,1000,2,0,1,2,4,0,5,3,0,250.0,train,1,H-
864.773988724,0,1000,2,1,1,2,4,0,5,3,0,250.0,train,0,H-
4560.21308899,4,1000,3,1,1,2,4,0,5,3,0,250.0,train,4,H-
1759.95779037,1,1000,1,1,1,2,4,0,5,3,0,250.0,train,1,H-
2304.708004,2,1000,0,1,1,2,4,0,5,3,0,250.0,train,2,H-
1712.34488487,0,1000,2,1,1,2,4,0,5,3,0,250.0,train,0,H-
1856.36091232,1,1000,1,1,1,2,4,0,5,3,0,250.0,train,1,H-
1792.69695282,5,1000,5,1,1,2,4,0,5,3,0,250.0,train,5,H-
1152.43506432,5,1000,5,1,1,2,4,0,5,3,0,250.0,train,5,H-
2432.28292465,4,1000,3,1,1,2,4,0,5,3,0,250.0,train,4,H-
8368.16596985,1,1000,1,1,1,2,4,0,5,3,0,250.0,train,1,H-
1648.37503433,5,1000,5,1,1,2,4,0,5,3,0,250.0,train,5,H-
7392.05503464,4,1000,3,1,1,2,4,0,5,3,0,250.0,train,4,H-
3552.15191841,0,1000,2,1,1,2,4,0,5,3,0,250.0,train,0,H-
1488.26885223,1,1000,1,1,1,2,4,0,5,3,0,250.0,train,1,H-
2000.3349781,3,1000,4,1,1,2,4,0,5,3,0,250.0,train,3,H-
3952.13699341,2,1000,0,1,1,2,4,0,5,3,0,250.0,train,2,H-
1040.35401344,0,1000,2,1,1,2,4,0,5,3,0,250.0,train,0,H-
1616.41788483,5,1000,5,1,1,2,4,0,5,3,0,250.0,train,5,H-
2608.38699341,1,1000,1,1,1,2,4,0,5,3,0,250.0,train,1,H-
2655.99298477,3,1000,4,1,1,2,4,0,5,3,0,250.0,train,3,H-
2768.34702492,3,1000,4,1,1,2,4,0,5,3,0,250.0,train,3,H-
2192.44885445,4,1000,3,1,1,2,4,0,5,3,0,250.0,train,4,H-
1504.27317619,5,1000,5,1,1,2,4,0,5,3,0,250.0,train,5,H-
5456.93206787,0,1000,2,1,1,2,4,0,5,3,0,250.0,train,0,H-
1168.36214066,0,1000,2,1,1,2,4,0,5,3,0,250.0,train,0,H-
2336.5881443,2,1000,0,0,1,2,4,0,5,3,0,250.0,train,3,H-
1328.11498642,0,1000,2,1,1,2,4,0,5,3,0,250.0,train,0,H-
1232.42092133,4,1000,3,1,1,2,4,0,5,3,0,250.0,train,4,H-
5968.2059288,3,1000,4,1,1,2,4,0,5,3,0,250.0,train,3,H-
3264.18209076,3,1000,4,1,1,2,4,0,5,3,0,250.0,train,3,H-
1920.35317421,0,1000,2,1,1,2,4,0,5,3,0,250.0,train,0,H-
7520.13802528,5,1000,5,1,1,2,4,0,5,3,0,250.0,train,5,H-
2111.95993423,1,1000,1,1,1,2,4,0,5,3,0,250.0,train,1,H-
1264.33610916,1,1000,1,1,1,2,4,0,5,3,0,250.0,train,1,H-
1696.39110565,2,1000,0,1,1,2,4,0,5,3,0,250.0,train,2,H-
1136.32082939,0,1000,2,1,1,2,4,0,5,3,0,250.0,train,0,H-
3072.2899437,5,1000,5,1,1,2,4,0,5,3,0,250.0,train,5,H-
1760.19716263,1,1000,1,1,1,2,4,0,5,3,0,250.0,train,1,H-
1393.30506325,5,1000,5,1,1,2,4,0,5,3,0,250.0,train,5,H-
3232.23686218,4,1000,3,1,1,2,4,0,5,3,0,250.0,train,4,H-
2640.3400898,0,1000,2,1,1,2,4,0,5,3,0,250.0,train,0,H-
4672.23000526,1,1000,1,1,1,2,4,0,5,3,0,250.0,train,1,H-
13599.8561382,5,1000,5,0,1,2,4,0,5,3,0,250.0,train,4,H-
1408.27393532,2,1000,0,0,1,2,4,0,5,3,0,250.0,train,5,H-
2928.30896378,5,1000,5,1,1,2,4,0,5,3,0,250.0,train,5,H-
1072.27015495,4,1000,3,1,1,2,4,0,5,3,0,250.0,train,4,H-
992.49792099,1,1000,1,1,1,2,4,0,5,3,0,250.0,train,1,H-
992.358922958,1,1000,1,1,1,2,4,0,5,3,0,250.0,train,1,H-
976.505994797,0,1000,2,1,1,2,4,0,5,3,0,250.0,train,0,H-
1312.68596649,3,1000,4,0,1,2,4,0,5,3,0,250.0,train,1,H-
8975.99816322,5,1000,5,1,1,2,4,0,5,3,0,250.0,train,5,H-
3552.36411095,2,1000,0,1,1,2,4,0,5,3,0,250.0,train,2,H-
1248.2008934,1,1000,1,1,1,2,4,0,5,3,0,250.0,train,1,H-
6160.25710106,3,1000,4,1,1,2,4,0,5,3,0,250.0,train,3,H-
1072.40891457,5,1000,5,1,1,2,4,0,5,3,0,250.0,train,5,H-
3440.33503532,3,1000,4,1,1,2,4,0,5,3,0,250.0,train,3,H-
11056.0150146,3,1000,4,1,1,2,4,0,5,3,0,250.0,train,3,H-
1152.44889259,4,1000,3,1,1,2,4,0,5,3,0,250.0,train,4,H-
3568.20988655,3,1000,4,1,1,2,4,0,5,3,0,250.0,train,3,H-
2320.16801834,0,1000,2,1,1,2,4,0,5,3,0,250.0,train,0,H-
1472.27406502,3,1000,4,1,1,2,4,0,5,3,0,250.0,train,3,H-
3568.18604469,2,1000,0,0,1,2,4,0,5,3,0,250.0,train,1,H-
3040.29011726,4,1000,3,0,1,2,4,0,5,3,0,250.0,train,2,H-
1184.37099457,0,1000,2,1,1,2,4,0,5,3,0,250.0,train,0,H-
9904.02984619,2,1000,0,1,1,2,4,0,5,3,0,250.0,train,2,H-
2239.70508575,4,1000,3,1,1,2,4,0,5,3,0,250.0,train,4,H-
4463.47904205,2,1000,0,0,1,2,4,0,5,3,0,250.0,train,4,H-
2703.77612114,5,1000,5,1,1,2,4,0,5,3,0,250.0,train,5,H-
3264.67990875,3,1000,4,1,1,2,4,0,5,3,0,250.0,train,3,H-
3152.27198601,2,1000,0,1,1,2,4,0,5,3,0,250.0,train,2,H-
2448.18806648,2,1000,0,1,1,2,4,0,5,3,0,250.0,train,2,H-
1328.22108269,0,1000,2,1,1,2,4,0,5,3,0,250.0,train,0,H-
1088.30285072,1,1000,1,1,1,2,4,0,5,3,0,250.0,train,1,H-
3040.40622711,2,1000,0,1,1,2,4,0,5,3,0,250.0,train,2,H-
1104.4819355,0,1000,2,1,1,2,4,0,5,3,0,250.0,train,0,H-
3376.24597549,5,1000,5,1,1,2,4,0,5,3,0,250.0,train,5,H-
1232.11097717,1,1000,1,1,1,2,4,0,5,3,0,250.0,train,1,H-
1568.38297844,2,1000,0,1,1,2,4,0,5,3,0,250.0,train,2,H-
1168.2870388,1,1000,1,1,1,2,4,0,5,3,0,250.0,train,1,H-
1712.33797073,4,1000,3,1,1,2,4,0,5,3,0,250.0,train,4,H-
1712.34703064,0,1000,2,1,1,2,4,0,5,3,0,250.0,train,0,H-
3024.58310127,2,1000,0,1,1,2,4,0,5,3,0,250.0,train,2,H-
1760.242939,5,1000,5,1,1,2,4,0,5,3,0,250.0,train,5,H-
7920.10498047,0,1000,2,1,1,2,4,0,5,3,0,250.0,train,0,H-
7760.13207436,0,1000,2,1,1,2,4,0,5,3,0,250.0,train,0,H-
3488.27910423,3,1000,4,0,1,2,4,0,5,3,0,250.0,train,2,H-
752.192974091,4,1000,3,1,1,2,4,0,5,3,0,250.0,train,4,H-
1008.50701332,1,1000,1,0,1,2,4,0,5,3,0,250.0,train,0,H-
1456.67910576,4,1000,3,1,1,2,4,0,5,3,0,250.0,train,4,H-
1712.48102188,4,1000,3,1,1,2,4,0,5,3,0,250.0,train,4,H-
4736.27614975,3,1000,4,1,1,2,4,0,5,3,0,250.0,train,3,H-
2192.36803055,4,1000,3,1,1,2,4,0,5,3,0,250.0,train,4,H-
1760.38885117,0,1000,2,1,1,2,4,0,5,3,0,250.0,train,0,H-
1872.31302261,3,1000,4,1,1,2,4,0,5,3,0,250.0,train,3,H-
3040.4150486,1,1000,1,1,1,2,4,0,5,3,0,250.0,train,1,H-
2400.31003952,3,1000,4,1,1,2,4,0,5,3,0,250.0,train,3,H-
1120.39399147,1,1000,1,1,1,2,4,0,5,3,0,250.0,train,1,H-
1360.40306091,1,1000,1,1,1,2,4,0,5,3,0,250.0,train,1,H-
1792.31095314,5,1000,5,1,1,2,4,0,5,3,0,250.0,train,5,H-
1216.38202667,1,1000,1,1,1,2,4,0,5,3,0,250.0,train,1,H-
1648.30493927,5,1000,5,1,1,2,4,0,5,3,0,250.0,train,5,H-
1487.90788651,0,1000,2,1,1,2,4,0,5,3,0,250.0,train,0,H-
864.338874817,0,1000,2,1,1,2,4,0,5,3,0,250.0,train,0,H-
5008.37492943,3,1000,4,1,1,2,4,0,5,3,0,250.0,train,3,H-
1120.48697472,1,1000,1,1,1,2,4,0,5,3,0,250.0,train,1,H-
1376.41906738,4,1000,3,1,1,2,4,0,5,3,0,250.0,train,4,H-
848.395824432,4,1000,3,1,1,2,4,0,5,3,0,250.0,train,4,H-
3424.24702644,5,1000,5,0,1,2,4,0,5,3,0,250.0,train,4,H-
1536.16809845,5,1000,5,1,1,2,4,0,5,3,0,250.0,train,5,H-
880.454063416,4,1000,3,1,1,2,4,0,5,3,0,250.0,train,4,H-
2336.32612228,1,1000,1,1,1,2,4,0,5,3,0,250.0,train,1,H-
1088.38105202,4,1000,3,1,1,2,4,0,5,3,0,250.0,train,4,H-
720.545053482,4,1000,3,1,1,2,4,0,5,3,0,250.0,train,4,H-
1024.43194389,3,1000,4,1,1,2,4,0,5,3,0,250.0,train,3,H-
1200.45304298,1,1000,1,1,1,2,4,0,5,3,0,250.0,train,1,H-
4912.34183311,4,1000,3,1,1,2,4,0,5,3,0,250.0,train,4,H-
1184.43894386,0,1000,2,1,1,2,4,0,5,3,0,250.0,train,0,H-
1024.30009842,5,1000,5,1,1,2,4,0,5,3,0,250.0,train,5,H-
1792.79613495,0,1000,2,1,1,2,4,0,5,3,0,250.0,train,0,H-
1472.29599953,1,1000,1,1,1,2,4,0,5,3,0,250.0,train,1,H-
2944.79608536,4,1000,3,1,1,2,4,0,5,3,0,250.0,train,4,H-
1376.19709969,5,1000,5,1,1,2,4,0,5,3,0,250.0,train,5,H-
1296.38195038,0,1000,2,1,1,2,4,0,5,3,0,250.0,train,0,H-
1040.35210609,1,1000,1,1,1,2,4,0,5,3,0,250.0,train,1,H-
2560.66608429,5,1000,5,1,1,2,4,0,5,3,0,250.0,train,5,H-
2352.2298336,2,1000,0,1,1,2,4,0,5,3,0,250.0,train,2,H-
3408.21409225,2,1000,0,1,1,2,4,0,5,3,0,250.0,train,2,H-
1616.41407013,5,1000,5,1,1,2,4,0,5,3,0,250.0,train,5,H-
2336.21406555,5,1000,5,1,1,2,4,0,5,3,0,250.0,train,5,H-
1952.26597786,2,1000,0,1,1,2,4,0,5,3,0,250.0,train,2,H-
1216.27306938,4,1000,3,1,1,2,4,0,5,3,0,250.0,train,4,H-
6592.3178196,3,1000,4,0,1,2,4,0,5,3,0,250.0,train,4,H-
1168.38693619,4,1000,3,1,1,2,4,0,5,3,0,250.0,train,4,H-
1104.3419838,3,1000,4,1,1,2,4,0,5,3,0,250.0,train,3,H-
1552.43110657,1,1000,1,1,1,2,4,0,5,3,0,250.0,train,1,H-
4447.89505005,2,1000,0,0,1,2,4,0,5,3,0,250.0,train,3,H-
2976.20797157,5,1000,5,1,1,2,4,0,5,3,0,250.0,train,5,H-
1520.3499794,0,1000,2,1,1,2,4,0,5,3,0,250.0,train,0,H-
2160.46714783,0,1000,2,1,1,2,4,0,5,3,0,250.0,train,0,H-
5056.35285378,3,1000,4,1,1,2,4,0,5,3,0,250.0,train,3,H-
832.301855087,4,1000,3,1,1,2,4,0,5,3,0,250.0,train,4,H-
1552.29496956,2,1000,0,1,1,2,4,0,5,3,0,250.0,train,2,H-
3632.42077827,3,1000,4,1,1,2,4,0,5,3,0,250.0,train,3,H-
4384.6950531,1,1000,1,1,1,2,4,0,5,3,0,250.0,train,1,H-
2832.45301247,4,1000,3,0,1,2,4,0,5,3,0,250.0,train,5,H-
1920.13001442,4,1000,5,1,0,1,2,5,4,3,0,250.0,test,4,H-
1743.94083023,2,1000,3,1,0,1,2,5,4,3,0,250.0,test,2,H-
624.528884888,2,1000,3,1,0,1,2,5,4,3,0,250.0,test,2,H-
1120.30291557,0,1000,1,1,0,1,2,5,4,3,0,250.0,test,0,H-
1359.82894897,0,1000,1,0,0,1,2,5,4,3,0,250.0,test,1,H-
6448.10914993,3,1000,4,1,0,1,2,5,4,3,0,250.0,test,3,H-
1856.43911362,2,1000,3,1,0,1,2,5,4,3,0,250.0,test,2,H-
784.492969513,3,1000,4,0,0,1,2,5,4,3,0,250.0,test,4,H-
2080.31010628,1,1000,0,0,0,1,2,5,4,3,0,250.0,test,2,H-
880.336046219,0,1000,1,1,0,1,2,5,4,3,0,250.0,test,0,H-
1840.39902687,3,1000,4,1,0,1,2,5,4,3,0,250.0,test,3,H-
1696.38299942,2,1000,3,1,0,1,2,5,4,3,0,250.0,test,2,H-
3088.4771347,4,1000,5,1,0,1,2,5,4,3,0,250.0,test,4,H-
1248.25406075,4,1000,5,1,0,1,2,5,4,3,0,250.0,test,4,H-
1456.4139843,1,1000,0,1,0,1,2,5,4,3,0,250.0,test,1,H-
1936.3591671,4,1000,5,1,0,1,2,5,4,3,0,250.0,test,4,H-
1360.28814316,0,1000,1,1,0,1,2,5,4,3,0,250.0,test,0,H-
2096.29607201,1,1000,0,1,0,1,2,5,4,3,0,250.0,test,1,H-
1120.43213844,0,1000,1,1,0,1,2,5,4,3,0,250.0,test,0,H-
848.5019207,0,1000,1,1,0,1,2,5,4,3,0,250.0,test,0,H-
3408.411026,1,1000,0,1,0,1,2,5,4,3,0,250.0,test,1,H-
992.386102676,2,1000,3,1,0,1,2,5,4,3,0,250.0,test,2,H-
1904.36887741,3,1000,4,1,0,1,2,5,4,3,0,250.0,test,3,H-
736.263990402,4,1000,5,1,0,1,2,5,4,3,0,250.0,test,4,H-
3584.32507515,5,1000,2,1,0,1,2,5,4,3,0,250.0,test,5,H-
1217.20004082,3,1000,4,1,0,1,2,5,4,3,0,250.0,test,3,H-
1072.68190384,2,1000,3,1,0,1,2,5,4,3,0,250.0,test,2,H-
1984.55309868,3,1000,4,1,0,1,2,5,4,3,0,250.0,test,3,H-
1344.37394142,1,1000,0,1,0,1,2,5,4,3,0,250.0,test,1,H-
2912.39380836,3,1000,4,1,0,1,2,5,4,3,0,250.0,test,3,H-
5663.80310059,1,1000,0,1,0,1,2,5,4,3,0,250.0,test,1,H-
1536.37909889,5,1000,2,0,0,1,2,5,4,3,0,250.0,test,4,H-
960.369825363,0,1000,1,1,0,1,2,5,4,3,0,250.0,test,0,H-
3680.23896217,3,1000,4,1,0,1,2,5,4,3,0,250.0,test,3,H-
832.295894623,0,1000,1,1,0,1,2,5,4,3,0,250.0,test,0,H-
1344.3338871,4,1000,5,1,0,1,2,5,4,3,0,250.0,test,4,H-
2656.32987022,3,1000,4,0,0,1,2,5,4,3,0,250.0,test,1,H-
3072.36003876,2,1000,3,1,0,1,2,5,4,3,0,250.0,test,2,H-
1280.30991554,4,1000,5,1,0,1,2,5,4,3,0,250.0,test,4,H-
3024.44410324,4,1000,5,1,0,1,2,5,4,3,0,250.0,test,4,H-
1568.39609146,5,1000,2,1,0,1,2,5,4,3,0,250.0,test,5,H-
1360.41402817,4,1000,5,1,0,1,2,5,4,3,0,250.0,test,4,H-
1552.38008499,1,1000,0,1,0,1,2,5,4,3,0,250.0,test,1,H-
1248.3549118,5,1000,2,1,0,1,2,5,4,3,0,250.0,test,5,H-
1392.27104187,3,1000,4,1,0,1,2,5,4,3,0,250.0,test,3,H-
944.38791275,0,1000,1,1,0,1,2,5,4,3,0,250.0,test,0,H-
1872.28107452,5,1000,2,1,0,1,2,5,4,3,0,250.0,test,5,H-
8240.01693726,5,1000,2,1,0,1,2,5,4,3,0,250.0,test,5,H-
1664.31379318,2,1000,3,1,0,1,2,5,4,3,0,250.0,test,2,H-
1520.52593231,2,1000,3,1,0,1,2,5,4,3,0,250.0,test,2,H-
2608.34217072,4,1000,5,1,0,1,2,5,4,3,0,250.0,test,4,H-
2432.48391151,1,1000,0,1,0,1,2,5,4,3,0,250.0,test,1,H-
5600.34108162,5,1000,2,0,0,1,2,5,4,3,0,250.0,test,1,H-
3056.37192726,0,1000,1,0,0,1,2,5,4,3,0,250.0,test,1,H-
624.301195145,0,1000,1,1,0,1,2,5,4,3,0,250.0,test,0,H-
6096.25601768,1,1000,0,1,0,1,2,5,4,3,0,250.0,test,1,H-
1152.47702599,2,1000,3,1,0,1,2,5,4,3,0,250.0,test,2,H-
960.268974304,0,1000,1,1,0,1,2,5,4,3,0,250.0,test,0,H-
1888.40699196,1,1000,0,1,0,1,2,5,4,3,0,250.0,test,1,H-
9775.99310875,4,1000,5,1,0,1,2,5,4,3,0,250.0,test,4,H-
1072.47114182,2,1000,3,1,0,1,2,5,4,3,0,250.0,test,2,H-
1296.68712616,2,1000,3,1,0,1,2,5,4,3,0,250.0,test,2,H-
1040.78483582,0,1000,1,1,0,1,2,5,4,3,0,250.0,test,0,H-
944.416046143,0,1000,1,1,0,1,2,5,4,3,0,250.0,test,0,H-
4176.40900612,1,1000,0,1,0,1,2,5,4,3,0,250.0,test,1,H-
1072.32785225,2,1000,3,1,0,1,2,5,4,3,0,250.0,test,2,H-
5231.91308975,5,1000,2,0,0,1,2,5,4,3,0,250.0,test,3,H-
1376.22284889,5,1000,2,1,0,1,2,5,4,3,0,250.0,test,5,H-
4128.39102745,5,1000,2,1,0,1,2,5,4,3,0,250.0,test,5,H-
1600.28886795,2,1000,3,1,0,1,2,5,4,3,0,250.0,test,2,H-
1936.398983,4,1000,5,1,0,1,2,5,4,3,0,250.0,test,4,H-
2336.22813225,2,1000,3,1,0,1,2,5,4,3,0,250.0,test,2,H-
5152.24695206,1,1000,0,0,0,1,2,5,4,3,0,250.0,test,2,H-
1536.33117676,1,1000,0,1,0,1,2,5,4,3,0,250.0,test,1,H-
1728.29794884,5,1000,2,1,0,1,2,5,4,3,0,250.0,test,5,H-
1088.47498894,5,1000,2,1,0,1,2,5,4,3,0,250.0,test,5,H-
2688.41004372,3,1000,4,1,0,1,2,5,4,3,0,250.0,test,3,H-
1024.27101135,2,1000,3,1,0,1,2,5,4,3,0,250.0,test,2,H-
1472.45311737,0,1000,1,0,0,1,2,5,4,3,0,250.0,test,1,H-
1184.29398537,5,1000,2,1,0,1,2,5,4,3,0,250.0,test,5,H-
1872.35999107,2,1000,3,1,0,1,2,5,4,3,0,250.0,test,2,H-
1408.75291824,3,1000,4,1,0,1,2,5,4,3,0,250.0,test,3,H-
1392.34304428,3,1000,4,0,0,1,2,5,4,3,0,250.0,test,5,H-
2272.79400826,5,1000,2,1,0,1,2,5,4,3,0,250.0,test,5,H-
992.331981659,4,1000,5,1,0,1,2,5,4,3,0,250.0,test,4,H-
2416.40305519,1,1000,0,1,0,1,2,5,4,3,0,250.0,test,1,H-
1120.43404579,0,1000,1,0,0,1,2,5,4,3,0,250.0,test,1,H-
2736.33813858,3,1000,4,1,0,1,2,5,4,3,0,250.0,test,3,H-
976.404905319,1,1000,0,1,0,1,2,5,4,3,0,250.0,test,1,H-
1072.3528862,1,1000,0,1,0,1,2,5,4,3,0,250.0,test,1,H-
832.425117493,1,1000,0,1,0,1,2,5,4,3,0,250.0,test,1,H-
880.460977554,2,1000,3,1,0,1,2,5,4,3,0,250.0,test,2,H-
2624.33886528,3,1000,4,1,0,1,2,5,4,3,0,250.0,test,3,H-
5168.34712029,3,1000,4,1,0,1,2,5,4,3,0,250.0,test,3,H-
6960.12496948,4,1000,5,1,0,1,2,5,4,3,0,250.0,test,4,H-
1840.33894539,3,1000,4,1,0,1,2,5,4,3,0,250.0,test,3,H-
832.005977631,4,1000,5,1,0,1,2,5,4,3,0,250.0,test,4,H-
1152.51898766,2,1000,3,1,0,1,2,5,4,3,0,250.0,test,2,H-
3856.24098778,5,1000,2,1,0,1,2,5,4,3,0,250.0,test,5,H-
864.328861237,5,1000,2,1,0,1,2,5,4,3,0,250.0,test,5,H-
1616.16516113,5,1000,2,1,0,1,2,5,4,3,0,250.0,test,5,H-
1888.69595528,3,1000,4,1,0,1,2,5,4,3,0,250.0,test,3,H-
1616.71495438,2,1000,3,1,0,1,2,5,4,3,0,250.0,test,2,H-
1248.22402,0,1000,1,1,0,1,2,5,4,3,0,250.0,test,0,H-
1392.16399193,2,1000,3,1,0,1,2,5,4,3,0,250.0,test,2,H-
848.378896713,2,1000,3,1,0,1,2,5,4,3,0,250.0,test,2,H-
3744.37999725,5,1000,2,1,0,1,2,5,4,3,0,250.0,test,5,H-
1504.23002243,1,1000,0,1,0,1,2,5,4,3,0,250.0,test,1,H-
7104.17222977,3,1000,4,1,0,1,2,5,4,3,0,250.0,test,3,H-
1536.30304337,0,1000,1,1,0,1,2,5,4,3,0,250.0,test,0,H-
1504.69303131,2,1000,3,1,0,1,2,5,4,3,0,250.0,test,2,H-
1552.4160862,3,1000,4,1,0,1,2,5,4,3,0,250.0,test,3,H-
1296.33879662,0,1000,1,1,0,1,2,5,4,3,0,250.0,test,0,H-
4464.32995796,3,1000,4,1,0,1,2,5,4,3,0,250.0,test,3,H-
3760.25819778,3,1000,4,1,0,1,2,5,4,3,0,250.0,test,3,H-
3392.17400551,4,1000,5,1,0,1,2,5,4,3,0,250.0,test,4,H-
4192.38209724,1,1000,0,0,0,1,2,5,4,3,0,250.0,test,3,H-
1152.32205391,5,1000,2,1,0,1,2,5,4,3,0,250.0,test,5,H-
3056.39410019,1,1000,0,1,0,1,2,5,4,3,0,250.0,test,1,H-
11056.0829639,1,1000,0,1,0,1,2,5,4,3,0,250.0,test,1,H-
1424.2939949,5,1000,2,1,0,1,2,5,4,3,0,250.0,test,5,H-
2064.46695328,5,1000,2,1,0,1,2,5,4,3,0,250.0,test,5,H-
1776.38602257,0,1000,1,1,0,1,2,5,4,3,0,250.0,test,0,H-
2240.32497406,5,1000,2,1,0,1,2,5,4,3,0,250.0,test,5,H-
4416.203022,4,1000,5,1,0,1,2,5,4,3,0,250.0,test,4,H-
2176.23782158,2,1000,3,1,0,1,2,5,4,3,0,250.0,test,2,H-
2832.30495453,5,1000,2,0,0,1,2,5,4,3,0,250.0,test,3,H-
1328.27591896,0,1000,1,1,0,1,2,5,4,3,0,250.0,test,0,H-
4064.39495087,1,1000,0,1,0,1,2,5,4,3,0,250.0,test,1,H-
2528.39398384,4,1000,5,1,0,1,2,5,4,3,0,250.0,test,4,H-
8848.23489189,3,1000,4,1,0,1,2,5,4,3,0,250.0,test,3,H-
3632.29489326,4,1000,5,1,0,1,2,5,4,3,0,250.0,test,4,H-
2352.12016106,3,1000,4,0,0,1,2,5,4,3,0,250.0,test,5,H-
1679.99196053,4,1000,5,1,0,1,2,5,4,3,0,250.0,test,4,H-
1039.93105888,0,1000,1,1,0,1,2,5,4,3,0,250.0,test,0,H-
992.026090622,0,1000,1,0,0,1,2,5,4,3,0,250.0,test,1,H-
1423.62618446,2,1000,3,1,0,1,2,5,4,3,0,250.0,test,2,H-
864.170074463,2,1000,3,1,0,1,2,5,4,3,0,250.0,test,2,H-
1327.99291611,1,1000,0,1,0,1,2,5,4,3,0,250.0,test,1,H-
1984.32016373,0,1000,1,1,0,1,2,5,4,3,0,250.0,test,0,H-
1936.00201607,0,1000,1,1,0,1,2,5,4,3,0,250.0,test,0,H-
1472.37086296,3,1000,4,0,0,1,2,5,4,3,0,250.0,test,4,H-
2672.29413986,1,1000,0,1,0,1,2,5,4,3,0,250.0,test,1,H-
1328.36699486,3,1000,4,1,0,1,2,5,4,3,0,250.0,test,3,H-
1248.28100204,1,1000,0,1,0,1,2,5,4,3,0,250.0,test,1,H-
2112.35785484,3,1000,4,1,0,1,2,5,4,3,0,250.0,test,3,H-
3216.46690369,5,1000,2,1,0,1,2,5,4,3,0,250.0,test,5,H-
3632.23290443,0,1000,1,1,0,1,2,5,4,3,0,250.0,test,0,H-
1328.31597328,5,1000,2,1,0,1,2,5,4,3,0,250.0,test,5,H-
6960.21318436,3,1000,4,1,0,1,2,5,4,3,0,250.0,test,3,H-
9744.01807785,5,1000,2,1,0,1,2,5,4,3,0,250.0,test,5,H-
3616.36996269,5,1000,2,1,0,1,2,5,4,3,0,250.0,test,5,H-
1712.35990524,2,1000,3,0,0,1,2,5,4,3,0,250.0,test,1,H-
