RT,correct_response,ms-prestimblank,curstim,correct,SRmap_1,SRmap_0,SRmap_3,SRmap_2,SRmap_5,SRmap_4,ms-precue,ntrials,type,response,condition
4663.92397881,2,600,2,1,3,4,5,2,1,0,400,250.0,train,2,E+
359.763860703,1,600,5,1,3,4,5,2,1,0,400,250.0,train,1,E+
1127.86316872,4,600,0,1,3,4,5,2,1,0,400,250.0,train,4,E+
407.8540802,1,600,5,1,3,4,5,2,1,0,400,250.0,train,1,E+
1079.7560215,4,600,0,0,3,4,5,2,1,0,400,250.0,train,5,E+
935.700893402,1,600,5,1,3,4,5,2,1,0,400,250.0,train,1,E+
551.692008972,2,600,2,1,3,4,5,2,1,0,400,250.0,train,2,E+
199.589014053,3,600,1,1,3,4,5,2,1,0,400,250.0,train,3,E+
168.595075607,1,600,5,1,3,4,5,2,1,0,400,250.0,train,1,E+
231.561899185,5,600,3,1,3,4,5,2,1,0,400,250.0,train,5,E+
391.621828079,3,600,1,1,3,4,5,2,1,0,400,250.0,train,3,E+
169.427156448,3,600,1,1,3,4,5,2,1,0,400,250.0,train,3,E+
265.259027481,1,600,5,1,3,4,5,2,1,0,400,250.0,train,1,E+
984.583854675,5,600,3,1,3,4,5,2,1,0,400,250.0,train,5,E+
697.339057922,0,600,4,1,3,4,5,2,1,0,400,250.0,train,0,E+
441.182851791,1,600,5,1,3,4,5,2,1,0,400,250.0,train,1,E+
327.662944794,1,600,5,1,3,4,5,2,1,0,400,250.0,train,1,E+
199.513196945,1,600,5,1,3,4,5,2,1,0,400,250.0,train,1,E+
183.670043945,0,600,4,1,3,4,5,2,1,0,400,250.0,train,0,E+
535.718917847,1,600,5,1,3,4,5,2,1,0,400,250.0,train,1,E+
359.886169434,2,600,2,1,3,4,5,2,1,0,400,250.0,train,2,E+
247.890949249,5,600,3,1,3,4,5,2,1,0,400,250.0,train,5,E+
311.810970306,5,600,3,1,3,4,5,2,1,0,400,250.0,train,5,E+
471.878051758,5,600,3,1,3,4,5,2,1,0,400,250.0,train,5,E+
247.763872147,2,600,2,1,3,4,5,2,1,0,400,250.0,train,2,E+
200.5879879,2,600,2,1,3,4,5,2,1,0,400,250.0,train,2,E+
167.916059494,2,600,2,1,3,4,5,2,1,0,400,250.0,train,2,E+
72.6010799408,3,600,1,1,3,4,5,2,1,0,400,250.0,train,3,E+
55.9191703796,5,600,3,1,3,4,5,2,1,0,400,250.0,train,5,E+
168.012857437,5,600,3,1,3,4,5,2,1,0,400,250.0,train,5,E+
167.955160141,3,600,1,1,3,4,5,2,1,0,400,250.0,train,3,E+
55.8738708496,0,600,4,1,3,4,5,2,1,0,400,250.0,train,0,E+
73.2798576355,0,600,4,1,3,4,5,2,1,0,400,250.0,train,0,E+
215.842008591,3,600,1,1,3,4,5,2,1,0,400,250.0,train,3,E+
25.318145752,5,600,3,1,3,4,5,2,1,0,400,250.0,train,5,E+
743.777990341,0,600,4,1,3,4,5,2,1,0,400,250.0,train,0,E+
71.7208385468,5,600,3,1,3,4,5,2,1,0,400,250.0,train,5,E+
25.2299308777,5,600,3,1,3,4,5,2,1,0,400,250.0,train,5,E+
121.169805527,1,600,5,1,3,4,5,2,1,0,400,250.0,train,1,E+
167.783021927,4,600,0,1,3,4,5,2,1,0,400,250.0,train,4,E+
89.026927948,5,600,3,1,3,4,5,2,1,0,400,250.0,train,5,E+
135.840892792,4,600,0,1,3,4,5,2,1,0,400,250.0,train,4,E+
167.650938034,1,600,5,1,3,4,5,2,1,0,400,250.0,train,1,E+
87.7859592438,2,600,2,1,3,4,5,2,1,0,400,250.0,train,2,E+
7.74598121643,5,600,3,1,3,4,5,2,1,0,400,250.0,train,5,E+
792.737960815,0,600,4,1,3,4,5,2,1,0,400,250.0,train,0,E+
279.72817421,3,600,1,1,3,4,5,2,1,0,400,250.0,train,3,E+
71.6969966888,2,600,2,1,3,4,5,2,1,0,400,250.0,train,2,E+
151.59702301,4,600,0,1,3,4,5,2,1,0,400,250.0,train,4,E+
71.7780590057,3,600,1,0,3,4,5,2,1,0,400,250.0,train,2,E+
152.449846268,2,600,2,1,3,4,5,2,1,0,400,250.0,train,2,E+
7.69901275635,5,600,3,1,3,4,5,2,1,0,400,250.0,train,5,E+
135.719776154,2,600,2,1,3,4,5,2,1,0,400,250.0,train,2,E+
215.751886368,5,600,3,1,3,4,5,2,1,0,400,250.0,train,5,E+
56.3340187073,0,600,4,1,3,4,5,2,1,0,400,250.0,train,0,E+
167.734146118,4,600,0,1,3,4,5,2,1,0,400,250.0,train,4,E+
7.86304473877,0,600,4,1,3,4,5,2,1,0,400,250.0,train,0,E+
23.7939357758,4,600,0,0,3,4,5,2,1,0,400,250.0,train,5,E+
55.7651519775,5,600,3,1,3,4,5,2,1,0,400,250.0,train,5,E+
183.949947357,1,600,5,1,3,4,5,2,1,0,400,250.0,train,1,E+
183.853149414,4,600,0,1,3,4,5,2,1,0,400,250.0,train,4,E+
183.95113945,3,600,1,1,3,4,5,2,1,0,400,250.0,train,3,E+
87.8269672394,4,600,0,1,3,4,5,2,1,0,400,250.0,train,4,E+
168.651819229,1,600,5,1,3,4,5,2,1,0,400,250.0,train,1,E+
167.946100235,4,600,0,1,3,4,5,2,1,0,400,250.0,train,4,E+
103.805065155,4,600,0,1,3,4,5,2,1,0,400,250.0,train,4,E+
55.9360980988,4,600,0,1,3,4,5,2,1,0,400,250.0,train,4,E+
1207.98182487,4,600,0,1,3,4,5,2,1,0,400,250.0,train,4,E+
89.262008667,5,600,3,1,3,4,5,2,1,0,400,250.0,train,5,E+
89.1809463501,4,600,0,1,3,4,5,2,1,0,400,250.0,train,4,E+
39.2308235168,5,600,3,1,3,4,5,2,1,0,400,250.0,train,5,E+
135.770082474,3,600,1,0,3,4,5,2,1,0,400,250.0,train,2,E+
71.7661380768,5,600,3,1,3,4,5,2,1,0,400,250.0,train,5,E+
119.724988937,2,600,2,1,3,4,5,2,1,0,400,250.0,train,2,E+
119.688034058,5,600,3,1,3,4,5,2,1,0,400,250.0,train,5,E+
119.499921799,2,600,2,1,3,4,5,2,1,0,400,250.0,train,2,E+
25.2051353455,0,600,4,1,3,4,5,2,1,0,400,250.0,train,0,E+
135.616064072,4,600,0,1,3,4,5,2,1,0,400,250.0,train,4,E+
87.7599716187,5,600,3,1,3,4,5,2,1,0,400,250.0,train,5,E+
55.6378364563,0,600,4,1,3,4,5,2,1,0,400,250.0,train,0,E+
104.761123657,1,600,5,1,3,4,5,2,1,0,400,250.0,train,1,E+
279.606103897,3,600,1,1,3,4,5,2,1,0,400,250.0,train,3,E+
199.705123901,2,600,2,1,3,4,5,2,1,0,400,250.0,train,2,E+
151.729822159,4,600,0,1,3,4,5,2,1,0,400,250.0,train,4,E+
55.7219982147,4,600,0,1,3,4,5,2,1,0,400,250.0,train,4,E+
105.14497757,5,600,3,1,3,4,5,2,1,0,400,250.0,train,5,E+
105.177879333,5,600,3,1,3,4,5,2,1,0,400,250.0,train,5,E+
167.747020721,5,600,3,1,3,4,5,2,1,0,400,250.0,train,5,E+
136.999130249,5,600,3,1,3,4,5,2,1,0,400,250.0,train,5,E+
137.07780838,5,600,3,1,3,4,5,2,1,0,400,250.0,train,5,E+
279.803991318,2,600,2,1,3,4,5,2,1,0,400,250.0,train,2,E+
135.870933533,1,600,5,1,3,4,5,2,1,0,400,250.0,train,1,E+
215.859174728,4,600,0,1,3,4,5,2,1,0,400,250.0,train,4,E+
167.814016342,1,600,5,1,3,4,5,2,1,0,400,250.0,train,1,E+
55.8769702911,0,600,4,1,3,4,5,2,1,0,400,250.0,train,0,E+
24.5671272278,0,600,4,1,3,4,5,2,1,0,400,250.0,train,0,E+
119.85206604,2,600,2,1,3,4,5,2,1,0,400,250.0,train,2,E+
7.85708427429,2,600,2,1,3,4,5,2,1,0,400,250.0,train,2,E+
103.928089142,3,600,1,1,3,4,5,2,1,0,400,250.0,train,3,E+
87.9561901093,3,600,1,1,3,4,5,2,1,0,400,250.0,train,3,E+
391.511917114,4,600,0,1,3,4,5,2,1,0,400,250.0,train,4,E+
87.8450870514,5,600,3,1,3,4,5,2,1,0,400,250.0,train,5,E+
409.096956253,5,600,3,1,3,4,5,2,1,0,400,250.0,train,5,E+
55.9799671173,0,600,4,1,3,4,5,2,1,0,400,250.0,train,0,E+
55.9000968933,5,600,3,1,3,4,5,2,1,0,400,250.0,train,5,E+
71.73204422,1,600,5,1,3,4,5,2,1,0,400,250.0,train,1,E+
39.8139953613,5,600,3,1,3,4,5,2,1,0,400,250.0,train,5,E+
857.307910919,0,600,4,1,3,4,5,2,1,0,400,250.0,train,0,E+
71.6600418091,0,600,4,1,3,4,5,2,1,0,400,250.0,train,0,E+
23.8289833069,0,600,4,1,3,4,5,2,1,0,400,250.0,train,0,E+
57.156085968,0,600,4,1,3,4,5,2,1,0,400,250.0,train,0,E+
505.125999451,0,600,4,1,3,4,5,2,1,0,400,250.0,train,0,E+
135.754108429,2,600,2,1,3,4,5,2,1,0,400,250.0,train,2,E+
7.67588615417,0,600,4,1,3,4,5,2,1,0,400,250.0,train,0,E+
679.630994797,1,600,5,1,3,4,5,2,1,0,400,250.0,train,1,E+
519.619941711,1,600,5,1,3,4,5,2,1,0,400,250.0,train,1,E+
57.4209690094,0,600,4,1,3,4,5,2,1,0,400,250.0,train,0,E+
39.5619869232,2,600,2,1,3,4,5,2,1,0,400,250.0,train,2,E+
185.353040695,5,600,3,1,3,4,5,2,1,0,400,250.0,train,5,E+
233.232975006,0,600,4,1,3,4,5,2,1,0,400,250.0,train,0,E+
233.173131943,3,600,1,1,3,4,5,2,1,0,400,250.0,train,3,E+
7.70902633667,5,600,3,1,3,4,5,2,1,0,400,250.0,train,5,E+
7.78698921204,0,600,4,1,3,4,5,2,1,0,400,250.0,train,0,E+
57.1630001068,4,600,0,1,3,4,5,2,1,0,400,250.0,train,4,E+
504.463911057,3,600,1,1,3,4,5,2,1,0,400,250.0,train,3,E+
7.77292251587,0,600,4,1,3,4,5,2,1,0,400,250.0,train,0,E+
40.4229164124,3,600,1,1,3,4,5,2,1,0,400,250.0,train,3,E+
215.806007385,2,600,2,1,3,4,5,2,1,0,400,250.0,train,2,E+
55.7589530945,4,600,0,0,3,4,5,2,1,0,400,250.0,train,5,E+
232.460021973,1,600,5,1,3,4,5,2,1,0,400,250.0,train,1,E+
87.6779556274,0,600,4,1,3,4,5,2,1,0,400,250.0,train,0,E+
136.551141739,5,600,3,1,3,4,5,2,1,0,400,250.0,train,5,E+
71.8650817871,5,600,3,1,3,4,5,2,1,0,400,250.0,train,5,E+
39.8409366608,0,600,4,1,3,4,5,2,1,0,400,250.0,train,0,E+
103.871822357,5,600,3,1,3,4,5,2,1,0,400,250.0,train,5,E+
55.9720993042,4,600,0,1,3,4,5,2,1,0,400,250.0,train,4,E+
118.533849716,4,600,0,1,3,4,5,2,1,0,400,250.0,train,4,E+
166.464090347,1,600,5,1,3,4,5,2,1,0,400,250.0,train,1,E+
183.959007263,2,600,2,1,3,4,5,2,1,0,400,250.0,train,2,E+
617.146015167,3,600,1,1,3,4,5,2,1,0,400,250.0,train,3,E+
56.5669536591,5,600,3,1,3,4,5,2,1,0,400,250.0,train,5,E+
281.310796738,3,600,1,1,3,4,5,2,1,0,400,250.0,train,3,E+
55.8578968048,2,600,2,1,3,4,5,2,1,0,400,250.0,train,2,E+
137.228012085,5,600,3,1,3,4,5,2,1,0,400,250.0,train,5,E+
41.2449836731,5,600,3,1,3,4,5,2,1,0,400,250.0,train,5,E+
87.7201557159,0,600,4,1,3,4,5,2,1,0,400,250.0,train,0,E+
473.151922226,4,600,0,1,3,4,5,2,1,0,400,250.0,train,4,E+
263.70382309,4,600,0,1,3,4,5,2,1,0,400,250.0,train,4,E+
55.7029247284,3,600,1,1,3,4,5,2,1,0,400,250.0,train,3,E+
39.6919250488,0,600,4,1,3,4,5,2,1,0,400,250.0,train,0,E+
120.627880096,5,600,3,1,3,4,5,2,1,0,400,250.0,train,5,E+
55.6800365448,0,600,4,1,3,4,5,2,1,0,400,250.0,train,0,E+
88.5829925537,2,600,2,1,3,4,5,2,1,0,400,250.0,train,2,E+
87.6779556274,1,600,5,1,3,4,5,2,1,0,400,250.0,train,1,E+
89.3869400024,3,600,1,1,3,4,5,2,1,0,400,250.0,train,3,E+
71.6178417206,0,600,4,1,3,4,5,2,1,0,400,250.0,train,0,E+
87.6550674438,5,600,3,1,3,4,5,2,1,0,400,250.0,train,5,E+
7.69710540771,4,600,0,1,3,4,5,2,1,0,400,250.0,train,4,E+
425.786018372,3,600,1,1,3,4,5,2,1,0,400,250.0,train,3,E+
9.17792320251,4,600,0,1,3,4,5,2,1,0,400,250.0,train,4,E+
135.765075684,0,600,4,1,3,4,5,2,1,0,400,250.0,train,0,E+
41.2580966949,0,600,4,1,3,4,5,2,1,0,400,250.0,train,0,E+
23.717880249,0,600,4,1,3,4,5,2,1,0,400,250.0,train,0,E+
201.126098633,4,600,0,0,3,4,5,2,1,0,400,250.0,train,3,E+
135.818004608,1,600,5,1,3,4,5,2,1,0,400,250.0,train,1,E+
87.9039764404,4,600,0,1,3,4,5,2,1,0,400,250.0,train,4,E+
7.8718662262,1,600,5,1,3,4,5,2,1,0,400,250.0,train,1,E+
103.772878647,3,600,1,0,3,4,5,2,1,0,400,250.0,train,4,E+
55.8831691742,5,600,3,1,3,4,5,2,1,0,400,250.0,train,5,E+
56.1609268188,0,600,4,1,3,4,5,2,1,0,400,250.0,train,0,E+
199.909925461,3,600,1,1,3,4,5,2,1,0,400,250.0,train,3,E+
55.8741092682,5,600,3,1,3,4,5,2,1,0,400,250.0,train,5,E+
103.856086731,0,600,4,1,3,4,5,2,1,0,400,250.0,train,0,E+
215.937137604,4,600,0,1,3,4,5,2,1,0,400,250.0,train,4,E+
103.939056396,5,600,3,1,3,4,5,2,1,0,400,250.0,train,5,E+
71.9938278198,3,600,1,1,3,4,5,2,1,0,400,250.0,train,3,E+
71.9449520111,2,600,2,1,3,4,5,2,1,0,400,250.0,train,2,E+
329.232931137,3,600,1,1,3,4,5,2,1,0,400,250.0,train,3,E+
120.61214447,3,600,1,1,3,4,5,2,1,0,400,250.0,train,3,E+
120.267152786,1,600,5,1,3,4,5,2,1,0,400,250.0,train,1,E+
87.7199172974,2,600,2,1,3,4,5,2,1,0,400,250.0,train,2,E+
105.239868164,5,600,3,1,3,4,5,2,1,0,400,250.0,train,5,E+
40.5189990997,0,600,4,1,3,4,5,2,1,0,400,250.0,train,0,E+
89.1819000244,5,600,3,1,3,4,5,2,1,0,400,250.0,train,5,E+
71.7561244965,2,600,2,0,3,4,5,2,1,0,400,250.0,train,3,E+
249.166965485,3,600,1,1,3,4,5,2,1,0,400,250.0,train,3,E+
151.609897614,1,600,5,1,3,4,5,2,1,0,400,250.0,train,1,E+
71.6950893402,2,600,2,1,3,4,5,2,1,0,400,250.0,train,2,E+
87.690114975,0,600,4,1,3,4,5,2,1,0,400,250.0,train,0,E+
55.5617809296,5,600,3,1,3,4,5,2,1,0,400,250.0,train,5,E+
71.7101097107,0,600,4,1,3,4,5,2,1,0,400,250.0,train,0,E+
39.8848056793,1,600,5,1,3,4,5,2,1,0,400,250.0,train,1,E+
215.641021729,3,600,1,1,3,4,5,2,1,0,400,250.0,train,3,E+
105.252027512,5,600,3,1,3,4,5,2,1,0,400,250.0,train,5,E+
23.8869190216,0,600,4,1,3,4,5,2,1,0,400,250.0,train,0,E+
313.946008682,4,600,0,1,3,4,5,2,1,0,400,250.0,train,4,E+
119.724988937,4,600,0,1,3,4,5,2,1,0,400,250.0,train,4,E+
391.739845276,3,600,1,1,3,4,5,2,1,0,400,250.0,train,3,E+
183.691978455,4,600,0,1,3,4,5,2,1,0,400,250.0,train,4,E+
25.1288414001,5,600,3,1,3,4,5,2,1,0,400,250.0,train,5,E+
103.801965714,5,600,3,1,3,4,5,2,1,0,400,250.0,train,5,E+
135.844945908,1,600,5,1,3,4,5,2,1,0,400,250.0,train,1,E+
137.209892273,3,600,1,1,3,4,5,2,1,0,400,250.0,train,3,E+
168.589115143,2,600,2,1,3,4,5,2,1,0,400,250.0,train,2,E+
103.855848312,5,600,3,1,3,4,5,2,1,0,400,250.0,train,5,E+
135.839939117,1,600,5,1,3,4,5,2,1,0,400,250.0,train,1,E+
135.807991028,1,600,5,1,3,4,5,2,1,0,400,250.0,train,1,E+
167.814970016,3,600,1,1,3,4,5,2,1,0,400,250.0,train,3,E+
135.754823685,4,600,0,1,3,4,5,2,1,0,400,250.0,train,4,E+
199.912071228,3,600,1,1,3,4,5,2,1,0,400,250.0,train,3,E+
151.859998703,5,600,3,1,3,4,5,2,1,0,400,250.0,train,5,E+
103.890180588,0,600,4,1,3,4,5,2,1,0,400,250.0,train,0,E+
119.949102402,2,600,2,1,3,4,5,2,1,0,400,250.0,train,2,E+
23.964881897,3,600,1,1,3,4,5,2,1,0,400,250.0,train,3,E+
199.967861176,4,600,0,1,3,4,5,2,1,0,400,250.0,train,4,E+
375.845909119,2,600,2,1,3,4,5,2,1,0,400,250.0,train,2,E+
135.967969894,2,600,2,1,3,4,5,2,1,0,400,250.0,train,2,E+
249.211072922,4,600,0,1,3,4,5,2,1,0,400,250.0,train,4,E+
56.6210746765,5,600,3,1,3,4,5,2,1,0,400,250.0,train,5,E+
233.217954636,4,600,0,0,3,4,5,2,1,0,400,250.0,train,3,E+
135.754108429,5,600,3,1,3,4,5,2,1,0,400,250.0,train,5,E+
121.23298645,4,600,0,1,3,4,5,2,1,0,400,250.0,train,4,E+
199.787855148,1,600,5,1,3,4,5,2,1,0,400,250.0,train,1,E+
57.1219921112,0,600,4,1,3,4,5,2,1,0,400,250.0,train,0,E+
423.720836639,3,600,1,1,3,4,5,2,1,0,400,250.0,train,3,E+
105.193853378,5,600,3,1,3,4,5,2,1,0,400,250.0,train,5,E+
215.343952179,2,600,2,1,3,4,5,2,1,0,400,250.0,train,2,E+
72.5600719452,3,600,1,1,3,4,5,2,1,0,400,250.0,train,3,E+
73.3931064606,0,600,4,1,3,4,5,2,1,0,400,250.0,train,0,E+
152.568101883,2,600,2,1,3,4,5,2,1,0,400,250.0,train,2,E+
55.5639266968,0,600,4,1,3,4,5,2,1,0,400,250.0,train,0,E+
248.398065567,4,600,0,1,3,4,5,2,1,0,400,250.0,train,4,E+
183.635950089,1,600,5,1,3,4,5,2,1,0,400,250.0,train,1,E+
328.569173813,3,600,1,1,3,4,5,2,1,0,400,250.0,train,3,E+
105.206012726,0,600,4,1,3,4,5,2,1,0,400,250.0,train,0,E+
152.578115463,0,600,4,1,3,4,5,2,1,0,400,250.0,train,0,E+
87.6441001892,5,600,3,1,3,4,5,2,1,0,400,250.0,train,5,E+
87.6898765564,0,600,4,1,3,4,5,2,1,0,400,250.0,train,0,E+
55.7889938354,0,600,4,1,3,4,5,2,1,0,400,250.0,train,0,E+
87.8190994263,0,600,4,1,3,4,5,2,1,0,400,250.0,train,0,E+
167.728185654,4,600,0,1,3,4,5,2,1,0,400,250.0,train,4,E+
135.864973068,5,600,3,1,3,4,5,2,1,0,400,250.0,train,5,E+
231.850147247,3,600,1,1,3,4,5,2,1,0,400,250.0,train,3,E+
87.7590179443,1,600,5,1,3,4,5,2,1,0,400,250.0,train,1,E+
55.7780265808,0,600,4,1,3,4,5,2,1,0,400,250.0,train,0,E+
103.754997253,1,600,5,1,3,4,5,2,1,0,400,250.0,train,1,E+
135.758876801,2,600,2,1,3,4,5,2,1,0,400,250.0,train,2,E+
167.828083038,2,600,2,1,3,4,5,2,1,0,400,250.0,train,2,E+
103.825092316,2,600,2,1,3,4,5,2,1,0,400,250.0,train,2,E+
87.9058837891,3,600,1,1,3,4,5,2,1,0,400,250.0,train,3,E+
617.189884186,0,1000,4,1,3,4,5,2,1,0,0,250.0,test,0,E+
487.984895706,0,1000,4,1,3,4,5,2,1,0,0,250.0,test,0,E+
486.209154129,0,1000,4,1,3,4,5,2,1,0,0,250.0,test,0,E+
728.725910187,4,1000,0,1,3,4,5,2,1,0,0,250.0,test,4,E+
407.904863358,4,1000,0,1,3,4,5,2,1,0,0,250.0,test,4,E+
583.500146866,2,1000,2,1,3,4,5,2,1,0,0,250.0,test,2,E+
550.208806992,4,1000,0,1,3,4,5,2,1,0,0,250.0,test,4,E+
455.562829971,0,1000,4,1,3,4,5,2,1,0,0,250.0,test,0,E+
489.105939865,1,1000,5,1,3,4,5,2,1,0,0,250.0,test,1,E+
455.003976822,0,1000,4,1,3,4,5,2,1,0,0,250.0,test,0,E+
473.021030426,4,1000,0,1,3,4,5,2,1,0,0,250.0,test,4,E+
502.169847488,3,1000,1,0,3,4,5,2,1,0,0,250.0,test,2,E+
406.108856201,5,1000,3,1,3,4,5,2,1,0,0,250.0,test,5,E+
550.019979477,3,1000,1,1,3,4,5,2,1,0,0,250.0,test,3,E+
677.937030792,4,1000,0,1,3,4,5,2,1,0,0,250.0,test,4,E+
422.32298851,0,1000,4,1,3,4,5,2,1,0,0,250.0,test,0,E+
758.446931839,4,1000,0,1,3,4,5,2,1,0,0,250.0,test,4,E+
614.125967026,4,1000,0,1,3,4,5,2,1,0,0,250.0,test,4,E+
583.758831024,4,1000,0,1,3,4,5,2,1,0,0,250.0,test,4,E+
519.85001564,4,1000,0,1,3,4,5,2,1,0,0,250.0,test,4,E+
407.154083252,0,1000,4,1,3,4,5,2,1,0,0,250.0,test,0,E+
551.895856857,5,1000,3,1,3,4,5,2,1,0,0,250.0,test,5,E+
502.104997635,0,1000,4,1,3,4,5,2,1,0,0,250.0,test,0,E+
535.827875137,2,1000,2,1,3,4,5,2,1,0,0,250.0,test,2,E+
486.068964005,2,1000,2,1,3,4,5,2,1,0,0,250.0,test,2,E+
455.795049667,2,1000,2,1,3,4,5,2,1,0,0,250.0,test,2,E+
486.078023911,0,1000,4,1,3,4,5,2,1,0,0,250.0,test,0,E+
631.806135178,3,1000,1,1,3,4,5,2,1,0,0,250.0,test,3,E+
598.059177399,2,1000,2,1,3,4,5,2,1,0,0,250.0,test,2,E+
567.804098129,2,1000,2,1,3,4,5,2,1,0,0,250.0,test,2,E+
549.113035202,5,1000,3,1,3,4,5,2,1,0,0,250.0,test,5,E+
646.009922028,5,1000,3,0,3,4,5,2,1,0,0,250.0,test,3,E+
631.886005402,2,1000,2,1,3,4,5,2,1,0,0,250.0,test,2,E+
550.090074539,2,1000,2,1,3,4,5,2,1,0,0,250.0,test,2,E+
438.142776489,0,1000,4,1,3,4,5,2,1,0,0,250.0,test,0,E+
487.60008812,1,1000,5,1,3,4,5,2,1,0,0,250.0,test,1,E+
502.123832703,2,1000,2,1,3,4,5,2,1,0,0,250.0,test,2,E+
470.848798752,3,1000,1,1,3,4,5,2,1,0,0,250.0,test,3,E+
454.102039337,1,1000,5,1,3,4,5,2,1,0,0,250.0,test,1,E+
407.452821732,1,1000,5,1,3,4,5,2,1,0,0,250.0,test,1,E+
409.22999382,1,1000,5,1,3,4,5,2,1,0,0,250.0,test,1,E+
422.226905823,0,1000,4,1,3,4,5,2,1,0,0,250.0,test,0,E+
550.153970718,0,1000,4,1,3,4,5,2,1,0,0,250.0,test,0,E+
438.118934631,1,1000,5,1,3,4,5,2,1,0,0,250.0,test,1,E+
486.212968826,0,1000,4,1,3,4,5,2,1,0,0,250.0,test,0,E+
518.814086914,3,1000,1,1,3,4,5,2,1,0,0,250.0,test,3,E+
438.207864761,4,1000,0,1,3,4,5,2,1,0,0,250.0,test,4,E+
502.905845642,3,1000,1,1,3,4,5,2,1,0,0,250.0,test,3,E+
454.065084457,0,1000,4,1,3,4,5,2,1,0,0,250.0,test,0,E+
535.578966141,5,1000,3,1,3,4,5,2,1,0,0,250.0,test,5,E+
486.860990524,0,1000,4,1,3,4,5,2,1,0,0,250.0,test,0,E+
487.603187561,5,1000,3,1,3,4,5,2,1,0,0,250.0,test,5,E+
422.878980637,0,1000,4,1,3,4,5,2,1,0,0,250.0,test,0,E+
423.544883728,4,1000,0,0,3,4,5,2,1,0,0,250.0,test,5,E+
551.79810524,3,1000,1,1,3,4,5,2,1,0,0,250.0,test,3,E+
455.593824387,1,1000,5,1,3,4,5,2,1,0,0,250.0,test,1,E+
406.935930252,1,1000,5,1,3,4,5,2,1,0,0,250.0,test,1,E+
535.830974579,3,1000,1,1,3,4,5,2,1,0,0,250.0,test,3,E+
503.974914551,5,1000,3,1,3,4,5,2,1,0,0,250.0,test,5,E+
455.531835556,5,1000,3,1,3,4,5,2,1,0,0,250.0,test,5,E+
487.793922424,1,1000,5,1,3,4,5,2,1,0,0,250.0,test,1,E+
486.209154129,5,1000,3,1,3,4,5,2,1,0,0,250.0,test,5,E+
455.873966217,5,1000,3,1,3,4,5,2,1,0,0,250.0,test,5,E+
567.759990692,3,1000,1,1,3,4,5,2,1,0,0,250.0,test,3,E+
457.260847092,0,1000,4,1,3,4,5,2,1,0,0,250.0,test,0,E+
439.949989319,0,1000,4,1,3,4,5,2,1,0,0,250.0,test,0,E+
726.25207901,3,1000,1,1,3,4,5,2,1,0,0,250.0,test,3,E+
471.858978271,1,1000,5,1,3,4,5,2,1,0,0,250.0,test,1,E+
710.154056549,3,1000,1,1,3,4,5,2,1,0,0,250.0,test,3,E+
422.165870667,0,1000,4,1,3,4,5,2,1,0,0,250.0,test,0,E+
407.531023026,0,1000,4,1,3,4,5,2,1,0,0,250.0,test,0,E+
582.134962082,4,1000,0,1,3,4,5,2,1,0,0,250.0,test,4,E+
425.306081772,0,1000,4,1,3,4,5,2,1,0,0,250.0,test,0,E+
550.024986267,3,1000,1,1,3,4,5,2,1,0,0,250.0,test,3,E+
649.18589592,2,1000,2,1,3,4,5,2,1,0,0,250.0,test,2,E+
679.079055786,4,1000,0,1,3,4,5,2,1,0,0,250.0,test,4,E+
422.032117844,4,1000,0,1,3,4,5,2,1,0,0,250.0,test,4,E+
518.147945404,1,1000,5,1,3,4,5,2,1,0,0,250.0,test,1,E+
550.033092499,4,1000,0,1,3,4,5,2,1,0,0,250.0,test,4,E+
518.149852753,0,1000,4,1,3,4,5,2,1,0,0,250.0,test,0,E+
550.080060959,0,1000,4,1,3,4,5,2,1,0,0,250.0,test,0,E+
567.685842514,4,1000,0,1,3,4,5,2,1,0,0,250.0,test,4,E+
791.574001312,3,1000,1,1,3,4,5,2,1,0,0,250.0,test,3,E+
535.658121109,5,1000,3,1,3,4,5,2,1,0,0,250.0,test,5,E+
662.210941315,3,1000,1,1,3,4,5,2,1,0,0,250.0,test,3,E+
407.660961151,3,1000,1,1,3,4,5,2,1,0,0,250.0,test,3,E+
391.869783401,4,1000,0,1,3,4,5,2,1,0,0,250.0,test,4,E+
407.944202423,3,1000,1,1,3,4,5,2,1,0,0,250.0,test,3,E+
487.190008163,4,1000,0,1,3,4,5,2,1,0,0,250.0,test,4,E+
391.834974289,5,1000,3,1,3,4,5,2,1,0,0,250.0,test,5,E+
518.94402504,1,1000,5,1,3,4,5,2,1,0,0,250.0,test,1,E+
566.207885742,4,1000,0,1,3,4,5,2,1,0,0,250.0,test,4,E+
519.83499527,1,1000,5,1,3,4,5,2,1,0,0,250.0,test,1,E+
536.040782928,3,1000,1,1,3,4,5,2,1,0,0,250.0,test,3,E+
518.10503006,2,1000,2,1,3,4,5,2,1,0,0,250.0,test,2,E+
520.745992661,2,1000,2,1,3,4,5,2,1,0,0,250.0,test,2,E+
440.848827362,2,1000,2,1,3,4,5,2,1,0,0,250.0,test,2,E+
487.915039062,3,1000,1,1,3,4,5,2,1,0,0,250.0,test,3,E+
423.91705513,3,1000,1,1,3,4,5,2,1,0,0,250.0,test,3,E+
583.965063095,0,1000,4,1,3,4,5,2,1,0,0,250.0,test,0,E+
614.182949066,3,1000,1,1,3,4,5,2,1,0,0,250.0,test,3,E+
679.023981094,2,1000,2,0,3,4,5,2,1,0,0,250.0,test,3,E+
457.325935364,0,1000,4,1,3,4,5,2,1,0,0,250.0,test,0,E+
454.030036926,0,1000,4,1,3,4,5,2,1,0,0,250.0,test,0,E+
505.428791046,5,1000,3,1,3,4,5,2,1,0,0,250.0,test,5,E+
504.600048065,2,1000,2,1,3,4,5,2,1,0,0,250.0,test,2,E+
585.411071777,3,1000,1,1,3,4,5,2,1,0,0,250.0,test,3,E+
519.076824188,1,1000,5,1,3,4,5,2,1,0,0,250.0,test,1,E+
665.08603096,1,1000,5,1,3,4,5,2,1,0,0,250.0,test,1,E+
807.110071182,4,1000,0,1,3,4,5,2,1,0,0,250.0,test,4,E+
438.149929047,0,1000,4,1,3,4,5,2,1,0,0,250.0,test,0,E+
422.125101089,1,1000,5,1,3,4,5,2,1,0,0,250.0,test,1,E+
534.152984619,3,1000,1,1,3,4,5,2,1,0,0,250.0,test,3,E+
534.122943878,1,1000,5,0,3,4,5,2,1,0,0,250.0,test,2,E+
614.140987396,5,1000,3,1,3,4,5,2,1,0,0,250.0,test,5,E+
406.092882156,5,1000,3,1,3,4,5,2,1,0,0,250.0,test,5,E+
502.212047577,1,1000,5,1,3,4,5,2,1,0,0,250.0,test,1,E+
695.713996887,2,1000,2,1,3,4,5,2,1,0,0,250.0,test,2,E+
503.517866135,5,1000,3,1,3,4,5,2,1,0,0,250.0,test,5,E+
422.938108444,2,1000,2,1,3,4,5,2,1,0,0,250.0,test,2,E+
503.643035889,1,1000,5,1,3,4,5,2,1,0,0,250.0,test,1,E+
456.586122513,2,1000,2,0,3,4,5,2,1,0,0,250.0,test,3,E+
533.966064453,1,1000,5,1,3,4,5,2,1,0,0,250.0,test,1,E+
535.83407402,3,1000,1,1,3,4,5,2,1,0,0,250.0,test,3,E+
614.230871201,4,1000,0,1,3,4,5,2,1,0,0,250.0,test,4,E+
599.843025208,5,1000,3,1,3,4,5,2,1,0,0,250.0,test,5,E+
533.864021301,5,1000,3,1,3,4,5,2,1,0,0,250.0,test,5,E+
439.83912468,5,1000,3,1,3,4,5,2,1,0,0,250.0,test,5,E+
549.993991852,2,1000,2,1,3,4,5,2,1,0,0,250.0,test,2,E+
488.117933273,0,1000,4,1,3,4,5,2,1,0,0,250.0,test,0,E+
422.017097473,5,1000,3,1,3,4,5,2,1,0,0,250.0,test,5,E+
535.817146301,2,1000,2,0,3,4,5,2,1,0,0,250.0,test,1,E+
438.216924667,1,1000,5,1,3,4,5,2,1,0,0,250.0,test,1,E+
552.525997162,5,1000,3,1,3,4,5,2,1,0,0,250.0,test,5,E+
456.722974777,2,1000,2,1,3,4,5,2,1,0,0,250.0,test,2,E+
486.079931259,3,1000,1,1,3,4,5,2,1,0,0,250.0,test,3,E+
393.293142319,4,1000,0,1,3,4,5,2,1,0,0,250.0,test,4,E+
534.044981003,1,1000,5,1,3,4,5,2,1,0,0,250.0,test,1,E+
566.19310379,4,1000,0,0,3,4,5,2,1,0,0,250.0,test,3,E+
934.209823608,3,1000,1,1,3,4,5,2,1,0,0,250.0,test,3,E+
487.082004547,5,1000,3,1,3,4,5,2,1,0,0,250.0,test,5,E+
455.572843552,0,1000,4,1,3,4,5,2,1,0,0,250.0,test,0,E+
457.257986069,0,1000,4,1,3,4,5,2,1,0,0,250.0,test,0,E+
439.820051193,0,1000,4,1,3,4,5,2,1,0,0,250.0,test,0,E+
406.978130341,1,1000,5,1,3,4,5,2,1,0,0,250.0,test,1,E+
567.867040634,1,1000,5,1,3,4,5,2,1,0,0,250.0,test,1,E+
438.25006485,2,1000,2,1,3,4,5,2,1,0,0,250.0,test,2,E+
487.594127655,5,1000,3,1,3,4,5,2,1,0,0,250.0,test,5,E+
583.832025528,1,1000,5,1,3,4,5,2,1,0,0,250.0,test,1,E+
647.924184799,3,1000,1,1,3,4,5,2,1,0,0,250.0,test,3,E+
391.919136047,3,1000,1,1,3,4,5,2,1,0,0,250.0,test,3,E+
487.871170044,4,1000,0,1,3,4,5,2,1,0,0,250.0,test,4,E+
439.788103104,0,1000,4,1,3,4,5,2,1,0,0,250.0,test,0,E+
487.909078598,5,1000,3,1,3,4,5,2,1,0,0,250.0,test,5,E+
584.008932114,5,1000,3,1,3,4,5,2,1,0,0,250.0,test,5,E+
567.587137222,5,1000,3,1,3,4,5,2,1,0,0,250.0,test,5,E+
391.937971115,5,1000,3,1,3,4,5,2,1,0,0,250.0,test,5,E+
503.867149353,4,1000,0,1,3,4,5,2,1,0,0,250.0,test,4,E+
566.140890121,1,1000,5,1,3,4,5,2,1,0,0,250.0,test,1,E+
551.764011383,2,1000,2,1,3,4,5,2,1,0,0,250.0,test,2,E+
484.827041626,3,1000,1,1,3,4,5,2,1,0,0,250.0,test,3,E+
439.255952835,4,1000,0,1,3,4,5,2,1,0,0,250.0,test,4,E+
473.186016083,1,1000,5,1,3,4,5,2,1,0,0,250.0,test,1,E+
440.083026886,1,1000,5,1,3,4,5,2,1,0,0,250.0,test,1,E+
454.154014587,0,1000,4,1,3,4,5,2,1,0,0,250.0,test,0,E+
537.379980087,3,1000,1,1,3,4,5,2,1,0,0,250.0,test,3,E+
518.126010895,5,1000,3,1,3,4,5,2,1,0,0,250.0,test,5,E+
422.895908356,0,1000,4,1,3,4,5,2,1,0,0,250.0,test,0,E+
472.956180573,0,1000,4,1,3,4,5,2,1,0,0,250.0,test,0,E+
535.591840744,1,1000,5,1,3,4,5,2,1,0,0,250.0,test,1,E+
374.842882156,4,1000,0,0,3,4,5,2,1,0,0,250.0,test,1,E+
519.837141037,3,1000,1,1,3,4,5,2,1,0,0,250.0,test,3,E+
471.885204315,3,1000,1,1,3,4,5,2,1,0,0,250.0,test,3,E+
487.067937851,3,1000,1,1,3,4,5,2,1,0,0,250.0,test,3,E+
423.884153366,3,1000,1,1,3,4,5,2,1,0,0,250.0,test,3,E+
454.243183136,4,1000,0,1,3,4,5,2,1,0,0,250.0,test,4,E+
407.808065414,0,1000,4,1,3,4,5,2,1,0,0,250.0,test,0,E+
487.309932709,1,1000,5,1,3,4,5,2,1,0,0,250.0,test,1,E+
471.871852875,2,1000,2,1,3,4,5,2,1,0,0,250.0,test,2,E+
535.580158234,5,1000,3,1,3,4,5,2,1,0,0,250.0,test,5,E+
487.792015076,1,1000,5,1,3,4,5,2,1,0,0,250.0,test,1,E+
454.255819321,0,1000,4,1,3,4,5,2,1,0,0,250.0,test,0,E+
407.693862915,1,1000,5,1,3,4,5,2,1,0,0,250.0,test,1,E+
504.032850266,2,1000,2,1,3,4,5,2,1,0,0,250.0,test,2,E+
519.936084747,0,1000,4,1,3,4,5,2,1,0,0,250.0,test,0,E+
422.046899796,1,1000,5,1,3,4,5,2,1,0,0,250.0,test,1,E+
551.832914352,3,1000,1,1,3,4,5,2,1,0,0,250.0,test,3,E+
408.37597847,1,1000,5,1,3,4,5,2,1,0,0,250.0,test,1,E+
598.120212555,3,1000,1,0,3,4,5,2,1,0,0,250.0,test,2,E+
550.112962723,2,1000,2,1,3,4,5,2,1,0,0,250.0,test,2,E+
489.319086075,3,1000,1,1,3,4,5,2,1,0,0,250.0,test,3,E+
454.071998596,3,1000,1,1,3,4,5,2,1,0,0,250.0,test,3,E+
438.019990921,0,1000,4,1,3,4,5,2,1,0,0,250.0,test,0,E+
630.173921585,2,1000,2,1,3,4,5,2,1,0,0,250.0,test,2,E+
489.082098007,5,1000,3,1,3,4,5,2,1,0,0,250.0,test,5,E+
454.077005386,2,1000,2,1,3,4,5,2,1,0,0,250.0,test,2,E+
486.014127731,5,1000,3,1,3,4,5,2,1,0,0,250.0,test,5,E+
487.149000168,1,1000,5,1,3,4,5,2,1,0,0,250.0,test,1,E+
518.064975739,2,1000,2,1,3,4,5,2,1,0,0,250.0,test,2,E+
583.849906921,5,1000,3,1,3,4,5,2,1,0,0,250.0,test,5,E+
455.53612709,4,1000,0,1,3,4,5,2,1,0,0,250.0,test,4,E+
455.16204834,5,1000,3,1,3,4,5,2,1,0,0,250.0,test,5,E+
519.806861877,2,1000,2,1,3,4,5,2,1,0,0,250.0,test,2,E+
406.21805191,1,1000,5,1,3,4,5,2,1,0,0,250.0,test,1,E+
503.898859024,4,1000,0,1,3,4,5,2,1,0,0,250.0,test,4,E+
503.180027008,1,1000,5,1,3,4,5,2,1,0,0,250.0,test,1,E+
487.879991531,2,1000,2,1,3,4,5,2,1,0,0,250.0,test,2,E+
455.363035202,2,1000,2,1,3,4,5,2,1,0,0,250.0,test,2,E+
503.842115402,5,1000,3,1,3,4,5,2,1,0,0,250.0,test,5,E+
501.829147339,3,1000,1,1,3,4,5,2,1,0,0,250.0,test,3,E+
471.893072128,2,1000,2,1,3,4,5,2,1,0,0,250.0,test,2,E+
471.285820007,3,1000,1,1,3,4,5,2,1,0,0,250.0,test,3,E+
471.909046173,2,1000,2,1,3,4,5,2,1,0,0,250.0,test,2,E+
454.192876816,1,1000,5,1,3,4,5,2,1,0,0,250.0,test,1,E+
550.209999084,2,1000,2,1,3,4,5,2,1,0,0,250.0,test,2,E+
551.573991776,5,1000,3,1,3,4,5,2,1,0,0,250.0,test,5,E+
489.328861237,4,1000,0,1,3,4,5,2,1,0,0,250.0,test,4,E+
422.147035599,2,1000,2,1,3,4,5,2,1,0,0,250.0,test,2,E+
537.446022034,4,1000,0,1,3,4,5,2,1,0,0,250.0,test,4,E+
646.358013153,3,1000,1,1,3,4,5,2,1,0,0,250.0,test,3,E+
502.041101456,5,1000,3,1,3,4,5,2,1,0,0,250.0,test,5,E+
551.517963409,1,1000,5,1,3,4,5,2,1,0,0,250.0,test,1,E+
614.048957825,4,1000,0,1,3,4,5,2,1,0,0,250.0,test,4,E+
502.053976059,1,1000,5,1,3,4,5,2,1,0,0,250.0,test,1,E+
678.081035614,3,1000,1,1,3,4,5,2,1,0,0,250.0,test,3,E+
470.353841782,1,1000,5,1,3,4,5,2,1,0,0,250.0,test,1,E+
502.228021622,0,1000,4,1,3,4,5,2,1,0,0,250.0,test,0,E+
503.157138824,1,1000,5,1,3,4,5,2,1,0,0,250.0,test,1,E+
535.709857941,5,1000,3,1,3,4,5,2,1,0,0,250.0,test,5,E+
487.622022629,4,1000,0,1,3,4,5,2,1,0,0,250.0,test,4,E+
374.223947525,0,1000,4,1,3,4,5,2,1,0,0,250.0,test,0,E+
487.497091293,1,1000,5,1,3,4,5,2,1,0,0,250.0,test,1,E+
518.239974976,0,1000,4,1,3,4,5,2,1,0,0,250.0,test,0,E+
535.554170609,5,1000,3,1,3,4,5,2,1,0,0,250.0,test,5,E+
550.931930542,1,1000,5,1,3,4,5,2,1,0,0,250.0,test,1,E+
615.815162659,3,1000,1,1,3,4,5,2,1,0,0,250.0,test,3,E+
503.623962402,4,1000,0,1,3,4,5,2,1,0,0,250.0,test,4,E+
420.917034149,4,1000,0,1,3,4,5,2,1,0,0,250.0,test,4,E+
502.259016037,3,1000,1,0,3,4,5,2,1,0,0,250.0,test,2,E+
406.989097595,1,1000,5,1,3,4,5,2,1,0,0,250.0,test,1,E+
423.765182495,4,1000,0,1,3,4,5,2,1,0,0,250.0,test,4,E+
440.590143204,2,1000,2,1,3,4,5,2,1,0,0,250.0,test,2,E+
407.973051071,1,1000,5,1,3,4,5,2,1,0,0,250.0,test,1,E+
440.57393074,3,1000,1,0,3,4,5,2,1,0,0,250.0,test,2,E+
486.167907715,0,1000,4,1,3,4,5,2,1,0,0,250.0,test,0,E+
423.923015594,2,1000,2,1,3,4,5,2,1,0,0,250.0,test,2,E+
470.055818558,1,1000,5,1,3,4,5,2,1,0,0,250.0,test,1,E+
568.411111832,4,1000,0,1,3,4,5,2,1,0,0,250.0,test,4,E+
648.566007614,2,1000,2,1,3,4,5,2,1,0,0,250.0,test,2,E+
521.198987961,2,1000,2,1,3,4,5,2,1,0,0,250.0,test,2,E+
