RT,correct_response,ms-prestimblank,curstim,correct,SRmap_1,SRmap_0,SRmap_3,SRmap_2,SRmap_5,SRmap_4,ms-precue,ntrials,type,response,condition
2606.10985756,2,600,5,1,0,3,1,4,2,5,400,250.0,train,2,E-
3534.46817398,0,600,1,1,0,3,1,4,2,5,400,250.0,train,0,E-
2574.77092743,0,600,1,1,0,3,1,4,2,5,400,250.0,train,0,E-
2558.74705315,1,600,3,1,0,3,1,4,2,5,400,250.0,train,1,E-
990.854024887,1,600,3,1,0,3,1,4,2,5,400,250.0,train,1,E-
2559.05508995,4,600,2,1,0,3,1,4,2,5,400,250.0,train,4,E-
1870.59783936,5,600,4,1,0,3,1,4,2,5,400,250.0,train,5,E-
925.966978073,2,600,5,1,0,3,1,4,2,5,400,250.0,train,2,E-
862.597942352,5,600,4,1,0,3,1,4,2,5,400,250.0,train,5,E-
575.442075729,0,600,1,1,0,3,1,4,2,5,400,250.0,train,0,E-
63.2619857788,1,600,3,1,0,3,1,4,2,5,400,250.0,train,1,E-
494.240999222,3,600,0,1,0,3,1,4,2,5,400,250.0,train,3,E-
415.615081787,4,600,2,1,0,3,1,4,2,5,400,250.0,train,4,E-
510.393857956,4,600,2,1,0,3,1,4,2,5,400,250.0,train,4,E-
383.661031723,1,600,3,1,0,3,1,4,2,5,400,250.0,train,1,E-
286.40794754,5,600,4,0,0,3,1,4,2,5,400,250.0,train,4,E-
751.638889313,2,600,5,1,0,3,1,4,2,5,400,250.0,train,2,E-
447.674036026,1,600,3,1,0,3,1,4,2,5,400,250.0,train,1,E-
782.715082169,3,600,0,1,0,3,1,4,2,5,400,250.0,train,3,E-
447.570085526,3,600,0,0,0,3,1,4,2,5,400,250.0,train,2,E-
927.630901337,3,600,0,1,0,3,1,4,2,5,400,250.0,train,3,E-
510.284900665,2,600,5,1,0,3,1,4,2,5,400,250.0,train,2,E-
255.655050278,0,600,1,1,0,3,1,4,2,5,400,250.0,train,0,E-
254.323959351,0,600,1,1,0,3,1,4,2,5,400,250.0,train,0,E-
1023.66995811,4,600,2,1,0,3,1,4,2,5,400,250.0,train,4,E-
446.839094162,4,600,2,1,0,3,1,4,2,5,400,250.0,train,4,E-
223.640203476,0,600,1,1,0,3,1,4,2,5,400,250.0,train,0,E-
527.51994133,4,600,2,1,0,3,1,4,2,5,400,250.0,train,4,E-
175.601005554,3,600,0,0,0,3,1,4,2,5,400,250.0,train,2,E-
607.043981552,4,600,2,1,0,3,1,4,2,5,400,250.0,train,4,E-
255.061864853,5,600,4,1,0,3,1,4,2,5,400,250.0,train,5,E-
591.149091721,3,600,0,1,0,3,1,4,2,5,400,250.0,train,3,E-
495.682001114,3,600,0,1,0,3,1,4,2,5,400,250.0,train,3,E-
398.347139359,2,600,5,1,0,3,1,4,2,5,400,250.0,train,2,E-
191.681861877,4,600,2,1,0,3,1,4,2,5,400,250.0,train,4,E-
830.311059952,5,600,4,1,0,3,1,4,2,5,400,250.0,train,5,E-
142.976045609,1,600,3,1,0,3,1,4,2,5,400,250.0,train,1,E-
303.526878357,4,600,2,1,0,3,1,4,2,5,400,250.0,train,4,E-
287.724971771,2,600,5,1,0,3,1,4,2,5,400,250.0,train,2,E-
223.619937897,1,600,3,1,0,3,1,4,2,5,400,250.0,train,1,E-
207.868814468,2,600,5,0,0,3,1,4,2,5,400,250.0,train,3,E-
159.040212631,0,600,1,1,0,3,1,4,2,5,400,250.0,train,0,E-
286.273956299,3,600,0,1,0,3,1,4,2,5,400,250.0,train,3,E-
303.628921509,2,600,5,1,0,3,1,4,2,5,400,250.0,train,2,E-
158.358097076,1,600,3,1,0,3,1,4,2,5,400,250.0,train,1,E-
335.469007492,3,600,0,1,0,3,1,4,2,5,400,250.0,train,3,E-
319.468021393,5,600,4,1,0,3,1,4,2,5,400,250.0,train,5,E-
239.720106125,4,600,2,1,0,3,1,4,2,5,400,250.0,train,4,E-
127.784967422,4,600,2,1,0,3,1,4,2,5,400,250.0,train,4,E-
207.51786232,0,600,1,1,0,3,1,4,2,5,400,250.0,train,0,E-
159.66296196,4,600,2,1,0,3,1,4,2,5,400,250.0,train,4,E-
238.68393898,2,600,5,1,0,3,1,4,2,5,400,250.0,train,2,E-
159.58404541,5,600,4,1,0,3,1,4,2,5,400,250.0,train,5,E-
462.502002716,0,600,1,1,0,3,1,4,2,5,400,250.0,train,0,E-
287.702083588,1,600,3,1,0,3,1,4,2,5,400,250.0,train,1,E-
142.738103867,4,600,2,1,0,3,1,4,2,5,400,250.0,train,4,E-
143.793106079,2,600,5,1,0,3,1,4,2,5,400,250.0,train,2,E-
111.742973328,0,600,1,1,0,3,1,4,2,5,400,250.0,train,0,E-
239.508867264,5,600,4,1,0,3,1,4,2,5,400,250.0,train,5,E-
799.622058868,4,600,2,1,0,3,1,4,2,5,400,250.0,train,4,E-
191.687822342,2,600,5,1,0,3,1,4,2,5,400,250.0,train,2,E-
415.693044662,4,600,2,1,0,3,1,4,2,5,400,250.0,train,4,E-
143.762111664,2,600,5,1,0,3,1,4,2,5,400,250.0,train,2,E-
175.16207695,4,600,2,0,0,3,1,4,2,5,400,250.0,train,5,E-
319.625139236,0,600,1,1,0,3,1,4,2,5,400,250.0,train,0,E-
111.555099487,2,600,5,1,0,3,1,4,2,5,400,250.0,train,2,E-
15.8019065857,0,600,1,0,0,3,1,4,2,5,400,250.0,train,1,E-
414.321899414,2,600,5,1,0,3,1,4,2,5,400,250.0,train,2,E-
319.581031799,5,600,4,1,0,3,1,4,2,5,400,250.0,train,5,E-
589.71786499,3,600,0,1,0,3,1,4,2,5,400,250.0,train,3,E-
175.729036331,5,600,4,1,0,3,1,4,2,5,400,250.0,train,5,E-
846.853017807,3,600,0,1,0,3,1,4,2,5,400,250.0,train,3,E-
735.538005829,4,600,2,1,0,3,1,4,2,5,400,250.0,train,4,E-
255.608081818,0,600,1,1,0,3,1,4,2,5,400,250.0,train,0,E-
351.045131683,2,600,5,1,0,3,1,4,2,5,400,250.0,train,2,E-
367.590904236,4,600,2,1,0,3,1,4,2,5,400,250.0,train,4,E-
271.000146866,0,600,1,1,0,3,1,4,2,5,400,250.0,train,0,E-
223.557949066,2,600,5,1,0,3,1,4,2,5,400,250.0,train,2,E-
495.476961136,3,600,0,1,0,3,1,4,2,5,400,250.0,train,3,E-
303.613901138,4,600,2,1,0,3,1,4,2,5,400,250.0,train,4,E-
159.648895264,0,600,1,1,0,3,1,4,2,5,400,250.0,train,0,E-
367.621183395,2,600,5,1,0,3,1,4,2,5,400,250.0,train,2,E-
367.710113525,3,600,0,0,0,3,1,4,2,5,400,250.0,train,4,E-
207.687854767,4,600,2,1,0,3,1,4,2,5,400,250.0,train,4,E-
270.915031433,3,600,0,0,0,3,1,4,2,5,400,250.0,train,2,E-
175.61006546,0,600,1,1,0,3,1,4,2,5,400,250.0,train,0,E-
382.813215256,4,600,2,1,0,3,1,4,2,5,400,250.0,train,4,E-
303.367853165,5,600,4,1,0,3,1,4,2,5,400,250.0,train,5,E-
286.9181633,1,600,3,1,0,3,1,4,2,5,400,250.0,train,1,E-
1022.77803421,0,600,1,1,0,3,1,4,2,5,400,250.0,train,0,E-
623.445034027,3,600,0,1,0,3,1,4,2,5,400,250.0,train,3,E-
511.636972427,4,600,2,1,0,3,1,4,2,5,400,250.0,train,4,E-
206.694841385,1,600,3,1,0,3,1,4,2,5,400,250.0,train,1,E-
528.053998947,4,600,2,1,0,3,1,4,2,5,400,250.0,train,4,E-
447.597980499,2,600,5,1,0,3,1,4,2,5,400,250.0,train,2,E-
270.822048187,1,600,3,1,0,3,1,4,2,5,400,250.0,train,1,E-
143.561124802,1,600,3,1,0,3,1,4,2,5,400,250.0,train,1,E-
255.735874176,0,600,1,1,0,3,1,4,2,5,400,250.0,train,0,E-
623.591899872,1,600,3,1,0,3,1,4,2,5,400,250.0,train,1,E-
223.774909973,2,600,5,1,0,3,1,4,2,5,400,250.0,train,2,E-
143.73588562,1,600,3,1,0,3,1,4,2,5,400,250.0,train,1,E-
383.721828461,3,600,0,1,0,3,1,4,2,5,400,250.0,train,3,E-
239.672899246,1,600,3,1,0,3,1,4,2,5,400,250.0,train,1,E-
319.625854492,3,600,0,1,0,3,1,4,2,5,400,250.0,train,3,E-
223.700046539,4,600,2,1,0,3,1,4,2,5,400,250.0,train,4,E-
127.729892731,0,600,1,1,0,3,1,4,2,5,400,250.0,train,0,E-
111.711978912,1,600,3,1,0,3,1,4,2,5,400,250.0,train,1,E-
254.70495224,4,600,2,1,0,3,1,4,2,5,400,250.0,train,4,E-
271.531820297,3,600,0,0,0,3,1,4,2,5,400,250.0,train,2,E-
559.545993805,2,600,5,1,0,3,1,4,2,5,400,250.0,train,2,E-
207.614183426,4,600,2,1,0,3,1,4,2,5,400,250.0,train,4,E-
191.606998444,4,600,2,1,0,3,1,4,2,5,400,250.0,train,4,E-
655.553817749,1,600,3,0,0,3,1,4,2,5,400,250.0,train,0,E-
159.670829773,0,600,1,1,0,3,1,4,2,5,400,250.0,train,0,E-
287.620067596,5,600,4,1,0,3,1,4,2,5,400,250.0,train,5,E-
991.626977921,1,600,3,1,0,3,1,4,2,5,400,250.0,train,1,E-
847.521066666,0,600,1,1,0,3,1,4,2,5,400,250.0,train,0,E-
1231.51302338,2,600,5,1,0,3,1,4,2,5,400,250.0,train,2,E-
767.562866211,5,600,4,1,0,3,1,4,2,5,400,250.0,train,5,E-
558.963060379,5,600,4,1,0,3,1,4,2,5,400,250.0,train,5,E-
1662.09602356,1,600,3,1,0,3,1,4,2,5,400,250.0,train,1,E-
687.386035919,5,600,4,1,0,3,1,4,2,5,400,250.0,train,5,E-
1871.30904198,2,600,5,1,0,3,1,4,2,5,400,250.0,train,2,E-
1310.90903282,4,600,2,1,0,3,1,4,2,5,400,250.0,train,4,E-
751.080989838,4,600,2,1,0,3,1,4,2,5,400,250.0,train,4,E-
750.792980194,1,600,3,0,0,3,1,4,2,5,400,250.0,train,2,E-
1070.67203522,4,600,2,1,0,3,1,4,2,5,400,250.0,train,4,E-
1567.32988358,4,600,2,1,0,3,1,4,2,5,400,250.0,train,4,E-
702.576875687,0,600,1,1,0,3,1,4,2,5,400,250.0,train,0,E-
799.04794693,1,600,3,1,0,3,1,4,2,5,400,250.0,train,1,E-
671.108007431,4,600,2,1,0,3,1,4,2,5,400,250.0,train,4,E-
319.597005844,5,600,4,1,0,3,1,4,2,5,400,250.0,train,5,E-
670.183897018,4,600,2,1,0,3,1,4,2,5,400,250.0,train,4,E-
1647.42398262,1,600,3,1,0,3,1,4,2,5,400,250.0,train,1,E-
255.633115768,0,600,1,1,0,3,1,4,2,5,400,250.0,train,0,E-
206.951141357,5,600,4,1,0,3,1,4,2,5,400,250.0,train,5,E-
159.196853638,1,600,3,1,0,3,1,4,2,5,400,250.0,train,1,E-
174.982070923,5,600,4,1,0,3,1,4,2,5,400,250.0,train,5,E-
175.024032593,0,600,1,1,0,3,1,4,2,5,400,250.0,train,0,E-
238.80314827,4,600,2,1,0,3,1,4,2,5,400,250.0,train,4,E-
47.6620197296,4,600,2,1,0,3,1,4,2,5,400,250.0,train,4,E-
63.1721019745,3,600,0,0,0,3,1,4,2,5,400,250.0,train,2,E-
238.891124725,4,600,2,1,0,3,1,4,2,5,400,250.0,train,4,E-
95.7689285278,0,600,1,1,0,3,1,4,2,5,400,250.0,train,0,E-
143.562078476,4,600,2,1,0,3,1,4,2,5,400,250.0,train,4,E-
159.545183182,0,600,1,1,0,3,1,4,2,5,400,250.0,train,0,E-
159.836053848,1,600,3,1,0,3,1,4,2,5,400,250.0,train,1,E-
190.333843231,5,600,4,1,0,3,1,4,2,5,400,250.0,train,5,E-
31.6848754883,0,600,1,1,0,3,1,4,2,5,400,250.0,train,0,E-
447.703838348,1,600,3,1,0,3,1,4,2,5,400,250.0,train,1,E-
191.693067551,0,600,1,1,0,3,1,4,2,5,400,250.0,train,0,E-
223.693847656,3,600,0,0,0,3,1,4,2,5,400,250.0,train,2,E-
159.611940384,5,600,4,1,0,3,1,4,2,5,400,250.0,train,5,E-
831.480979919,3,600,0,1,0,3,1,4,2,5,400,250.0,train,3,E-
911.519050598,5,600,4,1,0,3,1,4,2,5,400,250.0,train,5,E-
143.800020218,5,600,4,1,0,3,1,4,2,5,400,250.0,train,5,E-
111.698865891,5,600,4,1,0,3,1,4,2,5,400,250.0,train,5,E-
287.667989731,4,600,2,1,0,3,1,4,2,5,400,250.0,train,4,E-
303.721904755,1,600,3,1,0,3,1,4,2,5,400,250.0,train,1,E-
638.933897018,2,600,5,1,0,3,1,4,2,5,400,250.0,train,2,E-
367.505073547,5,600,4,1,0,3,1,4,2,5,400,250.0,train,5,E-
223.601102829,5,600,4,1,0,3,1,4,2,5,400,250.0,train,5,E-
255.019187927,4,600,2,1,0,3,1,4,2,5,400,250.0,train,4,E-
271.658182144,4,600,2,1,0,3,1,4,2,5,400,250.0,train,4,E-
159.702062607,0,600,1,1,0,3,1,4,2,5,400,250.0,train,0,E-
239.576816559,4,600,2,1,0,3,1,4,2,5,400,250.0,train,4,E-
95.7639217377,0,600,1,1,0,3,1,4,2,5,400,250.0,train,0,E-
142.395973206,1,600,3,1,0,3,1,4,2,5,400,250.0,train,1,E-
255.696058273,4,600,2,1,0,3,1,4,2,5,400,250.0,train,4,E-
287.034034729,5,600,4,0,0,3,1,4,2,5,400,250.0,train,4,E-
335.514068604,4,600,2,1,0,3,1,4,2,5,400,250.0,train,4,E-
207.12018013,5,600,4,1,0,3,1,4,2,5,400,250.0,train,5,E-
125.931024551,0,600,1,1,0,3,1,4,2,5,400,250.0,train,0,E-
206.060886383,5,600,4,1,0,3,1,4,2,5,400,250.0,train,5,E-
158.02192688,1,600,3,1,0,3,1,4,2,5,400,250.0,train,1,E-
143.657922745,5,600,4,1,0,3,1,4,2,5,400,250.0,train,5,E-
191.650867462,1,600,3,1,0,3,1,4,2,5,400,250.0,train,1,E-
79.2050361633,5,600,4,1,0,3,1,4,2,5,400,250.0,train,5,E-
255.627155304,1,600,3,1,0,3,1,4,2,5,400,250.0,train,1,E-
526.969909668,4,600,2,1,0,3,1,4,2,5,400,250.0,train,4,E-
3375.08893013,0,600,1,1,0,3,1,4,2,5,400,250.0,train,0,E-
254.97508049,5,600,4,1,0,3,1,4,2,5,400,250.0,train,5,E-
159.799098969,0,600,1,1,0,3,1,4,2,5,400,250.0,train,0,E-
478.357076645,4,600,2,1,0,3,1,4,2,5,400,250.0,train,4,E-
174.36504364,5,600,4,1,0,3,1,4,2,5,400,250.0,train,5,E-
222.822189331,4,600,2,1,0,3,1,4,2,5,400,250.0,train,4,E-
255.160093307,2,600,5,1,0,3,1,4,2,5,400,250.0,train,2,E-
655.692100525,5,600,4,1,0,3,1,4,2,5,400,250.0,train,5,E-
495.552062988,3,600,0,0,0,3,1,4,2,5,400,250.0,train,2,E-
399.698019028,2,600,5,1,0,3,1,4,2,5,400,250.0,train,2,E-
127.785921097,5,600,4,1,0,3,1,4,2,5,400,250.0,train,5,E-
479.717969894,4,600,2,1,0,3,1,4,2,5,400,250.0,train,4,E-
223.627090454,0,600,1,1,0,3,1,4,2,5,400,250.0,train,0,E-
175.135135651,0,600,1,1,0,3,1,4,2,5,400,250.0,train,0,E-
767.637968063,3,600,0,1,0,3,1,4,2,5,400,250.0,train,3,E-
543.097019196,4,600,2,1,0,3,1,4,2,5,400,250.0,train,4,E-
159.557104111,0,600,1,1,0,3,1,4,2,5,400,250.0,train,0,E-
206.249952316,0,600,1,1,0,3,1,4,2,5,400,250.0,train,0,E-
351.654052734,5,600,4,1,0,3,1,4,2,5,400,250.0,train,5,E-
111.658096313,0,600,1,1,0,3,1,4,2,5,400,250.0,train,0,E-
302.264213562,4,600,2,1,0,3,1,4,2,5,400,250.0,train,4,E-
287.683010101,4,600,2,1,0,3,1,4,2,5,400,250.0,train,4,E-
175.546884537,2,600,5,1,0,3,1,4,2,5,400,250.0,train,2,E-
95.7210063934,2,600,5,1,0,3,1,4,2,5,400,250.0,train,2,E-
223.726034164,3,600,0,0,0,3,1,4,2,5,400,250.0,train,4,E-
2447.26586342,4,600,2,1,0,3,1,4,2,5,400,250.0,train,4,E-
47.5268363953,4,600,2,1,0,3,1,4,2,5,400,250.0,train,4,E-
879.078865051,4,600,2,1,0,3,1,4,2,5,400,250.0,train,4,E-
287.601947784,3,600,0,1,0,3,1,4,2,5,400,250.0,train,3,E-
223.06394577,3,600,0,1,0,3,1,4,2,5,400,250.0,train,3,E-
159.076213837,0,600,1,1,0,3,1,4,2,5,400,250.0,train,0,E-
1007.4570179,1,600,3,1,0,3,1,4,2,5,400,250.0,train,1,E-
206.13193512,1,600,3,1,0,3,1,4,2,5,400,250.0,train,1,E-
398.907899857,0,600,1,1,0,3,1,4,2,5,400,250.0,train,0,E-
253.756999969,4,600,2,1,0,3,1,4,2,5,400,250.0,train,4,E-
255.502939224,5,600,4,1,0,3,1,4,2,5,400,250.0,train,5,E-
399.631023407,2,600,5,1,0,3,1,4,2,5,400,250.0,train,2,E-
287.656068802,4,600,2,1,0,3,1,4,2,5,400,250.0,train,4,E-
271.636962891,5,600,4,1,0,3,1,4,2,5,400,250.0,train,5,E-
399.529933929,2,600,5,1,0,3,1,4,2,5,400,250.0,train,2,E-
127.717971802,5,600,4,1,0,3,1,4,2,5,400,250.0,train,5,E-
383.653879166,2,600,5,1,0,3,1,4,2,5,400,250.0,train,2,E-
111.738920212,4,600,2,1,0,3,1,4,2,5,400,250.0,train,4,E-
175.60505867,1,600,3,1,0,3,1,4,2,5,400,250.0,train,1,E-
511.747121811,3,600,0,0,0,3,1,4,2,5,400,250.0,train,2,E-
335.849046707,2,600,5,1,0,3,1,4,2,5,400,250.0,train,2,E-
126.564979553,4,600,2,1,0,3,1,4,2,5,400,250.0,train,4,E-
351.584911346,5,600,4,1,0,3,1,4,2,5,400,250.0,train,5,E-
303.550958633,5,600,4,1,0,3,1,4,2,5,400,250.0,train,5,E-
479.616880417,4,600,2,1,0,3,1,4,2,5,400,250.0,train,4,E-
222.335100174,0,600,1,1,0,3,1,4,2,5,400,250.0,train,0,E-
431.663036346,5,600,4,1,0,3,1,4,2,5,400,250.0,train,5,E-
656.152963638,3,600,0,1,0,3,1,4,2,5,400,250.0,train,3,E-
143.782138824,0,600,1,1,0,3,1,4,2,5,400,250.0,train,0,E-
447.742938995,3,600,0,1,0,3,1,4,2,5,400,250.0,train,3,E-
223.664045334,4,600,2,1,0,3,1,4,2,5,400,250.0,train,4,E-
479.650974274,2,600,5,1,0,3,1,4,2,5,400,250.0,train,2,E-
591.47810936,2,600,5,1,0,3,1,4,2,5,400,250.0,train,2,E-
239.593029022,4,600,2,1,0,3,1,4,2,5,400,250.0,train,4,E-
191.01691246,3,600,0,0,0,3,1,4,2,5,400,250.0,train,4,E-
127.189159393,4,600,2,1,0,3,1,4,2,5,400,250.0,train,4,E-
319.695949554,2,600,5,1,0,3,1,4,2,5,400,250.0,train,2,E-
255.051136017,1,600,3,1,0,3,1,4,2,5,400,250.0,train,1,E-
175.606966019,4,600,2,1,0,3,1,4,2,5,400,250.0,train,4,E-
399.580001831,2,600,5,1,0,3,1,4,2,5,400,250.0,train,2,E-
703.746080399,3,600,0,1,0,3,1,4,2,5,400,250.0,train,3,E-
207.007884979,5,600,4,1,0,3,1,4,2,5,400,250.0,train,5,E-
255.643129349,2,600,5,1,0,3,1,4,2,5,400,250.0,train,2,E-
335.760831833,1,600,3,1,0,3,1,4,2,5,400,250.0,train,1,E-
287.683963776,4,600,2,1,0,3,1,4,2,5,400,250.0,train,4,E-
718.82891655,2,1000,5,1,0,1,5,4,2,3,0,250.0,test,2,E-
751.664876938,4,1000,2,1,0,1,5,4,2,3,0,250.0,test,4,E-
687.528848648,1,1000,0,1,0,1,5,4,2,3,0,250.0,test,1,E-
701.743841171,2,1000,5,1,0,1,5,4,2,3,0,250.0,test,2,E-
607.423067093,0,1000,1,1,0,1,5,4,2,3,0,250.0,test,0,E-
958.010911942,5,1000,3,1,0,1,5,4,2,3,0,250.0,test,5,E-
719.612836838,5,1000,3,1,0,1,5,4,2,3,0,250.0,test,5,E-
1086.50898933,3,1000,4,0,0,1,5,4,2,3,0,250.0,test,2,E-
590.231895447,1,1000,0,1,0,1,5,4,2,3,0,250.0,test,1,E-
671.423912048,5,1000,3,1,0,1,5,4,2,3,0,250.0,test,5,E-
590.711116791,5,1000,3,1,0,1,5,4,2,3,0,250.0,test,5,E-
591.461896896,0,1000,1,1,0,1,5,4,2,3,0,250.0,test,0,E-
844.86913681,0,1000,1,1,0,1,5,4,2,3,0,250.0,test,0,E-
1422.62411118,3,1000,4,1,0,1,5,4,2,3,0,250.0,test,3,E-
638.765096664,1,1000,0,1,0,1,5,4,2,3,0,250.0,test,1,E-
559.17596817,1,1000,0,1,0,1,5,4,2,3,0,250.0,test,1,E-
767.564058304,3,1000,4,1,0,1,5,4,2,3,0,250.0,test,3,E-
605.005979538,1,1000,0,1,0,1,5,4,2,3,0,250.0,test,1,E-
703.472137451,3,1000,4,1,0,1,5,4,2,3,0,250.0,test,3,E-
669.620990753,0,1000,1,1,0,1,5,4,2,3,0,250.0,test,0,E-
622.205972672,4,1000,2,1,0,1,5,4,2,3,0,250.0,test,4,E-
703.276872635,2,1000,5,1,0,1,5,4,2,3,0,250.0,test,2,E-
638.974189758,5,1000,3,0,0,1,5,4,2,3,0,250.0,test,4,E-
655.570030212,4,1000,2,1,0,1,5,4,2,3,0,250.0,test,4,E-
719.014883041,4,1000,2,1,0,1,5,4,2,3,0,250.0,test,4,E-
702.884912491,1,1000,0,1,0,1,5,4,2,3,0,250.0,test,1,E-
574.553966522,0,1000,1,1,0,1,5,4,2,3,0,250.0,test,0,E-
589.674949646,1,1000,0,1,0,1,5,4,2,3,0,250.0,test,1,E-
527.461051941,1,1000,0,1,0,1,5,4,2,3,0,250.0,test,1,E-
559.011936188,0,1000,1,1,0,1,5,4,2,3,0,250.0,test,0,E-
429.248809814,1,1000,0,0,0,1,5,4,2,3,0,250.0,test,0,E-
862.274885178,0,1000,1,1,0,1,5,4,2,3,0,250.0,test,0,E-
638.201951981,4,1000,2,1,0,1,5,4,2,3,0,250.0,test,4,E-
543.645858765,0,1000,1,1,0,1,5,4,2,3,0,250.0,test,0,E-
574.071884155,3,1000,4,0,0,1,5,4,2,3,0,250.0,test,5,E-
763.939142227,5,1000,3,1,0,1,5,4,2,3,0,250.0,test,5,E-
799.571037292,3,1000,4,1,0,1,5,4,2,3,0,250.0,test,3,E-
655.613183975,0,1000,1,1,0,1,5,4,2,3,0,250.0,test,0,E-
734.634160995,3,1000,4,0,0,1,5,4,2,3,0,250.0,test,5,E-
862.917900085,1,1000,0,1,0,1,5,4,2,3,0,250.0,test,1,E-
719.443082809,0,1000,1,1,0,1,5,4,2,3,0,250.0,test,0,E-
1806.48803711,2,1000,5,1,0,1,5,4,2,3,0,250.0,test,2,E-
862.74600029,2,1000,5,1,0,1,5,4,2,3,0,250.0,test,2,E-
783.536911011,5,1000,3,1,0,1,5,4,2,3,0,250.0,test,5,E-
926.928043365,2,1000,5,1,0,1,5,4,2,3,0,250.0,test,2,E-
831.609010696,4,1000,2,1,0,1,5,4,2,3,0,250.0,test,4,E-
671.541929245,2,1000,5,0,0,1,5,4,2,3,0,250.0,test,1,E-
1054.98099327,3,1000,4,1,0,1,5,4,2,3,0,250.0,test,3,E-
799.562931061,4,1000,2,1,0,1,5,4,2,3,0,250.0,test,4,E-
1134.61208344,1,1000,0,1,0,1,5,4,2,3,0,250.0,test,1,E-
574.746847153,1,1000,0,1,0,1,5,4,2,3,0,250.0,test,1,E-
1199.00798798,3,1000,4,1,0,1,5,4,2,3,0,250.0,test,3,E-
718.105077744,2,1000,5,1,0,1,5,4,2,3,0,250.0,test,2,E-
622.740983963,1,1000,0,1,0,1,5,4,2,3,0,250.0,test,1,E-
991.619110107,4,1000,2,1,0,1,5,4,2,3,0,250.0,test,4,E-
623.571157455,0,1000,1,1,0,1,5,4,2,3,0,250.0,test,0,E-
879.52709198,5,1000,3,1,0,1,5,4,2,3,0,250.0,test,5,E-
926.918983459,2,1000,5,1,0,1,5,4,2,3,0,250.0,test,2,E-
2046.88000679,4,1000,2,1,0,1,5,4,2,3,0,250.0,test,4,E-
718.968868256,4,1000,2,1,0,1,5,4,2,3,0,250.0,test,4,E-
702.090024948,4,1000,2,1,0,1,5,4,2,3,0,250.0,test,4,E-
671.578884125,5,1000,3,1,0,1,5,4,2,3,0,250.0,test,5,E-
701.412916183,0,1000,1,1,0,1,5,4,2,3,0,250.0,test,0,E-
702.311992645,1,1000,0,1,0,1,5,4,2,3,0,250.0,test,1,E-
591.077804565,1,1000,0,1,0,1,5,4,2,3,0,250.0,test,1,E-
943.588972092,2,1000,5,1,0,1,5,4,2,3,0,250.0,test,2,E-
767.43888855,5,1000,3,1,0,1,5,4,2,3,0,250.0,test,5,E-
639.585018158,4,1000,2,1,0,1,5,4,2,3,0,250.0,test,4,E-
1007.36618042,1,1000,0,1,0,1,5,4,2,3,0,250.0,test,1,E-
607.249975204,5,1000,3,1,0,1,5,4,2,3,0,250.0,test,5,E-
510.067939758,5,1000,3,1,0,1,5,4,2,3,0,250.0,test,5,E-
1006.47592545,3,1000,4,1,0,1,5,4,2,3,0,250.0,test,3,E-
606.88996315,5,1000,3,1,0,1,5,4,2,3,0,250.0,test,5,E-
543.606042862,1,1000,0,1,0,1,5,4,2,3,0,250.0,test,1,E-
703.582048416,5,1000,3,1,0,1,5,4,2,3,0,250.0,test,5,E-
815.288066864,3,1000,4,1,0,1,5,4,2,3,0,250.0,test,3,E-
687.571048737,2,1000,5,1,0,1,5,4,2,3,0,250.0,test,2,E-
542.533874512,1,1000,0,1,0,1,5,4,2,3,0,250.0,test,1,E-
639.569044113,3,1000,4,0,0,1,5,4,2,3,0,250.0,test,2,E-
702.879905701,2,1000,5,0,0,1,5,4,2,3,0,250.0,test,1,E-
543.524026871,0,1000,1,1,0,1,5,4,2,3,0,250.0,test,0,E-
607.614994049,0,1000,1,1,0,1,5,4,2,3,0,250.0,test,0,E-
575.546979904,1,1000,0,1,0,1,5,4,2,3,0,250.0,test,1,E-
639.524936676,1,1000,0,1,0,1,5,4,2,3,0,250.0,test,1,E-
623.063802719,2,1000,5,1,0,1,5,4,2,3,0,250.0,test,2,E-
558.731079102,2,1000,5,0,0,1,5,4,2,3,0,250.0,test,1,E-
557.929039001,1,1000,0,1,0,1,5,4,2,3,0,250.0,test,1,E-
542.988061905,1,1000,0,1,0,1,5,4,2,3,0,250.0,test,1,E-
591.12405777,1,1000,0,1,0,1,5,4,2,3,0,250.0,test,1,E-
397.164106369,1,1000,0,1,0,1,5,4,2,3,0,250.0,test,1,E-
590.875864029,5,1000,3,1,0,1,5,4,2,3,0,250.0,test,5,E-
686.238050461,3,1000,4,1,0,1,5,4,2,3,0,250.0,test,3,E-
655.563116074,1,1000,0,1,0,1,5,4,2,3,0,250.0,test,1,E-
735.799789429,3,1000,4,0,0,1,5,4,2,3,0,250.0,test,2,E-
1038.91921043,5,1000,3,1,0,1,5,4,2,3,0,250.0,test,5,E-
910.732030869,2,1000,5,1,0,1,5,4,2,3,0,250.0,test,2,E-
669.888973236,0,1000,1,1,0,1,5,4,2,3,0,250.0,test,0,E-
542.345046997,0,1000,1,1,0,1,5,4,2,3,0,250.0,test,0,E-
943.71008873,2,1000,5,1,0,1,5,4,2,3,0,250.0,test,2,E-
574.80096817,2,1000,5,1,0,1,5,4,2,3,0,250.0,test,2,E-
1167.02699661,3,1000,4,1,0,1,5,4,2,3,0,250.0,test,3,E-
718.377113342,5,1000,3,1,0,1,5,4,2,3,0,250.0,test,5,E-
927.520990372,2,1000,5,1,0,1,5,4,2,3,0,250.0,test,2,E-
718.044996262,2,1000,5,1,0,1,5,4,2,3,0,250.0,test,2,E-
637.802124023,1,1000,0,1,0,1,5,4,2,3,0,250.0,test,1,E-
542.692184448,1,1000,0,1,0,1,5,4,2,3,0,250.0,test,1,E-
734.390974045,4,1000,2,1,0,1,5,4,2,3,0,250.0,test,4,E-
638.324975967,2,1000,5,1,0,1,5,4,2,3,0,250.0,test,2,E-
591.605901718,0,1000,1,1,0,1,5,4,2,3,0,250.0,test,0,E-
622.852087021,0,1000,1,1,0,1,5,4,2,3,0,250.0,test,0,E-
605.736017227,0,1000,1,1,0,1,5,4,2,3,0,250.0,test,0,E-
639.240026474,2,1000,5,1,0,1,5,4,2,3,0,250.0,test,2,E-
1279.34813499,3,1000,4,1,0,1,5,4,2,3,0,250.0,test,3,E-
526.921033859,0,1000,1,1,0,1,5,4,2,3,0,250.0,test,0,E-
1086.48896217,4,1000,2,1,0,1,5,4,2,3,0,250.0,test,4,E-
623.353004456,5,1000,3,1,0,1,5,4,2,3,0,250.0,test,5,E-
623.612165451,4,1000,2,1,0,1,5,4,2,3,0,250.0,test,4,E-
638.700008392,5,1000,3,1,0,1,5,4,2,3,0,250.0,test,5,E-
687.597990036,1,1000,0,1,0,1,5,4,2,3,0,250.0,test,1,E-
622.771024704,0,1000,1,1,0,1,5,4,2,3,0,250.0,test,0,E-
527.286052704,1,1000,0,1,0,1,5,4,2,3,0,250.0,test,1,E-
943.052053452,1,1000,0,1,0,1,5,4,2,3,0,250.0,test,1,E-
749.439001083,1,1000,0,1,0,1,5,4,2,3,0,250.0,test,1,E-
1165.51089287,1,1000,0,1,0,1,5,4,2,3,0,250.0,test,1,E-
2383.26692581,4,1000,2,1,0,1,5,4,2,3,0,250.0,test,4,E-
750.994205475,3,1000,4,1,0,1,5,4,2,3,0,250.0,test,3,E-
735.057830811,4,1000,2,1,0,1,5,4,2,3,0,250.0,test,4,E-
606.302976608,0,1000,1,1,0,1,5,4,2,3,0,250.0,test,0,E-
671.336174011,1,1000,0,1,0,1,5,4,2,3,0,250.0,test,1,E-
654.093027115,5,1000,3,1,0,1,5,4,2,3,0,250.0,test,5,E-
590.883016586,0,1000,1,1,0,1,5,4,2,3,0,250.0,test,0,E-
846.681118011,3,1000,4,1,0,1,5,4,2,3,0,250.0,test,3,E-
574.303150177,4,1000,2,0,0,1,5,4,2,3,0,250.0,test,5,E-
1134.26780701,3,1000,4,1,0,1,5,4,2,3,0,250.0,test,3,E-
542.866945267,1,1000,0,1,0,1,5,4,2,3,0,250.0,test,1,E-
766.467094421,4,1000,2,1,0,1,5,4,2,3,0,250.0,test,4,E-
894.566059113,3,1000,4,1,0,1,5,4,2,3,0,250.0,test,3,E-
526.905059814,3,1000,4,1,0,1,5,4,2,3,0,250.0,test,3,E-
559.445142746,0,1000,1,1,0,1,5,4,2,3,0,250.0,test,0,E-
574.813127518,1,1000,0,1,0,1,5,4,2,3,0,250.0,test,1,E-
494.451999664,2,1000,5,1,0,1,5,4,2,3,0,250.0,test,2,E-
543.548107147,1,1000,0,1,0,1,5,4,2,3,0,250.0,test,1,E-
1279.35409546,5,1000,3,1,0,1,5,4,2,3,0,250.0,test,5,E-
799.020051956,5,1000,3,1,0,1,5,4,2,3,0,250.0,test,5,E-
831.501960754,1,1000,0,1,0,1,5,4,2,3,0,250.0,test,1,E-
909.723043442,2,1000,5,1,0,1,5,4,2,3,0,250.0,test,2,E-
687.42609024,5,1000,3,1,0,1,5,4,2,3,0,250.0,test,5,E-
588.129043579,0,1000,1,1,0,1,5,4,2,3,0,250.0,test,0,E-
559.43608284,0,1000,1,1,0,1,5,4,2,3,0,250.0,test,0,E-
751.024007797,2,1000,5,1,0,1,5,4,2,3,0,250.0,test,2,E-
719.460964203,4,1000,2,1,0,1,5,4,2,3,0,250.0,test,4,E-
527.175188065,0,1000,1,1,0,1,5,4,2,3,0,250.0,test,0,E-
671.512126923,2,1000,5,1,0,1,5,4,2,3,0,250.0,test,2,E-
511.621952057,1,1000,0,1,0,1,5,4,2,3,0,250.0,test,1,E-
591.281175613,0,1000,1,1,0,1,5,4,2,3,0,250.0,test,0,E-
718.891859055,2,1000,5,1,0,1,5,4,2,3,0,250.0,test,2,E-
927.495002747,2,1000,5,1,0,1,5,4,2,3,0,250.0,test,2,E-
751.524925232,4,1000,2,1,0,1,5,4,2,3,0,250.0,test,4,E-
750.40602684,5,1000,3,1,0,1,5,4,2,3,0,250.0,test,5,E-
559.292078018,1,1000,0,1,0,1,5,4,2,3,0,250.0,test,1,E-
511.595964432,5,1000,3,1,0,1,5,4,2,3,0,250.0,test,5,E-
574.364185333,1,1000,0,1,0,1,5,4,2,3,0,250.0,test,1,E-
783.411026001,0,1000,1,1,0,1,5,4,2,3,0,250.0,test,0,E-
1007.0540905,2,1000,5,1,0,1,5,4,2,3,0,250.0,test,2,E-
1423.46787453,5,1000,3,1,0,1,5,4,2,3,0,250.0,test,5,E-
671.001911163,1,1000,0,1,0,1,5,4,2,3,0,250.0,test,1,E-
574.279785156,5,1000,3,1,0,1,5,4,2,3,0,250.0,test,5,E-
559.492111206,4,1000,2,1,0,1,5,4,2,3,0,250.0,test,4,E-
830.651044846,3,1000,4,1,0,1,5,4,2,3,0,250.0,test,3,E-
702.930927277,2,1000,5,0,0,1,5,4,2,3,0,250.0,test,1,E-
575.548887253,0,1000,1,1,0,1,5,4,2,3,0,250.0,test,0,E-
766.499996185,3,1000,4,1,0,1,5,4,2,3,0,250.0,test,3,E-
558.948993683,0,1000,1,1,0,1,5,4,2,3,0,250.0,test,0,E-
656.611919403,4,1000,2,1,0,1,5,4,2,3,0,250.0,test,4,E-
1039.48807716,5,1000,3,1,0,1,5,4,2,3,0,250.0,test,5,E-
767.559051514,2,1000,5,1,0,1,5,4,2,3,0,250.0,test,2,E-
750.241041183,5,1000,3,1,0,1,5,4,2,3,0,250.0,test,5,E-
1055.54294586,3,1000,4,1,0,1,5,4,2,3,0,250.0,test,3,E-
574.694871902,1,1000,0,1,0,1,5,4,2,3,0,250.0,test,1,E-
525.586128235,0,1000,1,1,0,1,5,4,2,3,0,250.0,test,0,E-
702.441930771,1,1000,0,1,0,1,5,4,2,3,0,250.0,test,1,E-
639.441013336,0,1000,1,1,0,1,5,4,2,3,0,250.0,test,0,E-
1038.83290291,5,1000,3,1,0,1,5,4,2,3,0,250.0,test,5,E-
575.449943542,0,1000,1,1,0,1,5,4,2,3,0,250.0,test,0,E-
1487.47897148,3,1000,4,1,0,1,5,4,2,3,0,250.0,test,3,E-
542.685031891,0,1000,1,1,0,1,5,4,2,3,0,250.0,test,0,E-
623.53515625,1,1000,0,1,0,1,5,4,2,3,0,250.0,test,1,E-
1039.45994377,2,1000,5,1,0,1,5,4,2,3,0,250.0,test,2,E-
830.57808876,2,1000,5,1,0,1,5,4,2,3,0,250.0,test,2,E-
1022.92895317,3,1000,4,0,0,1,5,4,2,3,0,250.0,test,2,E-
845.999956131,3,1000,4,1,0,1,5,4,2,3,0,250.0,test,3,E-
814.535856247,1,1000,0,1,0,1,5,4,2,3,0,250.0,test,1,E-
991.549015045,2,1000,5,1,0,1,5,4,2,3,0,250.0,test,2,E-
1022.95517921,2,1000,5,1,0,1,5,4,2,3,0,250.0,test,2,E-
527.504920959,0,1000,1,1,0,1,5,4,2,3,0,250.0,test,0,E-
623.08382988,1,1000,0,1,0,1,5,4,2,3,0,250.0,test,1,E-
559.02504921,1,1000,0,1,0,1,5,4,2,3,0,250.0,test,1,E-
559.07702446,1,1000,0,1,0,1,5,4,2,3,0,250.0,test,1,E-
735.6300354,4,1000,2,1,0,1,5,4,2,3,0,250.0,test,4,E-
542.881011963,0,1000,1,1,0,1,5,4,2,3,0,250.0,test,0,E-
1039.03698921,3,1000,4,1,0,1,5,4,2,3,0,250.0,test,3,E-
559.536933899,5,1000,3,1,0,1,5,4,2,3,0,250.0,test,5,E-
542.621135712,0,1000,1,1,0,1,5,4,2,3,0,250.0,test,0,E-
430.988073349,1,1000,0,1,0,1,5,4,2,3,0,250.0,test,1,E-
542.148113251,0,1000,1,1,0,1,5,4,2,3,0,250.0,test,0,E-
719.566106796,2,1000,5,1,0,1,5,4,2,3,0,250.0,test,2,E-
1390.34605026,3,1000,4,1,0,1,5,4,2,3,0,250.0,test,3,E-
559.581041336,5,1000,3,1,0,1,5,4,2,3,0,250.0,test,5,E-
639.019966125,5,1000,3,1,0,1,5,4,2,3,0,250.0,test,5,E-
782.469034195,5,1000,3,1,0,1,5,4,2,3,0,250.0,test,5,E-
557.351112366,0,1000,1,1,0,1,5,4,2,3,0,250.0,test,0,E-
1278.55086327,3,1000,4,1,0,1,5,4,2,3,0,250.0,test,3,E-
606.997013092,4,1000,2,1,0,1,5,4,2,3,0,250.0,test,4,E-
734.920024872,2,1000,5,1,0,1,5,4,2,3,0,250.0,test,2,E-
607.107877731,5,1000,3,1,0,1,5,4,2,3,0,250.0,test,5,E-
655.530929565,4,1000,2,1,0,1,5,4,2,3,0,250.0,test,4,E-
911.638021469,4,1000,2,1,0,1,5,4,2,3,0,250.0,test,4,E-
606.163024902,4,1000,2,1,0,1,5,4,2,3,0,250.0,test,4,E-
670.680046082,2,1000,5,1,0,1,5,4,2,3,0,250.0,test,2,E-
542.721986771,0,1000,1,1,0,1,5,4,2,3,0,250.0,test,0,E-
589.262962341,0,1000,1,1,0,1,5,4,2,3,0,250.0,test,0,E-
767.400026321,1,1000,0,1,0,1,5,4,2,3,0,250.0,test,1,E-
1005.41210175,3,1000,4,1,0,1,5,4,2,3,0,250.0,test,3,E-
735.008001328,0,1000,1,1,0,1,5,4,2,3,0,250.0,test,0,E-
639.390945435,1,1000,0,1,0,1,5,4,2,3,0,250.0,test,1,E-
1119.49706078,2,1000,5,1,0,1,5,4,2,3,0,250.0,test,2,E-
1341.34507179,3,1000,4,1,0,1,5,4,2,3,0,250.0,test,3,E-
765.872955322,4,1000,2,1,0,1,5,4,2,3,0,250.0,test,4,E-
863.024950027,5,1000,3,1,0,1,5,4,2,3,0,250.0,test,5,E-
686.59901619,2,1000,5,1,0,1,5,4,2,3,0,250.0,test,2,E-
2702.52609253,4,1000,2,1,0,1,5,4,2,3,0,250.0,test,4,E-
542.906045914,1,1000,0,1,0,1,5,4,2,3,0,250.0,test,1,E-
527.085065842,4,1000,2,1,0,1,5,4,2,3,0,250.0,test,4,E-
494.910955429,0,1000,1,1,0,1,5,4,2,3,0,250.0,test,0,E-
638.441801071,1,1000,0,1,0,1,5,4,2,3,0,250.0,test,1,E-
558.828115463,1,1000,0,1,0,1,5,4,2,3,0,250.0,test,1,E-
526.808023453,0,1000,1,1,0,1,5,4,2,3,0,250.0,test,0,E-
622.998952866,2,1000,5,1,0,1,5,4,2,3,0,250.0,test,2,E-
879.554033279,1,1000,0,1,0,1,5,4,2,3,0,250.0,test,1,E-
575.033187866,5,1000,3,1,0,1,5,4,2,3,0,250.0,test,5,E-
655.463933945,1,1000,0,1,0,1,5,4,2,3,0,250.0,test,1,E-
606.950044632,1,1000,0,1,0,1,5,4,2,3,0,250.0,test,1,E-
527.601003647,0,1000,1,1,0,1,5,4,2,3,0,250.0,test,0,E-
670.310020447,5,1000,3,1,0,1,5,4,2,3,0,250.0,test,5,E-
991.578817368,2,1000,5,1,0,1,5,4,2,3,0,250.0,test,2,E-
879.503011703,2,1000,5,1,0,1,5,4,2,3,0,250.0,test,2,E-
751.579046249,5,1000,3,1,0,1,5,4,2,3,0,250.0,test,5,E-
846.782922745,2,1000,5,1,0,1,5,4,2,3,0,250.0,test,2,E-
542.93012619,0,1000,1,1,0,1,5,4,2,3,0,250.0,test,0,E-
1038.68317604,5,1000,3,1,0,1,5,4,2,3,0,250.0,test,5,E-
