RT,correct_response,ms-prestimblank,curstim,correct,SRmap_1,SRmap_0,SRmap_3,SRmap_2,SRmap_5,SRmap_4,ms-precue,ntrials,type,response,condition
6191.52808189,3,1000,1,1,3,1,0,4,2,5,0,250.0,train,3,H-
4639.98198509,2,1000,5,1,3,1,0,4,2,5,0,250.0,train,2,H-
1872.69592285,0,1000,3,1,3,1,0,4,2,5,0,250.0,train,0,H-
2064.2118454,4,1000,2,1,3,1,0,4,2,5,0,250.0,train,4,H-
1744.22383308,1,1000,0,1,3,1,0,4,2,5,0,250.0,train,1,H-
2272.20511436,4,1000,2,1,3,1,0,4,2,5,0,250.0,train,4,H-
2096.21906281,5,1000,4,1,3,1,0,4,2,5,0,250.0,train,5,H-
1856.38189316,0,1000,3,1,3,1,0,4,2,5,0,250.0,train,0,H-
2272.35388756,1,1000,0,1,3,1,0,4,2,5,0,250.0,train,1,H-
944.454908371,0,1000,3,1,3,1,0,4,2,5,0,250.0,train,0,H-
1296.36311531,2,1000,5,0,3,1,0,4,2,5,0,250.0,train,1,H-
2016.22414589,4,1000,2,1,3,1,0,4,2,5,0,250.0,train,4,H-
2192.31009483,2,1000,5,1,3,1,0,4,2,5,0,250.0,train,2,H-
1520.22790909,3,1000,1,1,3,1,0,4,2,5,0,250.0,train,3,H-
1760.28990746,0,1000,3,1,3,1,0,4,2,5,0,250.0,train,0,H-
1632.3621273,5,1000,4,1,3,1,0,4,2,5,0,250.0,train,5,H-
832.437992096,0,1000,3,1,3,1,0,4,2,5,0,250.0,train,0,H-
2208.26601982,2,1000,5,1,3,1,0,4,2,5,0,250.0,train,2,H-
2304.210186,4,1000,2,0,3,1,0,4,2,5,0,250.0,train,3,H-
2752.2008419,3,1000,1,1,3,1,0,4,2,5,0,250.0,train,3,H-
1376.34706497,5,1000,4,1,3,1,0,4,2,5,0,250.0,train,5,H-
1280.25221825,3,1000,1,1,3,1,0,4,2,5,0,250.0,train,3,H-
928.391933441,3,1000,1,1,3,1,0,4,2,5,0,250.0,train,3,H-
1120.30601501,2,1000,5,1,3,1,0,4,2,5,0,250.0,train,2,H-
1792.66810417,0,1000,3,1,3,1,0,4,2,5,0,250.0,train,0,H-
1568.34101677,4,1000,2,1,3,1,0,4,2,5,0,250.0,train,4,H-
1280.19690514,2,1000,5,1,3,1,0,4,2,5,0,250.0,train,2,H-
1375.96487999,4,1000,2,1,3,1,0,4,2,5,0,250.0,train,4,H-
1920.1028347,1,1000,0,1,3,1,0,4,2,5,0,250.0,train,1,H-
1392.30799675,2,1000,5,1,3,1,0,4,2,5,0,250.0,train,2,H-
1776.37195587,1,1000,0,1,3,1,0,4,2,5,0,250.0,train,1,H-
2128.32689285,1,1000,0,1,3,1,0,4,2,5,0,250.0,train,1,H-
1248.17299843,0,1000,3,1,3,1,0,4,2,5,0,250.0,train,0,H-
1312.28899956,0,1000,3,1,3,1,0,4,2,5,0,250.0,train,0,H-
752.32219696,0,1000,3,1,3,1,0,4,2,5,0,250.0,train,0,H-
1152.35209465,1,1000,0,1,3,1,0,4,2,5,0,250.0,train,1,H-
1280.38215637,5,1000,4,1,3,1,0,4,2,5,0,250.0,train,5,H-
1840.43693542,1,1000,0,1,3,1,0,4,2,5,0,250.0,train,1,H-
1344.45381165,2,1000,5,1,3,1,0,4,2,5,0,250.0,train,2,H-
1184.45491791,1,1000,0,1,3,1,0,4,2,5,0,250.0,train,1,H-
1232.3949337,5,1000,4,1,3,1,0,4,2,5,0,250.0,train,5,H-
944.423913956,2,1000,5,1,3,1,0,4,2,5,0,250.0,train,2,H-
1024.28817749,1,1000,0,1,3,1,0,4,2,5,0,250.0,train,1,H-
1072.49689102,0,1000,3,1,3,1,0,4,2,5,0,250.0,train,0,H-
1232.46693611,3,1000,1,0,3,1,0,4,2,5,0,250.0,train,2,H-
1376.2960434,3,1000,1,1,3,1,0,4,2,5,0,250.0,train,3,H-
1232.00798035,1,1000,0,1,3,1,0,4,2,5,0,250.0,train,1,H-
1360.25691032,5,1000,4,1,3,1,0,4,2,5,0,250.0,train,5,H-
928.333044052,0,1000,3,1,3,1,0,4,2,5,0,250.0,train,0,H-
1632.39097595,1,1000,0,1,3,1,0,4,2,5,0,250.0,train,1,H-
2064.26787376,5,1000,4,1,3,1,0,4,2,5,0,250.0,train,5,H-
848.356962204,0,1000,3,1,3,1,0,4,2,5,0,250.0,train,0,H-
1312.46495247,4,1000,2,1,3,1,0,4,2,5,0,250.0,train,4,H-
992.483854294,3,1000,1,1,3,1,0,4,2,5,0,250.0,train,3,H-
1088.48500252,5,1000,4,0,3,1,0,4,2,5,0,250.0,train,1,H-
944.467782974,0,1000,3,1,3,1,0,4,2,5,0,250.0,train,0,H-
1024.39689636,3,1000,1,1,3,1,0,4,2,5,0,250.0,train,3,H-
1712.45002747,5,1000,4,1,3,1,0,4,2,5,0,250.0,train,5,H-
1120.33390999,2,1000,5,1,3,1,0,4,2,5,0,250.0,train,2,H-
864.414930344,1,1000,0,1,3,1,0,4,2,5,0,250.0,train,1,H-
832.383155823,3,1000,1,1,3,1,0,4,2,5,0,250.0,train,3,H-
992.308139801,4,1000,2,1,3,1,0,4,2,5,0,250.0,train,4,H-
752.337932587,3,1000,1,1,3,1,0,4,2,5,0,250.0,train,3,H-
832.355976105,3,1000,1,1,3,1,0,4,2,5,0,250.0,train,3,H-
384.379148483,3,1000,1,1,3,1,0,4,2,5,0,250.0,train,3,H-
847.918987274,0,1000,3,1,3,1,0,4,2,5,0,250.0,train,0,H-
432.341098785,0,1000,3,1,3,1,0,4,2,5,0,250.0,train,0,H-
880.321025848,3,1000,1,1,3,1,0,4,2,5,0,250.0,train,3,H-
512.480974197,3,1000,1,1,3,1,0,4,2,5,0,250.0,train,3,H-
1024.40714836,4,1000,2,1,3,1,0,4,2,5,0,250.0,train,4,H-
912.284851074,0,1000,3,1,3,1,0,4,2,5,0,250.0,train,0,H-
816.373825073,3,1000,1,1,3,1,0,4,2,5,0,250.0,train,3,H-
977.031946182,1,1000,0,1,3,1,0,4,2,5,0,250.0,train,1,H-
1248.18301201,4,1000,2,1,3,1,0,4,2,5,0,250.0,train,4,H-
688.395023346,0,1000,3,1,3,1,0,4,2,5,0,250.0,train,0,H-
1407.84788132,5,1000,4,1,3,1,0,4,2,5,0,250.0,train,5,H-
624.45807457,0,1000,3,1,3,1,0,4,2,5,0,250.0,train,0,H-
1392.19617844,2,1000,5,1,3,1,0,4,2,5,0,250.0,train,2,H-
1728.32083702,5,1000,4,1,3,1,0,4,2,5,0,250.0,train,5,H-
1456.32791519,5,1000,4,1,3,1,0,4,2,5,0,250.0,train,5,H-
592.427015305,2,1000,5,0,3,1,0,4,2,5,0,250.0,train,0,H-
624.366998672,2,1000,5,1,3,1,0,4,2,5,0,250.0,train,2,H-
1152.49490738,4,1000,2,1,3,1,0,4,2,5,0,250.0,train,4,H-
1168.49589348,0,1000,3,1,3,1,0,4,2,5,0,250.0,train,0,H-
1504.31585312,0,1000,3,1,3,1,0,4,2,5,0,250.0,train,0,H-
1504.44197655,5,1000,4,1,3,1,0,4,2,5,0,250.0,train,5,H-
2400.30312538,2,1000,5,1,3,1,0,4,2,5,0,250.0,train,2,H-
1232.37085342,0,1000,3,1,3,1,0,4,2,5,0,250.0,train,0,H-
1296.23389244,4,1000,2,1,3,1,0,4,2,5,0,250.0,train,4,H-
1088.41705322,3,1000,1,1,3,1,0,4,2,5,0,250.0,train,3,H-
1184.34309959,5,1000,4,1,3,1,0,4,2,5,0,250.0,train,5,H-
671.891927719,2,1000,5,0,3,1,0,4,2,5,0,250.0,train,0,H-
2255.85389137,1,1000,0,1,3,1,0,4,2,5,0,250.0,train,1,H-
1008.47792625,3,1000,1,1,3,1,0,4,2,5,0,250.0,train,3,H-
960.469007492,5,1000,4,1,3,1,0,4,2,5,0,250.0,train,5,H-
768.460988998,1,1000,0,1,3,1,0,4,2,5,0,250.0,train,1,H-
640.452861786,0,1000,3,1,3,1,0,4,2,5,0,250.0,train,0,H-
704.336881638,3,1000,1,1,3,1,0,4,2,5,0,250.0,train,3,H-
1680.38702011,1,1000,0,1,3,1,0,4,2,5,0,250.0,train,1,H-
608.267068863,3,1000,1,1,3,1,0,4,2,5,0,250.0,train,3,H-
592.371940613,0,1000,3,1,3,1,0,4,2,5,0,250.0,train,0,H-
1408.00309181,2,1000,5,1,3,1,0,4,2,5,0,250.0,train,2,H-
1040.31085968,4,1000,2,1,3,1,0,4,2,5,0,250.0,train,4,H-
752.461910248,5,1000,4,1,3,1,0,4,2,5,0,250.0,train,5,H-
640.467882156,2,1000,5,0,3,1,0,4,2,5,0,250.0,train,0,H-
1264.26005363,0,1000,3,1,3,1,0,4,2,5,0,250.0,train,0,H-
2304.19206619,0,1000,3,1,3,1,0,4,2,5,0,250.0,train,0,H-
1264.78219032,1,1000,0,1,3,1,0,4,2,5,0,250.0,train,1,H-
1040.45200348,1,1000,0,1,3,1,0,4,2,5,0,250.0,train,1,H-
960.385799408,1,1000,0,1,3,1,0,4,2,5,0,250.0,train,1,H-
1184.44800377,2,1000,5,1,3,1,0,4,2,5,0,250.0,train,2,H-
976.423978806,5,1000,4,1,3,1,0,4,2,5,0,250.0,train,5,H-
736.42206192,4,1000,2,1,3,1,0,4,2,5,0,250.0,train,4,H-
1040.63391685,1,1000,0,1,3,1,0,4,2,5,0,250.0,train,1,H-
544.487953186,0,1000,3,1,3,1,0,4,2,5,0,250.0,train,0,H-
656.380176544,5,1000,4,0,3,1,0,4,2,5,0,250.0,train,1,H-
832.005977631,1,1000,0,1,3,1,0,4,2,5,0,250.0,train,1,H-
656.488180161,1,1000,0,1,3,1,0,4,2,5,0,250.0,train,1,H-
544.43693161,1,1000,0,1,3,1,0,4,2,5,0,250.0,train,1,H-
944.38791275,2,1000,5,1,3,1,0,4,2,5,0,250.0,train,2,H-
816.297054291,5,1000,4,0,3,1,0,4,2,5,0,250.0,train,1,H-
1504.27293777,3,1000,1,1,3,1,0,4,2,5,0,250.0,train,3,H-
640.414953232,3,1000,1,1,3,1,0,4,2,5,0,250.0,train,3,H-
1136.44313812,5,1000,4,1,3,1,0,4,2,5,0,250.0,train,5,H-
976.376056671,3,1000,1,1,3,1,0,4,2,5,0,250.0,train,3,H-
624.228000641,3,1000,1,1,3,1,0,4,2,5,0,250.0,train,3,H-
624.362945557,4,1000,2,1,3,1,0,4,2,5,0,250.0,train,4,H-
656.043052673,0,1000,3,1,3,1,0,4,2,5,0,250.0,train,0,H-
1168.34712029,0,1000,3,1,3,1,0,4,2,5,0,250.0,train,0,H-
416.436910629,0,1000,3,1,3,1,0,4,2,5,0,250.0,train,0,H-
400.416851044,2,1000,5,0,3,1,0,4,2,5,0,250.0,train,0,H-
1216.01104736,5,1000,4,1,3,1,0,4,2,5,0,250.0,train,5,H-
1088.40298653,1,1000,0,1,3,1,0,4,2,5,0,250.0,train,1,H-
704.336881638,4,1000,2,1,3,1,0,4,2,5,0,250.0,train,4,H-
736.298799515,4,1000,2,0,3,1,0,4,2,5,0,250.0,train,5,H-
880.261898041,3,1000,1,1,3,1,0,4,2,5,0,250.0,train,3,H-
528.394937515,4,1000,2,1,3,1,0,4,2,5,0,250.0,train,4,H-
1136.42001152,2,1000,5,1,3,1,0,4,2,5,0,250.0,train,2,H-
672.302961349,0,1000,3,0,3,1,0,4,2,5,0,250.0,train,2,H-
1280.3812027,2,1000,5,1,3,1,0,4,2,5,0,250.0,train,2,H-
816.492080688,2,1000,5,1,3,1,0,4,2,5,0,250.0,train,2,H-
976.392030716,1,1000,0,1,3,1,0,4,2,5,0,250.0,train,1,H-
1024.34110641,3,1000,1,1,3,1,0,4,2,5,0,250.0,train,3,H-
1632.32493401,5,1000,4,1,3,1,0,4,2,5,0,250.0,train,5,H-
640.361070633,4,1000,2,1,3,1,0,4,2,5,0,250.0,train,4,H-
1631.99591637,5,1000,4,1,3,1,0,4,2,5,0,250.0,train,5,H-
976.374864578,1,1000,0,1,3,1,0,4,2,5,0,250.0,train,1,H-
1280.27892113,5,1000,4,1,3,1,0,4,2,5,0,250.0,train,5,H-
1168.405056,2,1000,5,1,3,1,0,4,2,5,0,250.0,train,2,H-
816.081047058,4,1000,2,1,3,1,0,4,2,5,0,250.0,train,4,H-
1424.30710793,5,1000,4,1,3,1,0,4,2,5,0,250.0,train,5,H-
1168.51210594,2,1000,5,1,3,1,0,4,2,5,0,250.0,train,2,H-
704.380989075,1,1000,0,1,3,1,0,4,2,5,0,250.0,train,1,H-
576.350927353,1,1000,0,1,3,1,0,4,2,5,0,250.0,train,1,H-
783.982038498,0,1000,3,1,3,1,0,4,2,5,0,250.0,train,0,H-
784.447908401,4,1000,2,1,3,1,0,4,2,5,0,250.0,train,4,H-
1472.27811813,5,1000,4,1,3,1,0,4,2,5,0,250.0,train,5,H-
912.401199341,4,1000,2,1,3,1,0,4,2,5,0,250.0,train,4,H-
560.367822647,4,1000,2,1,3,1,0,4,2,5,0,250.0,train,4,H-
928.354978561,2,1000,5,1,3,1,0,4,2,5,0,250.0,train,2,H-
800.348997116,4,1000,2,1,3,1,0,4,2,5,0,250.0,train,4,H-
496.23298645,4,1000,2,1,3,1,0,4,2,5,0,250.0,train,4,H-
896.338939667,0,1000,3,1,3,1,0,4,2,5,0,250.0,train,0,H-
528.36894989,2,1000,5,0,3,1,0,4,2,5,0,250.0,train,0,H-
687.904119492,4,1000,2,1,3,1,0,4,2,5,0,250.0,train,4,H-
1216.32099152,5,1000,4,1,3,1,0,4,2,5,0,250.0,train,5,H-
784.338951111,0,1000,3,1,3,1,0,4,2,5,0,250.0,train,0,H-
800.084114075,1,1000,0,1,3,1,0,4,2,5,0,250.0,train,1,H-
1200.39796829,3,1000,1,1,3,1,0,4,2,5,0,250.0,train,3,H-
768.306970596,3,1000,1,1,3,1,0,4,2,5,0,250.0,train,3,H-
768.27788353,0,1000,3,1,3,1,0,4,2,5,0,250.0,train,0,H-
768.172025681,0,1000,3,1,3,1,0,4,2,5,0,250.0,train,0,H-
944.322109222,1,1000,0,1,3,1,0,4,2,5,0,250.0,train,1,H-
704.556941986,5,1000,4,0,3,1,0,4,2,5,0,250.0,train,1,H-
704.030036926,5,1000,4,1,3,1,0,4,2,5,0,250.0,train,5,H-
672.255039215,3,1000,1,0,3,1,0,4,2,5,0,250.0,train,4,H-
912.493944168,4,1000,2,1,3,1,0,4,2,5,0,250.0,train,4,H-
1104.25305367,1,1000,0,1,3,1,0,4,2,5,0,250.0,train,1,H-
592.419862747,1,1000,0,1,3,1,0,4,2,5,0,250.0,train,1,H-
896.40879631,1,1000,0,1,3,1,0,4,2,5,0,250.0,train,1,H-
912.133932114,4,1000,2,1,3,1,0,4,2,5,0,250.0,train,4,H-
752.388000488,0,1000,3,1,3,1,0,4,2,5,0,250.0,train,0,H-
624.43113327,0,1000,3,1,3,1,0,4,2,5,0,250.0,train,0,H-
928.431987762,5,1000,4,1,3,1,0,4,2,5,0,250.0,train,5,H-
1216.37988091,2,1000,5,1,3,1,0,4,2,5,0,250.0,train,2,H-
1216.35890007,5,1000,4,1,3,1,0,4,2,5,0,250.0,train,5,H-
1024.46293831,2,1000,5,1,3,1,0,4,2,5,0,250.0,train,2,H-
976.501941681,1,1000,0,1,3,1,0,4,2,5,0,250.0,train,1,H-
656.100988388,4,1000,2,1,3,1,0,4,2,5,0,250.0,train,4,H-
960.386037827,3,1000,1,1,3,1,0,4,2,5,0,250.0,train,3,H-
1056.53500557,5,1000,4,1,3,1,0,4,2,5,0,250.0,train,5,H-
672.3279953,4,1000,2,1,3,1,0,4,2,5,0,250.0,train,4,H-
1216.22514725,2,1000,5,1,3,1,0,4,2,5,0,250.0,train,2,H-
960.17408371,1,1000,0,1,3,1,0,4,2,5,0,250.0,train,1,H-
816.284894943,2,1000,5,1,3,1,0,4,2,5,0,250.0,train,2,H-
1263.69404793,2,1000,5,1,3,1,0,4,2,5,0,250.0,train,2,H-
1168.12419891,1,1000,0,1,3,1,0,4,2,5,0,250.0,train,1,H-
784.960985184,0,1000,3,1,3,1,0,4,2,5,0,250.0,train,0,H-
576.292991638,0,1000,3,1,3,1,0,4,2,5,0,250.0,train,0,H-
1264.99891281,1,1000,0,1,3,1,0,4,2,5,0,250.0,train,1,H-
896.337985992,5,1000,4,1,3,1,0,4,2,5,0,250.0,train,5,H-
752.946138382,2,1000,5,1,3,1,0,4,2,5,0,250.0,train,2,H-
912.336111069,0,1000,3,1,3,1,0,4,2,5,0,250.0,train,0,H-
1456.25209808,1,1000,0,1,3,1,0,4,2,5,0,250.0,train,1,H-
2272.70293236,2,1000,5,1,3,1,0,4,2,5,0,250.0,train,2,H-
1488.2619381,3,1000,1,1,3,1,0,4,2,5,0,250.0,train,3,H-
1344.21086311,5,1000,4,1,3,1,0,4,2,5,0,250.0,train,5,H-
1024.54900742,5,1000,4,1,3,1,0,4,2,5,0,250.0,train,5,H-
992.35200882,0,1000,3,1,3,1,0,4,2,5,0,250.0,train,0,H-
1120.4059124,5,1000,4,1,3,1,0,4,2,5,0,250.0,train,5,H-
1152.55308151,1,1000,0,1,3,1,0,4,2,5,0,250.0,train,1,H-
880.294799805,3,1000,1,1,3,1,0,4,2,5,0,250.0,train,3,H-
544.267892838,3,1000,1,1,3,1,0,4,2,5,0,250.0,train,3,H-
879.966974258,0,1000,3,1,3,1,0,4,2,5,0,250.0,train,0,H-
784.265995026,5,1000,4,1,3,1,0,4,2,5,0,250.0,train,5,H-
688.22312355,2,1000,5,1,3,1,0,4,2,5,0,250.0,train,2,H-
992.326021194,5,1000,4,1,3,1,0,4,2,5,0,250.0,train,5,H-
1120.45407295,0,1000,3,1,3,1,0,4,2,5,0,250.0,train,0,H-
575.901985168,0,1000,3,1,3,1,0,4,2,5,0,250.0,train,0,H-
1328.4368515,3,1000,1,0,3,1,0,4,2,5,0,250.0,train,4,H-
608.340978622,3,1000,1,1,3,1,0,4,2,5,0,250.0,train,3,H-
720.185995102,0,1000,3,1,3,1,0,4,2,5,0,250.0,train,0,H-
816.406965256,5,1000,4,1,3,1,0,4,2,5,0,250.0,train,5,H-
1248.32892418,2,1000,5,1,3,1,0,4,2,5,0,250.0,train,2,H-
1072.39603996,0,1000,3,1,3,1,0,4,2,5,0,250.0,train,0,H-
1168.38788986,4,1000,2,1,3,1,0,4,2,5,0,250.0,train,4,H-
624.281167984,4,1000,2,1,3,1,0,4,2,5,0,250.0,train,4,H-
768.451929092,0,1000,3,1,3,1,0,4,2,5,0,250.0,train,0,H-
1056.38384819,2,1000,5,1,3,1,0,4,2,5,0,250.0,train,2,H-
928.48610878,2,1000,5,1,3,1,0,4,2,5,0,250.0,train,2,H-
1344.29383278,5,1000,4,1,3,1,0,4,2,5,0,250.0,train,5,H-
688.464164734,5,1000,4,1,3,1,0,4,2,5,0,250.0,train,5,H-
656.508207321,4,1000,2,1,3,1,0,4,2,5,0,250.0,train,4,H-
1056.50901794,0,1000,3,1,3,1,0,4,2,5,0,250.0,train,0,H-
784.183979034,1,1000,0,1,3,1,0,4,2,5,0,250.0,train,1,H-
800.303936005,3,1000,1,0,3,1,0,4,2,5,0,250.0,train,4,H-
672.451019287,4,1000,2,1,3,1,0,4,2,5,0,250.0,train,4,H-
1936.53798103,1,1000,0,1,3,1,0,4,2,5,0,250.0,train,1,H-
1264.29700851,2,1000,5,1,3,1,0,4,2,5,0,250.0,train,2,H-
1136.52801514,1,1000,0,1,3,1,0,4,2,5,0,250.0,train,1,H-
1088.29307556,0,1000,3,1,3,1,0,4,2,5,0,250.0,train,0,H-
672.404050827,0,1000,3,1,3,1,0,4,2,5,0,250.0,train,0,H-
592.381000519,1,1000,0,1,3,1,0,4,2,5,0,250.0,train,1,H-
848.390102386,5,1000,4,1,3,1,0,4,2,5,0,250.0,train,5,H-
768.285989761,3,1000,1,1,3,1,0,4,2,5,0,250.0,train,3,H-
384.289979935,4,1000,2,1,3,1,0,4,2,5,0,250.0,train,4,H-
576.390981674,3,1000,1,0,3,1,0,4,2,5,0,250.0,train,4,H-
688.34900856,5,1000,4,1,3,1,0,4,2,5,0,250.0,train,5,H-
432.343006134,3,1000,1,1,3,1,0,4,2,5,0,250.0,train,3,H-
1056.47706985,2,1000,5,1,3,1,0,4,2,5,0,250.0,train,2,H-
2176.20682716,4,1000,0,1,3,4,1,0,2,5,0,250.0,test,4,H-
928.21097374,5,1000,4,1,3,4,1,0,2,5,0,250.0,test,5,H-
816.390037537,4,1000,0,1,3,4,1,0,2,5,0,250.0,test,4,H-
1024.51992035,4,1000,0,1,3,4,1,0,2,5,0,250.0,test,4,H-
960.551023483,4,1000,0,1,3,4,1,0,2,5,0,250.0,test,4,H-
1328.37414742,1,1000,3,1,3,4,1,0,2,5,0,250.0,test,1,H-
432.397842407,1,1000,3,1,3,4,1,0,2,5,0,250.0,test,1,H-
896.003007889,5,1000,4,1,3,4,1,0,2,5,0,250.0,test,5,H-
1535.76612473,4,1000,0,1,3,4,1,0,2,5,0,250.0,test,4,H-
1056.54287338,1,1000,3,1,3,4,1,0,2,5,0,250.0,test,1,H-
848.36602211,2,1000,5,1,3,4,1,0,2,5,0,250.0,test,2,H-
608.353853226,2,1000,5,1,3,4,1,0,2,5,0,250.0,test,2,H-
672.837972641,4,1000,0,1,3,4,1,0,2,5,0,250.0,test,4,H-
832.404136658,2,1000,5,1,3,4,1,0,2,5,0,250.0,test,2,H-
864.531993866,3,1000,1,1,3,4,1,0,2,5,0,250.0,test,3,H-
656.466007233,2,1000,5,1,3,4,1,0,2,5,0,250.0,test,2,H-
752.446174622,5,1000,4,1,3,4,1,0,2,5,0,250.0,test,5,H-
624.383926392,2,1000,5,1,3,4,1,0,2,5,0,250.0,test,2,H-
496.345043182,1,1000,3,1,3,4,1,0,2,5,0,250.0,test,1,H-
816.527843475,1,1000,3,1,3,4,1,0,2,5,0,250.0,test,1,H-
1312.39676476,4,1000,0,1,3,4,1,0,2,5,0,250.0,test,4,H-
640.384912491,5,1000,4,1,3,4,1,0,2,5,0,250.0,test,5,H-
863.877058029,2,1000,5,1,3,4,1,0,2,5,0,250.0,test,2,H-
1360.15796661,2,1000,5,0,3,4,1,0,2,5,0,250.0,test,1,H-
976.287126541,4,1000,0,1,3,4,1,0,2,5,0,250.0,test,4,H-
1424.15618896,4,1000,0,1,3,4,1,0,2,5,0,250.0,test,4,H-
1296.73504829,2,1000,5,1,3,4,1,0,2,5,0,250.0,test,2,H-
1680.12309074,0,1000,2,1,3,4,1,0,2,5,0,250.0,test,0,H-
1232.09500313,5,1000,4,1,3,4,1,0,2,5,0,250.0,test,5,H-
704.007148743,3,1000,1,1,3,4,1,0,2,5,0,250.0,test,3,H-
1696.20704651,5,1000,4,1,3,4,1,0,2,5,0,250.0,test,5,H-
944.376945496,1,1000,3,1,3,4,1,0,2,5,0,250.0,test,1,H-
1167.6530838,5,1000,4,1,3,4,1,0,2,5,0,250.0,test,5,H-
576.292037964,5,1000,4,0,3,4,1,0,2,5,0,250.0,test,4,H-
832.322120667,0,1000,2,0,3,4,1,0,2,5,0,250.0,test,3,H-
2368.20697784,4,1000,0,1,3,4,1,0,2,5,0,250.0,test,4,H-
831.884860992,1,1000,3,1,3,4,1,0,2,5,0,250.0,test,1,H-
1072.30114937,4,1000,0,1,3,4,1,0,2,5,0,250.0,test,4,H-
528.304100037,4,1000,0,1,3,4,1,0,2,5,0,250.0,test,4,H-
848.190069199,5,1000,4,1,3,4,1,0,2,5,0,250.0,test,5,H-
799.669027328,1,1000,3,1,3,4,1,0,2,5,0,250.0,test,1,H-
1184.15379524,5,1000,4,1,3,4,1,0,2,5,0,250.0,test,5,H-
768.136024475,3,1000,1,1,3,4,1,0,2,5,0,250.0,test,3,H-
1025.05302429,4,1000,0,1,3,4,1,0,2,5,0,250.0,test,4,H-
688.308954239,1,1000,3,1,3,4,1,0,2,5,0,250.0,test,1,H-
1040.00020027,2,1000,5,1,3,4,1,0,2,5,0,250.0,test,2,H-
1232.23900795,5,1000,4,1,3,4,1,0,2,5,0,250.0,test,5,H-
672.240018845,3,1000,1,1,3,4,1,0,2,5,0,250.0,test,3,H-
672.204971313,3,1000,1,1,3,4,1,0,2,5,0,250.0,test,3,H-
912.309169769,1,1000,3,1,3,4,1,0,2,5,0,250.0,test,1,H-
1280.00712395,5,1000,4,1,3,4,1,0,2,5,0,250.0,test,5,H-
768.360853195,2,1000,5,0,3,4,1,0,2,5,0,250.0,test,1,H-
1135.9641552,4,1000,0,1,3,4,1,0,2,5,0,250.0,test,4,H-
688.868999481,4,1000,0,1,3,4,1,0,2,5,0,250.0,test,4,H-
640.076160431,3,1000,1,1,3,4,1,0,2,5,0,250.0,test,3,H-
688.807010651,2,1000,5,1,3,4,1,0,2,5,0,250.0,test,2,H-
1104.44498062,1,1000,3,1,3,4,1,0,2,5,0,250.0,test,1,H-
1408.27989578,5,1000,4,1,3,4,1,0,2,5,0,250.0,test,5,H-
992.344141006,1,1000,3,1,3,4,1,0,2,5,0,250.0,test,1,H-
736.831903458,3,1000,1,1,3,4,1,0,2,5,0,250.0,test,3,H-
848.356962204,2,1000,5,1,3,4,1,0,2,5,0,250.0,test,2,H-
817.028045654,2,1000,5,1,3,4,1,0,2,5,0,250.0,test,2,H-
1232.23400116,5,1000,4,1,3,4,1,0,2,5,0,250.0,test,5,H-
1008.31604004,0,1000,2,1,3,4,1,0,2,5,0,250.0,test,0,H-
1536.09395027,4,1000,0,0,3,4,1,0,2,5,0,250.0,test,3,H-
928.2579422,3,1000,1,1,3,4,1,0,2,5,0,250.0,test,3,H-
719.99502182,2,1000,5,1,3,4,1,0,2,5,0,250.0,test,2,H-
1152.39191055,0,1000,2,1,3,4,1,0,2,5,0,250.0,test,0,H-
944.459915161,2,1000,5,1,3,4,1,0,2,5,0,250.0,test,2,H-
1024.41501617,1,1000,3,1,3,4,1,0,2,5,0,250.0,test,1,H-
1040.24505615,4,1000,0,1,3,4,1,0,2,5,0,250.0,test,4,H-
736.850976944,3,1000,1,1,3,4,1,0,2,5,0,250.0,test,3,H-
1392.14491844,0,1000,2,1,3,4,1,0,2,5,0,250.0,test,0,H-
944.437980652,3,1000,1,1,3,4,1,0,2,5,0,250.0,test,3,H-
1071.86198235,4,1000,0,1,3,4,1,0,2,5,0,250.0,test,4,H-
992.099046707,4,1000,0,1,3,4,1,0,2,5,0,250.0,test,4,H-
1008.21995735,4,1000,0,1,3,4,1,0,2,5,0,250.0,test,4,H-
1328.28998566,1,1000,3,1,3,4,1,0,2,5,0,250.0,test,1,H-
975.65984726,3,1000,1,1,3,4,1,0,2,5,0,250.0,test,3,H-
768.844842911,4,1000,0,1,3,4,1,0,2,5,0,250.0,test,4,H-
1040.73286057,1,1000,3,1,3,4,1,0,2,5,0,250.0,test,1,H-
847.877025604,5,1000,4,1,3,4,1,0,2,5,0,250.0,test,5,H-
992.012023926,2,1000,5,1,3,4,1,0,2,5,0,250.0,test,2,H-
912.222146988,5,1000,4,0,3,4,1,0,2,5,0,250.0,test,4,H-
1103.98483276,0,1000,2,1,3,4,1,0,2,5,0,250.0,test,0,H-
1552.03199387,4,1000,0,1,3,4,1,0,2,5,0,250.0,test,4,H-
832.061767578,0,1000,2,0,3,4,1,0,2,5,0,250.0,test,3,H-
1360.09812355,5,1000,4,1,3,4,1,0,2,5,0,250.0,test,5,H-
832.260847092,2,1000,5,1,3,4,1,0,2,5,0,250.0,test,2,H-
944.373130798,4,1000,0,1,3,4,1,0,2,5,0,250.0,test,4,H-
976.689815521,5,1000,4,1,3,4,1,0,2,5,0,250.0,test,5,H-
848.453998566,4,1000,0,1,3,4,1,0,2,5,0,250.0,test,4,H-
848.481893539,1,1000,3,1,3,4,1,0,2,5,0,250.0,test,1,H-
1472.14889526,5,1000,4,1,3,4,1,0,2,5,0,250.0,test,5,H-
992.177009583,4,1000,0,1,3,4,1,0,2,5,0,250.0,test,4,H-
1600.1560688,0,1000,2,1,3,4,1,0,2,5,0,250.0,test,0,H-
1280.15804291,4,1000,0,1,3,4,1,0,2,5,0,250.0,test,4,H-
1008.19897652,1,1000,3,1,3,4,1,0,2,5,0,250.0,test,1,H-
1152.41193771,4,1000,0,1,3,4,1,0,2,5,0,250.0,test,4,H-
960.850000381,3,1000,1,1,3,4,1,0,2,5,0,250.0,test,3,H-
687.946796417,1,1000,3,1,3,4,1,0,2,5,0,250.0,test,1,H-
1536.39006615,5,1000,4,1,3,4,1,0,2,5,0,250.0,test,5,H-
1040.4009819,4,1000,0,1,3,4,1,0,2,5,0,250.0,test,4,H-
976.176023483,4,1000,0,1,3,4,1,0,2,5,0,250.0,test,4,H-
1440.13905525,2,1000,5,1,3,4,1,0,2,5,0,250.0,test,2,H-
1168.0700779,2,1000,5,1,3,4,1,0,2,5,0,250.0,test,2,H-
848.933935165,3,1000,1,1,3,4,1,0,2,5,0,250.0,test,3,H-
560.894966125,3,1000,1,1,3,4,1,0,2,5,0,250.0,test,3,H-
976.943969727,4,1000,0,1,3,4,1,0,2,5,0,250.0,test,4,H-
976.415872574,2,1000,5,1,3,4,1,0,2,5,0,250.0,test,2,H-
1136.20209694,4,1000,0,1,3,4,1,0,2,5,0,250.0,test,4,H-
832.233905792,1,1000,3,1,3,4,1,0,2,5,0,250.0,test,1,H-
703.533172607,0,1000,2,0,3,4,1,0,2,5,0,250.0,test,3,H-
608.077049255,3,1000,1,1,3,4,1,0,2,5,0,250.0,test,3,H-
592.873096466,3,1000,1,1,3,4,1,0,2,5,0,250.0,test,3,H-
448.482036591,3,1000,1,1,3,4,1,0,2,5,0,250.0,test,3,H-
816.150903702,5,1000,4,1,3,4,1,0,2,5,0,250.0,test,5,H-
672.202110291,1,1000,3,1,3,4,1,0,2,5,0,250.0,test,1,H-
704.79798317,3,1000,1,1,3,4,1,0,2,5,0,250.0,test,3,H-
848.252058029,2,1000,5,1,3,4,1,0,2,5,0,250.0,test,2,H-
960.211992264,1,1000,3,1,3,4,1,0,2,5,0,250.0,test,1,H-
864.369153976,5,1000,4,0,3,4,1,0,2,5,0,250.0,test,4,H-
944.911003113,0,1000,2,1,3,4,1,0,2,5,0,250.0,test,0,H-
576.109886169,3,1000,1,1,3,4,1,0,2,5,0,250.0,test,3,H-
944.280862808,4,1000,0,1,3,4,1,0,2,5,0,250.0,test,4,H-
1008.80289078,2,1000,5,1,3,4,1,0,2,5,0,250.0,test,2,H-
608.359098434,2,1000,5,1,3,4,1,0,2,5,0,250.0,test,2,H-
1376.31201744,5,1000,4,1,3,4,1,0,2,5,0,250.0,test,5,H-
479.89988327,5,1000,4,1,3,4,1,0,2,5,0,250.0,test,5,H-
784.955978394,2,1000,5,1,3,4,1,0,2,5,0,250.0,test,2,H-
816.01190567,2,1000,5,1,3,4,1,0,2,5,0,250.0,test,2,H-
945.004940033,4,1000,0,0,3,4,1,0,2,5,0,250.0,test,1,H-
992.438077927,0,1000,2,1,3,4,1,0,2,5,0,250.0,test,0,H-
960.473060608,4,1000,0,1,3,4,1,0,2,5,0,250.0,test,4,H-
1024.08409119,0,1000,2,1,3,4,1,0,2,5,0,250.0,test,0,H-
848.742008209,0,1000,2,1,3,4,1,0,2,5,0,250.0,test,0,H-
1279.99806404,5,1000,4,1,3,4,1,0,2,5,0,250.0,test,5,H-
1184.6408844,1,1000,3,1,3,4,1,0,2,5,0,250.0,test,1,H-
1120.37491798,4,1000,0,1,3,4,1,0,2,5,0,250.0,test,4,H-
1344.43616867,2,1000,5,1,3,4,1,0,2,5,0,250.0,test,2,H-
1408.18595886,0,1000,2,1,3,4,1,0,2,5,0,250.0,test,0,H-
1216.79091454,4,1000,0,1,3,4,1,0,2,5,0,250.0,test,4,H-
1008.39996338,4,1000,0,1,3,4,1,0,2,5,0,250.0,test,4,H-
1168.13993454,1,1000,3,0,3,4,1,0,2,5,0,250.0,test,2,H-
832.085847855,3,1000,1,1,3,4,1,0,2,5,0,250.0,test,3,H-
1264.84417915,2,1000,5,1,3,4,1,0,2,5,0,250.0,test,2,H-
816.396951675,1,1000,3,1,3,4,1,0,2,5,0,250.0,test,1,H-
832.948923111,3,1000,1,1,3,4,1,0,2,5,0,250.0,test,3,H-
1679.64196205,5,1000,4,1,3,4,1,0,2,5,0,250.0,test,5,H-
864.823102951,4,1000,0,1,3,4,1,0,2,5,0,250.0,test,4,H-
1184.75580215,1,1000,3,1,3,4,1,0,2,5,0,250.0,test,1,H-
976.351976395,4,1000,0,1,3,4,1,0,2,5,0,250.0,test,4,H-
800.928115845,1,1000,3,1,3,4,1,0,2,5,0,250.0,test,1,H-
544.888019562,1,1000,3,1,3,4,1,0,2,5,0,250.0,test,1,H-
688.009023666,4,1000,0,1,3,4,1,0,2,5,0,250.0,test,4,H-
1360.79311371,1,1000,3,1,3,4,1,0,2,5,0,250.0,test,1,H-
879.779100418,3,1000,1,1,3,4,1,0,2,5,0,250.0,test,3,H-
992.868900299,2,1000,5,1,3,4,1,0,2,5,0,250.0,test,2,H-
608.021020889,3,1000,1,1,3,4,1,0,2,5,0,250.0,test,3,H-
737.056016922,1,1000,3,1,3,4,1,0,2,5,0,250.0,test,1,H-
1008.29386711,4,1000,0,1,3,4,1,0,2,5,0,250.0,test,4,H-
656.856060028,1,1000,3,1,3,4,1,0,2,5,0,250.0,test,1,H-
879.666090012,4,1000,0,1,3,4,1,0,2,5,0,250.0,test,4,H-
1136.70492172,0,1000,2,1,3,4,1,0,2,5,0,250.0,test,0,H-
992.923974991,0,1000,2,1,3,4,1,0,2,5,0,250.0,test,0,H-
912.440061569,2,1000,5,1,3,4,1,0,2,5,0,250.0,test,2,H-
880.882978439,1,1000,3,1,3,4,1,0,2,5,0,250.0,test,1,H-
720.941066742,2,1000,5,1,3,4,1,0,2,5,0,250.0,test,2,H-
1041.00298882,5,1000,4,1,3,4,1,0,2,5,0,250.0,test,5,H-
959.968805313,3,1000,1,1,3,4,1,0,2,5,0,250.0,test,3,H-
1568.40705872,0,1000,2,1,3,4,1,0,2,5,0,250.0,test,0,H-
944.374084473,2,1000,5,1,3,4,1,0,2,5,0,250.0,test,2,H-
623.933076859,0,1000,2,0,3,4,1,0,2,5,0,250.0,test,3,H-
768.37182045,4,1000,0,1,3,4,1,0,2,5,0,250.0,test,4,H-
656.363010406,3,1000,1,1,3,4,1,0,2,5,0,250.0,test,3,H-
768.301010132,2,1000,5,1,3,4,1,0,2,5,0,250.0,test,2,H-
2063.81702423,0,1000,2,1,3,4,1,0,2,5,0,250.0,test,0,H-
704.820871353,5,1000,4,0,3,4,1,0,2,5,0,250.0,test,4,H-
800.374984741,3,1000,1,1,3,4,1,0,2,5,0,250.0,test,3,H-
1024.31821823,5,1000,4,1,3,4,1,0,2,5,0,250.0,test,5,H-
704.461097717,3,1000,1,1,3,4,1,0,2,5,0,250.0,test,3,H-
992.486953735,5,1000,4,1,3,4,1,0,2,5,0,250.0,test,5,H-
912.894964218,4,1000,0,1,3,4,1,0,2,5,0,250.0,test,4,H-
688.763141632,4,1000,0,1,3,4,1,0,2,5,0,250.0,test,4,H-
1312.78300285,2,1000,5,1,3,4,1,0,2,5,0,250.0,test,2,H-
656.884908676,2,1000,5,1,3,4,1,0,2,5,0,250.0,test,2,H-
431.950092316,2,1000,5,1,3,4,1,0,2,5,0,250.0,test,2,H-
976.998090744,4,1000,0,1,3,4,1,0,2,5,0,250.0,test,4,H-
624.863147736,2,1000,5,1,3,4,1,0,2,5,0,250.0,test,2,H-
496.876955032,2,1000,5,1,3,4,1,0,2,5,0,250.0,test,2,H-
848.924875259,5,1000,4,1,3,4,1,0,2,5,0,250.0,test,5,H-
576.174974442,2,1000,5,1,3,4,1,0,2,5,0,250.0,test,2,H-
384.881019592,5,1000,4,1,3,4,1,0,2,5,0,250.0,test,5,H-
1104.13789749,0,1000,2,1,3,4,1,0,2,5,0,250.0,test,0,H-
1072.95894623,4,1000,0,1,3,4,1,0,2,5,0,250.0,test,4,H-
944.527864456,0,1000,2,1,3,4,1,0,2,5,0,250.0,test,0,H-
784.332036972,1,1000,3,1,3,4,1,0,2,5,0,250.0,test,1,H-
880.165100098,4,1000,0,1,3,4,1,0,2,5,0,250.0,test,4,H-
656.966924667,3,1000,1,1,3,4,1,0,2,5,0,250.0,test,3,H-
913.092136383,0,1000,2,1,3,4,1,0,2,5,0,250.0,test,0,H-
1216.41421318,4,1000,0,1,3,4,1,0,2,5,0,250.0,test,4,H-
992.444038391,5,1000,4,1,3,4,1,0,2,5,0,250.0,test,5,H-
1200.06203651,2,1000,5,1,3,4,1,0,2,5,0,250.0,test,2,H-
864.387989044,0,1000,2,1,3,4,1,0,2,5,0,250.0,test,0,H-
1088.21606636,5,1000,4,1,3,4,1,0,2,5,0,250.0,test,5,H-
768.42713356,3,1000,1,1,3,4,1,0,2,5,0,250.0,test,3,H-
1119.91906166,5,1000,4,1,3,4,1,0,2,5,0,250.0,test,5,H-
2224.34782982,2,1000,5,1,3,4,1,0,2,5,0,250.0,test,2,H-
1248.77405167,2,1000,5,0,3,4,1,0,2,5,0,250.0,test,1,H-
848.181009293,5,1000,4,1,3,4,1,0,2,5,0,250.0,test,5,H-
1376.25598907,4,1000,0,1,3,4,1,0,2,5,0,250.0,test,4,H-
656.017065048,3,1000,1,1,3,4,1,0,2,5,0,250.0,test,3,H-
912.437915802,0,1000,2,1,3,4,1,0,2,5,0,250.0,test,0,H-
800.038814545,4,1000,0,1,3,4,1,0,2,5,0,250.0,test,4,H-
624.951124191,3,1000,1,1,3,4,1,0,2,5,0,250.0,test,3,H-
816.236972809,5,1000,4,1,3,4,1,0,2,5,0,250.0,test,5,H-
943.969964981,0,1000,2,1,3,4,1,0,2,5,0,250.0,test,0,H-
575.979948044,2,1000,5,1,3,4,1,0,2,5,0,250.0,test,2,H-
751.648902893,0,1000,2,0,3,4,1,0,2,5,0,250.0,test,3,H-
1680.77588081,5,1000,4,1,3,4,1,0,2,5,0,250.0,test,5,H-
1056.80203438,1,1000,3,1,3,4,1,0,2,5,0,250.0,test,1,H-
1024.82104301,5,1000,4,1,3,4,1,0,2,5,0,250.0,test,5,H-
800.034999847,4,1000,0,1,3,4,1,0,2,5,0,250.0,test,4,H-
1119.88902092,4,1000,0,1,3,4,1,0,2,5,0,250.0,test,4,H-
944.986104965,1,1000,3,1,3,4,1,0,2,5,0,250.0,test,1,H-
848.91295433,1,1000,3,1,3,4,1,0,2,5,0,250.0,test,1,H-
880.969047546,0,1000,2,1,3,4,1,0,2,5,0,250.0,test,0,H-
1056.52499199,0,1000,2,1,3,4,1,0,2,5,0,250.0,test,0,H-
751.905202866,3,1000,1,1,3,4,1,0,2,5,0,250.0,test,3,H-
1472.36990929,5,1000,4,1,3,4,1,0,2,5,0,250.0,test,5,H-
752.945899963,1,1000,3,1,3,4,1,0,2,5,0,250.0,test,1,H-
768.400192261,1,1000,3,1,3,4,1,0,2,5,0,250.0,test,1,H-
928.833007812,0,1000,2,1,3,4,1,0,2,5,0,250.0,test,0,H-
687.564134598,2,1000,5,1,3,4,1,0,2,5,0,250.0,test,2,H-
896.660089493,1,1000,3,1,3,4,1,0,2,5,0,250.0,test,1,H-
897.025108337,2,1000,5,1,3,4,1,0,2,5,0,250.0,test,2,H-
704.926967621,2,1000,5,1,3,4,1,0,2,5,0,250.0,test,2,H-
1008.49413872,4,1000,0,1,3,4,1,0,2,5,0,250.0,test,4,H-
832.38697052,2,1000,5,1,3,4,1,0,2,5,0,250.0,test,2,H-
464.486837387,2,1000,5,1,3,4,1,0,2,5,0,250.0,test,2,H-
785.045862198,0,1000,2,1,3,4,1,0,2,5,0,250.0,test,0,H-
1072.37291336,0,1000,2,1,3,4,1,0,2,5,0,250.0,test,0,H-
655.86400032,3,1000,1,1,3,4,1,0,2,5,0,250.0,test,3,H-
1328.21297646,5,1000,4,1,3,4,1,0,2,5,0,250.0,test,5,H-
1247.95722961,0,1000,2,1,3,4,1,0,2,5,0,250.0,test,0,H-
688.349962234,2,1000,5,1,3,4,1,0,2,5,0,250.0,test,2,H-
799.850940704,1,1000,3,1,3,4,1,0,2,5,0,250.0,test,1,H-
768.90206337,0,1000,2,1,3,4,1,0,2,5,0,250.0,test,0,H-
752.948999405,2,1000,5,1,3,4,1,0,2,5,0,250.0,test,2,H-
672.878980637,2,1000,5,1,3,4,1,0,2,5,0,250.0,test,2,H-
