RT,correct_response,ms-prestimblank,curstim,correct,SRmap_1,SRmap_0,SRmap_3,SRmap_2,SRmap_5,SRmap_4,ms-precue,ntrials,type,response,condition
1883.25381279,2,1000,3,1,4,5,2,0,1,3,0,250.0,train,2,M
922.347068787,5,1000,0,1,4,5,2,0,1,3,0,250.0,train,5,M
778.380155563,2,1000,3,1,4,5,2,0,1,3,0,250.0,train,2,M
714.465856552,1,1000,5,1,4,5,2,0,1,3,0,250.0,train,1,M
522.485017776,1,1000,5,1,4,5,2,0,1,3,0,250.0,train,1,M
554.523229599,5,1000,0,1,4,5,2,0,1,3,0,250.0,train,5,M
634.413957596,4,1000,1,1,4,5,2,0,1,3,0,250.0,train,4,M
474.488019943,0,1000,2,1,4,5,2,0,1,3,0,250.0,train,0,M
410.574913025,1,1000,5,1,4,5,2,0,1,3,0,250.0,train,1,M
426.451921463,1,1000,5,1,4,5,2,0,1,3,0,250.0,train,1,M
442.28386879,1,1000,5,1,4,5,2,0,1,3,0,250.0,train,1,M
539.858102798,3,1000,4,1,4,5,2,0,1,3,0,250.0,train,3,M
363.960981369,4,1000,1,1,4,5,2,0,1,3,0,250.0,train,4,M
587.94593811,2,1000,3,0,4,5,2,0,1,3,0,250.0,train,1,M
794.917106628,4,1000,1,1,4,5,2,0,1,3,0,250.0,train,4,M
682.482004166,3,1000,4,0,4,5,2,0,1,3,0,250.0,train,2,M
539.839029312,4,1000,1,1,4,5,2,0,1,3,0,250.0,train,4,M
730.550050735,1,1000,5,1,4,5,2,0,1,3,0,250.0,train,1,M
426.501989365,0,1000,2,1,4,5,2,0,1,3,0,250.0,train,0,M
459.845066071,0,1000,2,1,4,5,2,0,1,3,0,250.0,train,0,M
890.442848206,4,1000,1,1,4,5,2,0,1,3,0,250.0,train,4,M
426.338911057,4,1000,1,1,4,5,2,0,1,3,0,250.0,train,4,M
555.043935776,1,1000,5,1,4,5,2,0,1,3,0,250.0,train,1,M
778.488874435,3,1000,4,1,4,5,2,0,1,3,0,250.0,train,3,M
603.840827942,4,1000,1,1,4,5,2,0,1,3,0,250.0,train,4,M
650.443792343,3,1000,4,1,4,5,2,0,1,3,0,250.0,train,3,M
538.593053818,5,1000,0,1,4,5,2,0,1,3,0,250.0,train,5,M
521.372079849,3,1000,4,1,4,5,2,0,1,3,0,250.0,train,3,M
394.561052322,2,1000,3,1,4,5,2,0,1,3,0,250.0,train,2,M
554.587841034,1,1000,5,1,4,5,2,0,1,3,0,250.0,train,1,M
699.093818665,4,1000,1,1,4,5,2,0,1,3,0,250.0,train,4,M
666.514158249,3,1000,4,1,4,5,2,0,1,3,0,250.0,train,3,M
682.621002197,5,1000,0,1,4,5,2,0,1,3,0,250.0,train,5,M
458.557128906,4,1000,1,1,4,5,2,0,1,3,0,250.0,train,4,M
554.571151733,0,1000,2,1,4,5,2,0,1,3,0,250.0,train,0,M
618.526935577,3,1000,4,1,4,5,2,0,1,3,0,250.0,train,3,M
426.581859589,3,1000,4,1,4,5,2,0,1,3,0,250.0,train,3,M
426.446199417,3,1000,4,1,4,5,2,0,1,3,0,250.0,train,3,M
380.006074905,4,1000,1,1,4,5,2,0,1,3,0,250.0,train,4,M
538.461923599,1,1000,5,1,4,5,2,0,1,3,0,250.0,train,1,M
523.973941803,4,1000,1,0,4,5,2,0,1,3,0,250.0,train,5,M
587.954998016,5,1000,0,1,4,5,2,0,1,3,0,250.0,train,5,M
506.494045258,5,1000,0,1,4,5,2,0,1,3,0,250.0,train,5,M
426.445960999,4,1000,1,1,4,5,2,0,1,3,0,250.0,train,4,M
682.886123657,2,1000,3,1,4,5,2,0,1,3,0,250.0,train,2,M
298.372983932,2,1000,3,1,4,5,2,0,1,3,0,250.0,train,2,M
506.324052811,2,1000,3,1,4,5,2,0,1,3,0,250.0,train,2,M
474.375009537,3,1000,4,1,4,5,2,0,1,3,0,250.0,train,3,M
346.366882324,4,1000,1,1,4,5,2,0,1,3,0,250.0,train,4,M
746.566057205,3,1000,4,1,4,5,2,0,1,3,0,250.0,train,3,M
490.360975266,2,1000,3,0,4,5,2,0,1,3,0,250.0,train,3,M
583.213090897,4,1000,1,1,4,5,2,0,1,3,0,250.0,train,4,M
746.391057968,1,1000,5,1,4,5,2,0,1,3,0,250.0,train,1,M
475.838899612,1,1000,5,1,4,5,2,0,1,3,0,250.0,train,1,M
538.470029831,0,1000,2,1,4,5,2,0,1,3,0,250.0,train,0,M
650.546789169,5,1000,0,1,4,5,2,0,1,3,0,250.0,train,5,M
634.524106979,0,1000,2,1,4,5,2,0,1,3,0,250.0,train,0,M
538.53392601,3,1000,4,1,4,5,2,0,1,3,0,250.0,train,3,M
523.00286293,1,1000,5,1,4,5,2,0,1,3,0,250.0,train,1,M
538.642168045,0,1000,2,1,4,5,2,0,1,3,0,250.0,train,0,M
507.971048355,0,1000,2,1,4,5,2,0,1,3,0,250.0,train,0,M
666.635990143,3,1000,4,1,4,5,2,0,1,3,0,250.0,train,3,M
506.510972977,1,1000,5,1,4,5,2,0,1,3,0,250.0,train,1,M
506.515979767,4,1000,1,1,4,5,2,0,1,3,0,250.0,train,4,M
506.597995758,1,1000,5,1,4,5,2,0,1,3,0,250.0,train,1,M
474.476099014,3,1000,4,1,4,5,2,0,1,3,0,250.0,train,3,M
475.877046585,2,1000,3,1,4,5,2,0,1,3,0,250.0,train,2,M
474.55906868,1,1000,5,1,4,5,2,0,1,3,0,250.0,train,1,M
650.573015213,4,1000,1,1,4,5,2,0,1,3,0,250.0,train,4,M
1033.25295448,2,1000,3,1,4,5,2,0,1,3,0,250.0,train,2,M
490.451097488,0,1000,2,1,4,5,2,0,1,3,0,250.0,train,0,M
682.610988617,4,1000,1,1,4,5,2,0,1,3,0,250.0,train,4,M
474.462985992,2,1000,3,1,4,5,2,0,1,3,0,250.0,train,2,M
523.970127106,0,1000,2,1,4,5,2,0,1,3,0,250.0,train,0,M
716.025114059,1,1000,5,1,4,5,2,0,1,3,0,250.0,train,1,M
442.490816116,2,1000,3,1,4,5,2,0,1,3,0,250.0,train,2,M
427.935123444,2,1000,3,1,4,5,2,0,1,3,0,250.0,train,2,M
522.47095108,0,1000,2,1,4,5,2,0,1,3,0,250.0,train,0,M
602.475166321,5,1000,0,1,4,5,2,0,1,3,0,250.0,train,5,M
1162.95790672,3,1000,4,1,4,5,2,0,1,3,0,250.0,train,3,M
635.858058929,5,1000,0,1,4,5,2,0,1,3,0,250.0,train,5,M
603.851079941,2,1000,3,1,4,5,2,0,1,3,0,250.0,train,2,M
443.851947784,4,1000,1,1,4,5,2,0,1,3,0,250.0,train,4,M
522.532939911,1,1000,5,1,4,5,2,0,1,3,0,250.0,train,1,M
762.335062027,3,1000,4,1,4,5,2,0,1,3,0,250.0,train,3,M
506.336927414,1,1000,5,1,4,5,2,0,1,3,0,250.0,train,1,M
634.966850281,4,1000,1,1,4,5,2,0,1,3,0,250.0,train,4,M
555.885076523,0,1000,2,1,4,5,2,0,1,3,0,250.0,train,0,M
762.533903122,3,1000,4,1,4,5,2,0,1,3,0,250.0,train,3,M
458.428144455,0,1000,2,1,4,5,2,0,1,3,0,250.0,train,0,M
491.943836212,5,1000,0,1,4,5,2,0,1,3,0,250.0,train,5,M
411.056995392,4,1000,1,1,4,5,2,0,1,3,0,250.0,train,4,M
508.007049561,4,1000,1,1,4,5,2,0,1,3,0,250.0,train,4,M
619.031190872,3,1000,4,1,4,5,2,0,1,3,0,250.0,train,3,M
634.438991547,2,1000,3,1,4,5,2,0,1,3,0,250.0,train,2,M
506.569862366,0,1000,2,1,4,5,2,0,1,3,0,250.0,train,0,M
602.551937103,2,1000,3,1,4,5,2,0,1,3,0,250.0,train,2,M
507.86781311,2,1000,3,1,4,5,2,0,1,3,0,250.0,train,2,M
698.570966721,3,1000,4,1,4,5,2,0,1,3,0,250.0,train,3,M
554.536104202,3,1000,4,1,4,5,2,0,1,3,0,250.0,train,3,M
586.508989334,5,1000,0,1,4,5,2,0,1,3,0,250.0,train,5,M
634.562969208,1,1000,5,1,4,5,2,0,1,3,0,250.0,train,1,M
490.534067154,2,1000,3,1,4,5,2,0,1,3,0,250.0,train,2,M
490.616083145,0,1000,2,1,4,5,2,0,1,3,0,250.0,train,0,M
538.522958755,5,1000,0,1,4,5,2,0,1,3,0,250.0,train,5,M
506.407022476,4,1000,1,1,4,5,2,0,1,3,0,250.0,train,4,M
506.410837173,4,1000,1,1,4,5,2,0,1,3,0,250.0,train,4,M
556.00810051,2,1000,3,1,4,5,2,0,1,3,0,250.0,train,2,M
570.088148117,2,1000,3,1,4,5,2,0,1,3,0,250.0,train,2,M
524.034976959,5,1000,0,1,4,5,2,0,1,3,0,250.0,train,5,M
522.439956665,1,1000,5,1,4,5,2,0,1,3,0,250.0,train,1,M
794.5291996,3,1000,4,0,4,5,2,0,1,3,0,250.0,train,2,M
699.831962585,2,1000,3,1,4,5,2,0,1,3,0,250.0,train,2,M
490.29302597,3,1000,4,1,4,5,2,0,1,3,0,250.0,train,3,M
522.635936737,1,1000,5,1,4,5,2,0,1,3,0,250.0,train,1,M
554.410219193,2,1000,3,1,4,5,2,0,1,3,0,250.0,train,2,M
522.477149963,0,1000,2,1,4,5,2,0,1,3,0,250.0,train,0,M
570.517063141,0,1000,2,1,4,5,2,0,1,3,0,250.0,train,0,M
618.41917038,0,1000,2,1,4,5,2,0,1,3,0,250.0,train,0,M
426.572084427,0,1000,2,1,4,5,2,0,1,3,0,250.0,train,0,M
362.440109253,1,1000,5,1,4,5,2,0,1,3,0,250.0,train,1,M
427.91390419,2,1000,3,1,4,5,2,0,1,3,0,250.0,train,2,M
523.686885834,5,1000,0,1,4,5,2,0,1,3,0,250.0,train,5,M
442.449808121,5,1000,0,1,4,5,2,0,1,3,0,250.0,train,5,M
378.535985947,4,1000,1,1,4,5,2,0,1,3,0,250.0,train,4,M
555.936098099,0,1000,2,1,4,5,2,0,1,3,0,250.0,train,0,M
522.499799728,1,1000,5,1,4,5,2,0,1,3,0,250.0,train,1,M
522.444963455,5,1000,0,1,4,5,2,0,1,3,0,250.0,train,5,M
650.520801544,2,1000,3,1,4,5,2,0,1,3,0,250.0,train,2,M
666.574001312,2,1000,3,1,4,5,2,0,1,3,0,250.0,train,2,M
539.870023727,5,1000,0,1,4,5,2,0,1,3,0,250.0,train,5,M
618.546962738,4,1000,1,1,4,5,2,0,1,3,0,250.0,train,4,M
602.510929108,2,1000,3,1,4,5,2,0,1,3,0,250.0,train,2,M
634.589910507,0,1000,2,1,4,5,2,0,1,3,0,250.0,train,0,M
602.572917938,2,1000,3,1,4,5,2,0,1,3,0,250.0,train,2,M
458.532810211,5,1000,0,1,4,5,2,0,1,3,0,250.0,train,5,M
586.630821228,0,1000,2,1,4,5,2,0,1,3,0,250.0,train,0,M
587.142944336,2,1000,3,1,4,5,2,0,1,3,0,250.0,train,2,M
618.537187576,3,1000,4,1,4,5,2,0,1,3,0,250.0,train,3,M
442.891836166,3,1000,4,1,4,5,2,0,1,3,0,250.0,train,3,M
442.413806915,3,1000,4,1,4,5,2,0,1,3,0,250.0,train,3,M
715.113162994,3,1000,4,1,4,5,2,0,1,3,0,250.0,train,3,M
618.468999863,4,1000,1,1,4,5,2,0,1,3,0,250.0,train,4,M
458.412885666,4,1000,1,1,4,5,2,0,1,3,0,250.0,train,4,M
458.410024643,3,1000,4,1,4,5,2,0,1,3,0,250.0,train,3,M
458.930015564,5,1000,0,1,4,5,2,0,1,3,0,250.0,train,5,M
474.469900131,5,1000,0,1,4,5,2,0,1,3,0,250.0,train,5,M
490.46587944,0,1000,2,1,4,5,2,0,1,3,0,250.0,train,0,M
363.826036453,1,1000,5,1,4,5,2,0,1,3,0,250.0,train,1,M
826.458930969,2,1000,3,1,4,5,2,0,1,3,0,250.0,train,2,M
522.46594429,3,1000,4,1,4,5,2,0,1,3,0,250.0,train,3,M
586.441993713,0,1000,2,1,4,5,2,0,1,3,0,250.0,train,0,M
490.463972092,5,1000,0,1,4,5,2,0,1,3,0,250.0,train,5,M
602.514028549,1,1000,5,1,4,5,2,0,1,3,0,250.0,train,1,M
474.463939667,1,1000,5,1,4,5,2,0,1,3,0,250.0,train,1,M
475.945949554,1,1000,5,1,4,5,2,0,1,3,0,250.0,train,1,M
491.95599556,0,1000,2,1,4,5,2,0,1,3,0,250.0,train,0,M
698.529005051,3,1000,4,1,4,5,2,0,1,3,0,250.0,train,3,M
587.975978851,0,1000,2,1,4,5,2,0,1,3,0,250.0,train,0,M
523.820877075,2,1000,3,1,4,5,2,0,1,3,0,250.0,train,2,M
508.02397728,5,1000,0,1,4,5,2,0,1,3,0,250.0,train,5,M
442.594051361,4,1000,1,1,4,5,2,0,1,3,0,250.0,train,4,M
539.006948471,2,1000,3,1,4,5,2,0,1,3,0,250.0,train,2,M
490.524053574,5,1000,0,1,4,5,2,0,1,3,0,250.0,train,5,M
523.093938828,2,1000,3,1,4,5,2,0,1,3,0,250.0,train,2,M
586.562871933,4,1000,1,1,4,5,2,0,1,3,0,250.0,train,4,M
555.14216423,1,1000,5,1,4,5,2,0,1,3,0,250.0,train,1,M
443.844079971,1,1000,5,1,4,5,2,0,1,3,0,250.0,train,1,M
442.828893661,1,1000,5,1,4,5,2,0,1,3,0,250.0,train,1,M
410.588026047,0,1000,2,1,4,5,2,0,1,3,0,250.0,train,0,M
523.050785065,5,1000,0,1,4,5,2,0,1,3,0,250.0,train,5,M
474.646091461,5,1000,0,1,4,5,2,0,1,3,0,250.0,train,5,M
474.608898163,0,1000,2,1,4,5,2,0,1,3,0,250.0,train,0,M
442.453861237,4,1000,1,1,4,5,2,0,1,3,0,250.0,train,4,M
489.130973816,1,1000,5,1,4,5,2,0,1,3,0,250.0,train,1,M
762.555122375,3,1000,4,1,4,5,2,0,1,3,0,250.0,train,3,M
457.1352005,5,1000,0,1,4,5,2,0,1,3,0,250.0,train,5,M
538.303852081,1,1000,5,1,4,5,2,0,1,3,0,250.0,train,1,M
522.371053696,1,1000,5,1,4,5,2,0,1,3,0,250.0,train,1,M
523.977994919,1,1000,5,1,4,5,2,0,1,3,0,250.0,train,1,M
507.909059525,0,1000,2,1,4,5,2,0,1,3,0,250.0,train,0,M
586.406230927,2,1000,3,1,4,5,2,0,1,3,0,250.0,train,2,M
539.403915405,1,1000,5,1,4,5,2,0,1,3,0,250.0,train,1,M
538.519859314,3,1000,4,0,4,5,2,0,1,3,0,250.0,train,2,M
538.328886032,1,1000,5,1,4,5,2,0,1,3,0,250.0,train,1,M
634.455919266,2,1000,3,1,4,5,2,0,1,3,0,250.0,train,2,M
442.430973053,1,1000,5,1,4,5,2,0,1,3,0,250.0,train,1,M
442.325115204,0,1000,2,1,4,5,2,0,1,3,0,250.0,train,0,M
474.381923676,1,1000,5,1,4,5,2,0,1,3,0,250.0,train,1,M
491.952896118,4,1000,1,1,4,5,2,0,1,3,0,250.0,train,4,M
442.414999008,1,1000,5,1,4,5,2,0,1,3,0,250.0,train,1,M
394.457101822,1,1000,5,1,4,5,2,0,1,3,0,250.0,train,1,M
459.847927094,4,1000,1,1,4,5,2,0,1,3,0,250.0,train,4,M
491.919994354,5,1000,0,1,4,5,2,0,1,3,0,250.0,train,5,M
555.845975876,0,1000,2,1,4,5,2,0,1,3,0,250.0,train,0,M
442.528009415,1,1000,5,1,4,5,2,0,1,3,0,250.0,train,1,M
602.279186249,2,1000,3,1,4,5,2,0,1,3,0,250.0,train,2,M
522.579908371,3,1000,4,0,4,5,2,0,1,3,0,250.0,train,2,M
490.514993668,4,1000,1,1,4,5,2,0,1,3,0,250.0,train,4,M
490.605115891,1,1000,5,1,4,5,2,0,1,3,0,250.0,train,1,M
490.55314064,1,1000,5,1,4,5,2,0,1,3,0,250.0,train,1,M
746.536970139,3,1000,4,1,4,5,2,0,1,3,0,250.0,train,3,M
538.566112518,0,1000,2,1,4,5,2,0,1,3,0,250.0,train,0,M
474.563121796,4,1000,1,1,4,5,2,0,1,3,0,250.0,train,4,M
459.096193314,5,1000,0,1,4,5,2,0,1,3,0,250.0,train,5,M
538.594961166,5,1000,0,1,4,5,2,0,1,3,0,250.0,train,5,M
458.655118942,4,1000,1,1,4,5,2,0,1,3,0,250.0,train,4,M
746.531963348,3,1000,4,1,4,5,2,0,1,3,0,250.0,train,3,M
570.541143417,2,1000,3,1,4,5,2,0,1,3,0,250.0,train,2,M
538.417816162,3,1000,4,1,4,5,2,0,1,3,0,250.0,train,3,M
507.992982864,5,1000,0,1,4,5,2,0,1,3,0,250.0,train,5,M
508.030891418,3,1000,4,1,4,5,2,0,1,3,0,250.0,train,3,M
570.454835892,1,1000,5,1,4,5,2,0,1,3,0,250.0,train,1,M
666.568040848,2,1000,3,1,4,5,2,0,1,3,0,250.0,train,2,M
715.979099274,3,1000,4,1,4,5,2,0,1,3,0,250.0,train,3,M
474.898099899,0,1000,2,1,4,5,2,0,1,3,0,250.0,train,0,M
506.512880325,1,1000,5,1,4,5,2,0,1,3,0,250.0,train,1,M
459.795951843,0,1000,2,1,4,5,2,0,1,3,0,250.0,train,0,M
524.100065231,1,1000,5,1,4,5,2,0,1,3,0,250.0,train,1,M
475.096940994,1,1000,5,1,4,5,2,0,1,3,0,250.0,train,1,M
506.484985352,4,1000,1,1,4,5,2,0,1,3,0,250.0,train,4,M
474.997997284,4,1000,1,1,4,5,2,0,1,3,0,250.0,train,4,M
538.469076157,0,1000,2,1,4,5,2,0,1,3,0,250.0,train,0,M
554.499149323,2,1000,3,1,4,5,2,0,1,3,0,250.0,train,2,M
428.727865219,0,1000,2,1,4,5,2,0,1,3,0,250.0,train,0,M
506.499052048,2,1000,3,1,4,5,2,0,1,3,0,250.0,train,2,M
521.394014359,4,1000,1,1,4,5,2,0,1,3,0,250.0,train,4,M
474.436044693,4,1000,1,1,4,5,2,0,1,3,0,250.0,train,4,M
570.38807869,2,1000,3,1,4,5,2,0,1,3,0,250.0,train,2,M
410.522222519,4,1000,1,1,4,5,2,0,1,3,0,250.0,train,4,M
522.358179092,1,1000,5,1,4,5,2,0,1,3,0,250.0,train,1,M
586.545944214,2,1000,3,1,4,5,2,0,1,3,0,250.0,train,2,M
394.501924515,4,1000,1,1,4,5,2,0,1,3,0,250.0,train,4,M
746.472120285,2,1000,3,1,4,5,2,0,1,3,0,250.0,train,2,M
490.539073944,2,1000,3,1,4,5,2,0,1,3,0,250.0,train,2,M
523.068904877,3,1000,4,1,4,5,2,0,1,3,0,250.0,train,3,M
474.560022354,3,1000,4,1,4,5,2,0,1,3,0,250.0,train,3,M
443.08590889,4,1000,1,1,4,5,2,0,1,3,0,250.0,train,4,M
538.578987122,5,1000,0,1,4,5,2,0,1,3,0,250.0,train,5,M
442.64292717,4,1000,1,1,4,5,2,0,1,3,0,250.0,train,4,M
362.53786087,4,1000,1,1,4,5,2,0,1,3,0,250.0,train,4,M
522.593975067,3,1000,4,1,4,5,2,0,1,3,0,250.0,train,3,M
506.455898285,2,1000,3,1,4,5,2,0,1,3,0,250.0,train,2,M
394.395828247,4,1000,1,1,4,5,2,0,1,3,0,250.0,train,4,M
474.531888962,1,1000,5,1,4,5,2,0,1,3,0,250.0,train,1,M
489.161968231,5,1000,0,1,4,5,2,0,1,3,0,250.0,train,5,M
490.608930588,1,1000,5,1,4,5,2,0,1,3,0,250.0,train,1,M
554.456949234,5,1000,0,1,4,5,2,0,1,3,0,250.0,train,5,M
507.941007614,3,1000,4,1,4,5,2,0,1,3,0,250.0,train,3,M
587.812900543,3,1000,4,1,4,5,2,0,1,3,0,250.0,train,3,M
2666.036129,3,1000,4,1,4,5,2,0,1,3,0,250.0,test,3,M
1370.34893036,2,1000,3,1,4,5,2,0,1,3,0,250.0,test,2,M
730.345010757,2,1000,3,1,4,5,2,0,1,3,0,250.0,test,2,M
682.276964188,2,1000,3,1,4,5,2,0,1,3,0,250.0,test,2,M
507.776975632,2,1000,3,1,4,5,2,0,1,3,0,250.0,test,2,M
795.331001282,1,1000,5,1,4,5,2,0,1,3,0,250.0,test,1,M
411.744832993,1,1000,5,1,4,5,2,0,1,3,0,250.0,test,1,M
906.214952469,0,1000,2,1,4,5,2,0,1,3,0,250.0,test,0,M
1194.93198395,2,1000,3,1,4,5,2,0,1,3,0,250.0,test,2,M
506.29401207,2,1000,3,1,4,5,2,0,1,3,0,250.0,test,2,M
778.308868408,0,1000,2,1,4,5,2,0,1,3,0,250.0,test,0,M
1466.32099152,3,1000,4,1,4,5,2,0,1,3,0,250.0,test,3,M
971.75693512,4,1000,1,1,4,5,2,0,1,3,0,250.0,test,4,M
826.283931732,1,1000,5,1,4,5,2,0,1,3,0,250.0,test,1,M
1706.43687248,3,1000,4,1,4,5,2,0,1,3,0,250.0,test,3,M
1003.72195244,5,1000,0,1,4,5,2,0,1,3,0,250.0,test,5,M
618.33190918,0,1000,2,1,4,5,2,0,1,3,0,250.0,test,0,M
874.377965927,4,1000,1,1,4,5,2,0,1,3,0,250.0,test,4,M
602.850914001,2,1000,3,1,4,5,2,0,1,3,0,250.0,test,2,M
1578.27687263,4,1000,1,1,4,5,2,0,1,3,0,250.0,test,4,M
618.278026581,0,1000,2,1,4,5,2,0,1,3,0,250.0,test,0,M
698.367118835,3,1000,4,0,4,5,2,0,1,3,0,250.0,test,5,M
794.373035431,0,1000,2,1,4,5,2,0,1,3,0,250.0,test,0,M
554.359912872,0,1000,2,1,4,5,2,0,1,3,0,250.0,test,0,M
826.866149902,0,1000,2,1,4,5,2,0,1,3,0,250.0,test,0,M
682.332992554,5,1000,0,1,4,5,2,0,1,3,0,250.0,test,5,M
650.344133377,2,1000,3,0,4,5,2,0,1,3,0,250.0,test,1,M
570.820808411,0,1000,2,1,4,5,2,0,1,3,0,250.0,test,0,M
666.326999664,2,1000,3,1,4,5,2,0,1,3,0,250.0,test,2,M
1115.55790901,3,1000,4,1,4,5,2,0,1,3,0,250.0,test,3,M
650.210857391,2,1000,3,1,4,5,2,0,1,3,0,250.0,test,2,M
730.273008347,1,1000,5,1,4,5,2,0,1,3,0,250.0,test,1,M
826.324939728,3,1000,4,1,4,5,2,0,1,3,0,250.0,test,3,M
490.398168564,3,1000,4,1,4,5,2,0,1,3,0,250.0,test,3,M
490.351200104,3,1000,4,1,4,5,2,0,1,3,0,250.0,test,3,M
730.329036713,1,1000,5,1,4,5,2,0,1,3,0,250.0,test,1,M
731.701850891,4,1000,1,1,4,5,2,0,1,3,0,250.0,test,4,M
570.321798325,0,1000,2,1,4,5,2,0,1,3,0,250.0,test,0,M
618.829965591,5,1000,0,1,4,5,2,0,1,3,0,250.0,test,5,M
571.844100952,5,1000,0,1,4,5,2,0,1,3,0,250.0,test,5,M
714.396953583,2,1000,3,1,4,5,2,0,1,3,0,250.0,test,2,M
762.412071228,3,1000,4,1,4,5,2,0,1,3,0,250.0,test,3,M
634.294986725,0,1000,2,1,4,5,2,0,1,3,0,250.0,test,0,M
570.310115814,1,1000,5,1,4,5,2,0,1,3,0,250.0,test,1,M
618.372917175,0,1000,2,1,4,5,2,0,1,3,0,250.0,test,0,M
1034.35397148,4,1000,1,1,4,5,2,0,1,3,0,250.0,test,4,M
602.344989777,3,1000,4,1,4,5,2,0,1,3,0,250.0,test,3,M
650.35200119,2,1000,3,1,4,5,2,0,1,3,0,250.0,test,2,M
556.186914444,0,1000,2,1,4,5,2,0,1,3,0,250.0,test,0,M
538.439035416,1,1000,5,1,4,5,2,0,1,3,0,250.0,test,1,M
682.372093201,4,1000,1,1,4,5,2,0,1,3,0,250.0,test,4,M
842.363119125,1,1000,5,1,4,5,2,0,1,3,0,250.0,test,1,M
618.190050125,5,1000,0,1,4,5,2,0,1,3,0,250.0,test,5,M
634.339809418,5,1000,0,1,4,5,2,0,1,3,0,250.0,test,5,M
395.779848099,3,1000,4,1,4,5,2,0,1,3,0,250.0,test,3,M
570.361852646,3,1000,4,1,4,5,2,0,1,3,0,250.0,test,3,M
474.283218384,2,1000,3,1,4,5,2,0,1,3,0,250.0,test,2,M
395.785093307,0,1000,2,1,4,5,2,0,1,3,0,250.0,test,0,M
571.683883667,3,1000,4,1,4,5,2,0,1,3,0,250.0,test,3,M
587.808132172,2,1000,3,1,4,5,2,0,1,3,0,250.0,test,2,M
539.792060852,2,1000,3,1,4,5,2,0,1,3,0,250.0,test,2,M
619.796991348,3,1000,4,1,4,5,2,0,1,3,0,250.0,test,3,M
650.809049606,5,1000,0,1,4,5,2,0,1,3,0,250.0,test,5,M
475.556135178,5,1000,0,1,4,5,2,0,1,3,0,250.0,test,5,M
762.803077698,4,1000,1,1,4,5,2,0,1,3,0,250.0,test,4,M
809.955835342,1,1000,5,1,4,5,2,0,1,3,0,250.0,test,1,M
506.228923798,0,1000,2,1,4,5,2,0,1,3,0,250.0,test,0,M
586.20595932,5,1000,0,1,4,5,2,0,1,3,0,250.0,test,5,M
634.35792923,1,1000,5,1,4,5,2,0,1,3,0,250.0,test,1,M
715.759038925,5,1000,0,1,4,5,2,0,1,3,0,250.0,test,5,M
939.717054367,3,1000,4,1,4,5,2,0,1,3,0,250.0,test,3,M
490.875959396,3,1000,4,1,4,5,2,0,1,3,0,250.0,test,3,M
587.769031525,5,1000,0,1,4,5,2,0,1,3,0,250.0,test,5,M
666.297912598,2,1000,3,1,4,5,2,0,1,3,0,250.0,test,2,M
571.815013885,1,1000,5,1,4,5,2,0,1,3,0,250.0,test,1,M
714.339017868,4,1000,1,1,4,5,2,0,1,3,0,250.0,test,4,M
522.140026093,4,1000,1,1,4,5,2,0,1,3,0,250.0,test,4,M
634.389877319,3,1000,4,1,4,5,2,0,1,3,0,250.0,test,3,M
522.290945053,3,1000,4,1,4,5,2,0,1,3,0,250.0,test,3,M
522.368907928,4,1000,1,1,4,5,2,0,1,3,0,250.0,test,4,M
634.391069412,2,1000,3,1,4,5,2,0,1,3,0,250.0,test,2,M
570.27387619,0,1000,2,1,4,5,2,0,1,3,0,250.0,test,0,M
586.400985718,4,1000,1,1,4,5,2,0,1,3,0,250.0,test,4,M
762.272119522,2,1000,3,1,4,5,2,0,1,3,0,250.0,test,2,M
554.270982742,4,1000,1,1,4,5,2,0,1,3,0,250.0,test,4,M
586.298942566,0,1000,2,1,4,5,2,0,1,3,0,250.0,test,0,M
618.366956711,0,1000,2,1,4,5,2,0,1,3,0,250.0,test,0,M
650.223016739,3,1000,4,1,4,5,2,0,1,3,0,250.0,test,3,M
570.331096649,4,1000,1,1,4,5,2,0,1,3,0,250.0,test,4,M
554.321050644,2,1000,3,1,4,5,2,0,1,3,0,250.0,test,2,M
475.687980652,2,1000,3,1,4,5,2,0,1,3,0,250.0,test,2,M
523.659944534,4,1000,1,1,4,5,2,0,1,3,0,250.0,test,4,M
315.550088882,1,1000,5,1,4,5,2,0,1,3,0,250.0,test,1,M
569.716930389,2,1000,3,1,4,5,2,0,1,3,0,250.0,test,2,M
586.349964142,1,1000,5,1,4,5,2,0,1,3,0,250.0,test,1,M
427.665948868,5,1000,0,1,4,5,2,0,1,3,0,250.0,test,5,M
650.285959244,2,1000,3,1,4,5,2,0,1,3,0,250.0,test,2,M
490.278959274,4,1000,1,1,4,5,2,0,1,3,0,250.0,test,4,M
507.527112961,4,1000,1,1,4,5,2,0,1,3,0,250.0,test,4,M
458.230018616,4,1000,1,1,4,5,2,0,1,3,0,250.0,test,4,M
506.29401207,2,1000,3,1,4,5,2,0,1,3,0,250.0,test,2,M
522.305011749,1,1000,5,1,4,5,2,0,1,3,0,250.0,test,1,M
554.352998734,5,1000,0,1,4,5,2,0,1,3,0,250.0,test,5,M
539.824008942,0,1000,2,1,4,5,2,0,1,3,0,250.0,test,0,M
523.778915405,1,1000,5,1,4,5,2,0,1,3,0,250.0,test,1,M
539.872169495,5,1000,0,1,4,5,2,0,1,3,0,250.0,test,5,M
618.39389801,0,1000,2,1,4,5,2,0,1,3,0,250.0,test,0,M
522.350072861,0,1000,2,1,4,5,2,0,1,3,0,250.0,test,0,M
571.738958359,2,1000,3,1,4,5,2,0,1,3,0,250.0,test,2,M
666.913986206,1,1000,5,1,4,5,2,0,1,3,0,250.0,test,1,M
395.759105682,1,1000,5,0,4,5,2,0,1,3,0,250.0,test,0,M
571.551084518,2,1000,3,1,4,5,2,0,1,3,0,250.0,test,2,M
538.312911987,1,1000,5,1,4,5,2,0,1,3,0,250.0,test,1,M
570.353984833,2,1000,3,1,4,5,2,0,1,3,0,250.0,test,2,M
490.328788757,2,1000,3,1,4,5,2,0,1,3,0,250.0,test,2,M
554.377794266,2,1000,3,1,4,5,2,0,1,3,0,250.0,test,2,M
586.332082748,5,1000,0,1,4,5,2,0,1,3,0,250.0,test,5,M
602.387905121,4,1000,1,1,4,5,2,0,1,3,0,250.0,test,4,M
458.830118179,4,1000,1,1,4,5,2,0,1,3,0,250.0,test,4,M
602.307081223,5,1000,0,1,4,5,2,0,1,3,0,250.0,test,5,M
666.363954544,5,1000,0,1,4,5,2,0,1,3,0,250.0,test,5,M
570.277929306,0,1000,2,1,4,5,2,0,1,3,0,250.0,test,0,M
474.294900894,4,1000,1,1,4,5,2,0,1,3,0,250.0,test,4,M
842.429876328,0,1000,2,1,4,5,2,0,1,3,0,250.0,test,0,M
442.143917084,4,1000,1,1,4,5,2,0,1,3,0,250.0,test,4,M
475.688934326,4,1000,1,1,4,5,2,0,1,3,0,250.0,test,4,M
554.783821106,5,1000,0,1,4,5,2,0,1,3,0,250.0,test,5,M
554.291009903,1,1000,5,1,4,5,2,0,1,3,0,250.0,test,1,M
458.796024323,4,1000,1,1,4,5,2,0,1,3,0,250.0,test,4,M
443.782806396,4,1000,1,1,4,5,2,0,1,3,0,250.0,test,4,M
554.817914963,1,1000,5,1,4,5,2,0,1,3,0,250.0,test,1,M
554.306030273,3,1000,4,1,4,5,2,0,1,3,0,250.0,test,3,M
586.927890778,0,1000,2,1,4,5,2,0,1,3,0,250.0,test,0,M
586.287975311,5,1000,0,1,4,5,2,0,1,3,0,250.0,test,5,M
442.715167999,5,1000,0,1,4,5,2,0,1,3,0,250.0,test,5,M
555.639982224,0,1000,2,1,4,5,2,0,1,3,0,250.0,test,0,M
522.845029831,1,1000,5,1,4,5,2,0,1,3,0,250.0,test,1,M
554.251909256,5,1000,0,1,4,5,2,0,1,3,0,250.0,test,5,M
618.86715889,5,1000,0,1,4,5,2,0,1,3,0,250.0,test,5,M
666.41998291,1,1000,5,1,4,5,2,0,1,3,0,250.0,test,1,M
602.257013321,0,1000,2,1,4,5,2,0,1,3,0,250.0,test,0,M
747.784137726,2,1000,3,1,4,5,2,0,1,3,0,250.0,test,2,M
538.333892822,4,1000,1,1,4,5,2,0,1,3,0,250.0,test,4,M
588.850021362,5,1000,0,1,4,5,2,0,1,3,0,250.0,test,5,M
491.046905518,5,1000,0,1,4,5,2,0,1,3,0,250.0,test,5,M
443.718910217,5,1000,0,1,4,5,2,0,1,3,0,250.0,test,5,M
618.330001831,3,1000,4,1,4,5,2,0,1,3,0,250.0,test,3,M
554.38709259,1,1000,5,1,4,5,2,0,1,3,0,250.0,test,1,M
458.287000656,0,1000,2,1,4,5,2,0,1,3,0,250.0,test,0,M
490.363836288,0,1000,2,1,4,5,2,0,1,3,0,250.0,test,0,M
538.332939148,4,1000,1,1,4,5,2,0,1,3,0,250.0,test,4,M
650.332927704,2,1000,3,1,4,5,2,0,1,3,0,250.0,test,2,M
553.030014038,0,1000,2,1,4,5,2,0,1,3,0,250.0,test,0,M
586.297988892,2,1000,3,1,4,5,2,0,1,3,0,250.0,test,2,M
538.289785385,0,1000,2,1,4,5,2,0,1,3,0,250.0,test,0,M
522.344112396,3,1000,4,1,4,5,2,0,1,3,0,250.0,test,3,M
522.233009338,2,1000,3,1,4,5,2,0,1,3,0,250.0,test,2,M
539.293050766,5,1000,0,1,4,5,2,0,1,3,0,250.0,test,5,M
506.251096725,1,1000,5,1,4,5,2,0,1,3,0,250.0,test,1,M
490.453958511,4,1000,1,1,4,5,2,0,1,3,0,250.0,test,4,M
522.238969803,3,1000,4,1,4,5,2,0,1,3,0,250.0,test,3,M
634.348869324,3,1000,4,1,4,5,2,0,1,3,0,250.0,test,3,M
555.729150772,5,1000,0,1,4,5,2,0,1,3,0,250.0,test,5,M
570.237874985,1,1000,5,1,4,5,2,0,1,3,0,250.0,test,1,M
699.696063995,3,1000,4,1,4,5,2,0,1,3,0,250.0,test,3,M
698.084831238,3,1000,4,1,4,5,2,0,1,3,0,250.0,test,3,M
587.720870972,0,1000,2,1,4,5,2,0,1,3,0,250.0,test,0,M
601.630926132,4,1000,1,1,4,5,2,0,1,3,0,250.0,test,4,M
523.624181747,0,1000,2,1,4,5,2,0,1,3,0,250.0,test,0,M
506.340026855,1,1000,5,1,4,5,2,0,1,3,0,250.0,test,1,M
522.277116776,0,1000,2,1,4,5,2,0,1,3,0,250.0,test,0,M
442.331075668,1,1000,5,1,4,5,2,0,1,3,0,250.0,test,1,M
522.41396904,4,1000,1,1,4,5,2,0,1,3,0,250.0,test,4,M
554.306983948,1,1000,5,0,4,5,2,0,1,3,0,250.0,test,2,M
586.385965347,0,1000,2,1,4,5,2,0,1,3,0,250.0,test,0,M
730.977058411,2,1000,3,1,4,5,2,0,1,3,0,250.0,test,2,M
523.649930954,2,1000,3,1,4,5,2,0,1,3,0,250.0,test,2,M
539.780139923,1,1000,5,1,4,5,2,0,1,3,0,250.0,test,1,M
555.733203888,4,1000,1,1,4,5,2,0,1,3,0,250.0,test,4,M
571.752071381,5,1000,0,1,4,5,2,0,1,3,0,250.0,test,5,M
538.451910019,4,1000,1,1,4,5,2,0,1,3,0,250.0,test,4,M
490.329027176,1,1000,5,1,4,5,2,0,1,3,0,250.0,test,1,M
554.223060608,0,1000,2,1,4,5,2,0,1,3,0,250.0,test,0,M
490.316867828,0,1000,2,1,4,5,2,0,1,3,0,250.0,test,0,M
506.278991699,0,1000,2,1,4,5,2,0,1,3,0,250.0,test,0,M
523.802042007,4,1000,1,1,4,5,2,0,1,3,0,250.0,test,4,M
554.230213165,0,1000,2,1,4,5,2,0,1,3,0,250.0,test,0,M
554.332017899,0,1000,2,1,4,5,2,0,1,3,0,250.0,test,0,M
554.301977158,4,1000,1,1,4,5,2,0,1,3,0,250.0,test,4,M
618.406057358,5,1000,0,1,4,5,2,0,1,3,0,250.0,test,5,M
554.324150085,2,1000,3,1,4,5,2,0,1,3,0,250.0,test,2,M
522.26805687,4,1000,1,1,4,5,2,0,1,3,0,250.0,test,4,M
539.73197937,1,1000,5,1,4,5,2,0,1,3,0,250.0,test,1,M
586.478948593,2,1000,3,1,4,5,2,0,1,3,0,250.0,test,2,M
475.750923157,2,1000,3,1,4,5,2,0,1,3,0,250.0,test,2,M
555.629014969,0,1000,2,1,4,5,2,0,1,3,0,250.0,test,0,M
602.308034897,2,1000,3,1,4,5,2,0,1,3,0,250.0,test,2,M
570.341825485,5,1000,0,1,4,5,2,0,1,3,0,250.0,test,5,M
667.7069664,4,1000,1,1,4,5,2,0,1,3,0,250.0,test,4,M
650.379896164,1,1000,5,1,4,5,2,0,1,3,0,250.0,test,1,M
475.753068924,4,1000,1,1,4,5,2,0,1,3,0,250.0,test,4,M
538.280010223,2,1000,3,1,4,5,2,0,1,3,0,250.0,test,2,M
586.357831955,4,1000,1,1,4,5,2,0,1,3,0,250.0,test,4,M
587.392091751,2,1000,3,1,4,5,2,0,1,3,0,250.0,test,2,M
538.098096848,2,1000,3,1,4,5,2,0,1,3,0,250.0,test,2,M
554.322004318,4,1000,1,1,4,5,2,0,1,3,0,250.0,test,4,M
506.253004074,0,1000,2,1,4,5,2,0,1,3,0,250.0,test,0,M
586.246013641,3,1000,4,1,4,5,2,0,1,3,0,250.0,test,3,M
570.333003998,0,1000,2,1,4,5,2,0,1,3,0,250.0,test,0,M
586.344003677,2,1000,3,1,4,5,2,0,1,3,0,250.0,test,2,M
683.779001236,4,1000,1,1,4,5,2,0,1,3,0,250.0,test,4,M
603.765010834,0,1000,2,1,4,5,2,0,1,3,0,250.0,test,0,M
602.318048477,2,1000,3,1,4,5,2,0,1,3,0,250.0,test,2,M
492.68913269,1,1000,5,1,4,5,2,0,1,3,0,250.0,test,1,M
507.874011993,5,1000,0,1,4,5,2,0,1,3,0,250.0,test,5,M
568.267822266,3,1000,4,1,4,5,2,0,1,3,0,250.0,test,3,M
506.339073181,2,1000,3,1,4,5,2,0,1,3,0,250.0,test,2,M
538.419961929,5,1000,0,1,4,5,2,0,1,3,0,250.0,test,5,M
554.368019104,0,1000,2,1,4,5,2,0,1,3,0,250.0,test,0,M
506.273031235,5,1000,0,1,4,5,2,0,1,3,0,250.0,test,5,M
682.332038879,3,1000,4,1,4,5,2,0,1,3,0,250.0,test,3,M
522.294044495,5,1000,0,1,4,5,2,0,1,3,0,250.0,test,5,M
986.321926117,1,1000,5,1,4,5,2,0,1,3,0,250.0,test,1,M
602.365016937,5,1000,0,1,4,5,2,0,1,3,0,250.0,test,5,M
554.375886917,2,1000,3,1,4,5,2,0,1,3,0,250.0,test,2,M
489.099025726,2,1000,3,1,4,5,2,0,1,3,0,250.0,test,2,M
570.821046829,1,1000,5,1,4,5,2,0,1,3,0,250.0,test,1,M
827.157974243,0,1000,2,1,4,5,2,0,1,3,0,250.0,test,0,M
490.265130997,2,1000,3,1,4,5,2,0,1,3,0,250.0,test,2,M
522.419929504,5,1000,0,1,4,5,2,0,1,3,0,250.0,test,5,M
489.049911499,2,1000,3,1,4,5,2,0,1,3,0,250.0,test,2,M
730.400800705,5,1000,0,1,4,5,2,0,1,3,0,250.0,test,5,M
570.214986801,3,1000,4,1,4,5,2,0,1,3,0,250.0,test,3,M
490.364789963,4,1000,1,1,4,5,2,0,1,3,0,250.0,test,4,M
458.338022232,5,1000,0,1,4,5,2,0,1,3,0,250.0,test,5,M
570.315122604,1,1000,5,1,4,5,2,0,1,3,0,250.0,test,1,M
586.272954941,1,1000,5,1,4,5,2,0,1,3,0,250.0,test,1,M
523.785114288,0,1000,2,1,4,5,2,0,1,3,0,250.0,test,0,M
555.596828461,5,1000,0,1,4,5,2,0,1,3,0,250.0,test,5,M
634.342908859,3,1000,4,1,4,5,2,0,1,3,0,250.0,test,3,M
571.442127228,3,1000,4,1,4,5,2,0,1,3,0,250.0,test,3,M
554.260015488,0,1000,2,1,4,5,2,0,1,3,0,250.0,test,0,M
570.23692131,4,1000,1,1,4,5,2,0,1,3,0,250.0,test,4,M
506.328821182,3,1000,4,1,4,5,2,0,1,3,0,250.0,test,3,M
539.821863174,5,1000,0,1,4,5,2,0,1,3,0,250.0,test,5,M
426.357030869,5,1000,0,1,4,5,2,0,1,3,0,250.0,test,5,M
491.766929626,4,1000,1,1,4,5,2,0,1,3,0,250.0,test,4,M
555.773973465,1,1000,5,1,4,5,2,0,1,3,0,250.0,test,1,M
506.386995316,0,1000,2,1,4,5,2,0,1,3,0,250.0,test,0,M
523.761987686,1,1000,5,1,4,5,2,0,1,3,0,250.0,test,1,M
