RT,correct_response,ms-prestimblank,curstim,correct,SRmap_1,SRmap_0,SRmap_3,SRmap_2,SRmap_5,SRmap_4,ms-precue,ntrials,type,response,condition
10671.061039,3,1000,1,0,3,0,1,5,4,2,0,250.0,train,2,M
1456.09402657,1,1000,3,1,3,0,1,5,4,2,0,250.0,train,1,M
1264.16611671,3,1000,1,1,3,0,1,5,4,2,0,250.0,train,3,M
606.329917908,0,1000,0,1,3,0,1,5,4,2,0,250.0,train,0,M
654.797792435,1,1000,3,1,3,0,1,5,4,2,0,250.0,train,1,M
576.424121857,3,1000,1,0,3,0,1,5,4,2,0,250.0,train,4,M
928.374052048,1,1000,3,1,3,0,1,5,4,2,0,250.0,train,1,M
720.39103508,3,1000,1,0,3,0,1,5,4,2,0,250.0,train,2,M
1040.3778553,3,1000,1,1,3,0,1,5,4,2,0,250.0,train,3,M
384.713172913,4,1000,5,1,3,0,1,5,4,2,0,250.0,train,4,M
367.45095253,4,1000,5,0,3,0,1,5,4,2,0,250.0,train,3,M
574.839115143,3,1000,1,0,3,0,1,5,4,2,0,250.0,train,2,M
672.582149506,0,1000,0,1,3,0,1,5,4,2,0,250.0,train,0,M
687.224149704,3,1000,1,1,3,0,1,5,4,2,0,250.0,train,3,M
480.334043503,3,1000,1,1,3,0,1,5,4,2,0,250.0,train,3,M
688.616991043,5,1000,2,1,3,0,1,5,4,2,0,250.0,train,5,M
896.752119064,2,1000,4,1,3,0,1,5,4,2,0,250.0,train,2,M
2047.41692543,0,1000,0,1,3,0,1,5,4,2,0,250.0,train,0,M
720.355033875,5,1000,2,1,3,0,1,5,4,2,0,250.0,train,5,M
831.517934799,4,1000,5,0,3,0,1,5,4,2,0,250.0,train,5,M
480.262041092,2,1000,4,1,3,0,1,5,4,2,0,250.0,train,2,M
704.329013824,3,1000,1,1,3,0,1,5,4,2,0,250.0,train,3,M
112.398862839,5,1000,2,0,3,0,1,5,4,2,0,250.0,train,0,M
448.287963867,5,1000,2,1,3,0,1,5,4,2,0,250.0,train,5,M
592.289924622,4,1000,5,1,3,0,1,5,4,2,0,250.0,train,4,M
480.283975601,4,1000,5,1,3,0,1,5,4,2,0,250.0,train,4,M
432.290077209,3,1000,1,0,3,0,1,5,4,2,0,250.0,train,4,M
128.428936005,0,1000,0,0,3,0,1,5,4,2,0,250.0,train,3,M
880.749940872,3,1000,1,1,3,0,1,5,4,2,0,250.0,train,3,M
736.126899719,1,1000,3,1,3,0,1,5,4,2,0,250.0,train,1,M
559.51499939,5,1000,2,1,3,0,1,5,4,2,0,250.0,train,5,M
352.169036865,3,1000,1,0,3,0,1,5,4,2,0,250.0,train,1,M
479.501962662,3,1000,1,1,3,0,1,5,4,2,0,250.0,train,3,M
624.693870544,4,1000,5,1,3,0,1,5,4,2,0,250.0,train,4,M
672.804117203,3,1000,1,1,3,0,1,5,4,2,0,250.0,train,3,M
528.789997101,0,1000,0,1,3,0,1,5,4,2,0,250.0,train,0,M
656.255960464,5,1000,2,1,3,0,1,5,4,2,0,250.0,train,5,M
1407.62996674,2,1000,4,1,3,0,1,5,4,2,0,250.0,train,2,M
672.44386673,0,1000,0,1,3,0,1,5,4,2,0,250.0,train,0,M
464.319944382,1,1000,3,1,3,0,1,5,4,2,0,250.0,train,1,M
544.312953949,2,1000,4,1,3,0,1,5,4,2,0,250.0,train,2,M
576.503992081,5,1000,2,1,3,0,1,5,4,2,0,250.0,train,5,M
624.5470047,3,1000,1,1,3,0,1,5,4,2,0,250.0,train,3,M
448.54593277,3,1000,1,1,3,0,1,5,4,2,0,250.0,train,3,M
448.457956314,4,1000,5,1,3,0,1,5,4,2,0,250.0,train,4,M
512.7389431,1,1000,3,0,3,0,1,5,4,2,0,250.0,train,0,M
1296.63085938,1,1000,3,1,3,0,1,5,4,2,0,250.0,train,1,M
607.485055923,2,1000,4,0,3,0,1,5,4,2,0,250.0,train,3,M
559.364080429,1,1000,3,1,3,0,1,5,4,2,0,250.0,train,1,M
672.065019608,3,1000,1,1,3,0,1,5,4,2,0,250.0,train,3,M
512.424945831,0,1000,0,1,3,0,1,5,4,2,0,250.0,train,0,M
400.521993637,1,1000,3,1,3,0,1,5,4,2,0,250.0,train,1,M
448.372125626,0,1000,0,1,3,0,1,5,4,2,0,250.0,train,0,M
608.742952347,2,1000,4,0,3,0,1,5,4,2,0,250.0,train,3,M
464.74981308,0,1000,0,1,3,0,1,5,4,2,0,250.0,train,0,M
1024.70183372,4,1000,5,1,3,0,1,5,4,2,0,250.0,train,4,M
671.696901321,5,1000,2,1,3,0,1,5,4,2,0,250.0,train,5,M
592.770814896,2,1000,4,0,3,0,1,5,4,2,0,250.0,train,3,M
431.236982346,1,1000,3,1,3,0,1,5,4,2,0,250.0,train,1,M
144.91891861,1,1000,3,0,3,0,1,5,4,2,0,250.0,train,3,M
735.98408699,5,1000,2,1,3,0,1,5,4,2,0,250.0,train,5,M
575.598955154,0,1000,0,1,3,0,1,5,4,2,0,250.0,train,0,M
527.358055115,2,1000,4,1,3,0,1,5,4,2,0,250.0,train,2,M
623.50320816,5,1000,2,1,3,0,1,5,4,2,0,250.0,train,5,M
703.541040421,3,1000,1,1,3,0,1,5,4,2,0,250.0,train,3,M
559.57198143,0,1000,0,1,3,0,1,5,4,2,0,250.0,train,0,M
672.671079636,4,1000,5,1,3,0,1,5,4,2,0,250.0,train,4,M
383.496999741,1,1000,3,1,3,0,1,5,4,2,0,250.0,train,1,M
384.694814682,1,1000,3,0,3,0,1,5,4,2,0,250.0,train,0,M
623.878955841,3,1000,1,1,3,0,1,5,4,2,0,250.0,train,3,M
255.551099777,2,1000,4,0,3,0,1,5,4,2,0,250.0,train,4,M
719.609022141,1,1000,3,1,3,0,1,5,4,2,0,250.0,train,1,M
511.940002441,4,1000,5,1,3,0,1,5,4,2,0,250.0,train,4,M
688.740968704,5,1000,2,1,3,0,1,5,4,2,0,250.0,train,5,M
431.430101395,1,1000,3,1,3,0,1,5,4,2,0,250.0,train,1,M
640.275001526,2,1000,4,1,3,0,1,5,4,2,0,250.0,train,2,M
624.562978745,5,1000,2,1,3,0,1,5,4,2,0,250.0,train,5,M
559.430122375,1,1000,3,1,3,0,1,5,4,2,0,250.0,train,1,M
464.610815048,0,1000,0,1,3,0,1,5,4,2,0,250.0,train,0,M
447.562217712,0,1000,0,1,3,0,1,5,4,2,0,250.0,train,0,M
672.700881958,5,1000,2,1,3,0,1,5,4,2,0,250.0,train,5,M
559.596776962,5,1000,2,1,3,0,1,5,4,2,0,250.0,train,5,M
464.22791481,1,1000,3,1,3,0,1,5,4,2,0,250.0,train,1,M
496.273994446,0,1000,0,1,3,0,1,5,4,2,0,250.0,train,0,M
656.810045242,3,1000,1,1,3,0,1,5,4,2,0,250.0,train,3,M
480.401992798,0,1000,0,1,3,0,1,5,4,2,0,250.0,train,0,M
592.420816422,3,1000,1,1,3,0,1,5,4,2,0,250.0,train,3,M
608.4420681,0,1000,0,1,3,0,1,5,4,2,0,250.0,train,0,M
560.847043991,2,1000,4,1,3,0,1,5,4,2,0,250.0,train,2,M
864.815950394,3,1000,1,1,3,0,1,5,4,2,0,250.0,train,3,M
912.250041962,0,1000,0,1,3,0,1,5,4,2,0,250.0,train,0,M
560.426950455,0,1000,0,1,3,0,1,5,4,2,0,250.0,train,0,M
464.359045029,0,1000,0,1,3,0,1,5,4,2,0,250.0,train,0,M
480.400800705,0,1000,0,1,3,0,1,5,4,2,0,250.0,train,0,M
512.437105179,1,1000,3,1,3,0,1,5,4,2,0,250.0,train,1,M
496.408939362,0,1000,0,1,3,0,1,5,4,2,0,250.0,train,0,M
672.498941422,5,1000,2,1,3,0,1,5,4,2,0,250.0,train,5,M
592.303037643,5,1000,2,1,3,0,1,5,4,2,0,250.0,train,5,M
480.488061905,5,1000,2,1,3,0,1,5,4,2,0,250.0,train,5,M
592.386960983,2,1000,4,1,3,0,1,5,4,2,0,250.0,train,2,M
496.505975723,0,1000,0,1,3,0,1,5,4,2,0,250.0,train,0,M
512.317895889,2,1000,4,1,3,0,1,5,4,2,0,250.0,train,2,M
832.39197731,3,1000,1,1,3,0,1,5,4,2,0,250.0,train,3,M
464.36715126,3,1000,1,0,3,0,1,5,4,2,0,250.0,train,2,M
544.919013977,3,1000,1,1,3,0,1,5,4,2,0,250.0,train,3,M
768.37182045,2,1000,4,1,3,0,1,5,4,2,0,250.0,train,2,M
720.33405304,0,1000,0,1,3,0,1,5,4,2,0,250.0,train,0,M
480.94701767,3,1000,1,1,3,0,1,5,4,2,0,250.0,train,3,M
608.525037766,5,1000,2,1,3,0,1,5,4,2,0,250.0,train,5,M
464.919090271,5,1000,2,1,3,0,1,5,4,2,0,250.0,train,5,M
576.593875885,0,1000,0,1,3,0,1,5,4,2,0,250.0,train,0,M
560.348033905,3,1000,1,1,3,0,1,5,4,2,0,250.0,train,3,M
496.339082718,2,1000,4,1,3,0,1,5,4,2,0,250.0,train,2,M
592.679023743,4,1000,5,0,3,0,1,5,4,2,0,250.0,train,3,M
624.825954437,0,1000,0,1,3,0,1,5,4,2,0,250.0,train,0,M
592.417001724,5,1000,2,1,3,0,1,5,4,2,0,250.0,train,5,M
624.487876892,5,1000,2,1,3,0,1,5,4,2,0,250.0,train,5,M
560.427904129,1,1000,3,1,3,0,1,5,4,2,0,250.0,train,1,M
512.387037277,0,1000,0,1,3,0,1,5,4,2,0,250.0,train,0,M
511.944055557,0,1000,0,1,3,0,1,5,4,2,0,250.0,train,0,M
496.792793274,5,1000,2,1,3,0,1,5,4,2,0,250.0,train,5,M
463.929891586,5,1000,2,1,3,0,1,5,4,2,0,250.0,train,5,M
448.73213768,0,1000,0,1,3,0,1,5,4,2,0,250.0,train,0,M
432.055950165,2,1000,4,0,3,0,1,5,4,2,0,250.0,train,1,M
527.544021606,2,1000,4,1,3,0,1,5,4,2,0,250.0,train,2,M
575.922966003,2,1000,4,1,3,0,1,5,4,2,0,250.0,train,2,M
336.715936661,2,1000,4,1,3,0,1,5,4,2,0,250.0,train,2,M
415.65489769,4,1000,5,0,3,0,1,5,4,2,0,250.0,train,2,M
544.322013855,5,1000,2,1,3,0,1,5,4,2,0,250.0,train,5,M
480.239868164,0,1000,0,0,3,0,1,5,4,2,0,250.0,train,1,M
400.273084641,0,1000,0,1,3,0,1,5,4,2,0,250.0,train,0,M
224.895000458,3,1000,1,0,3,0,1,5,4,2,0,250.0,train,0,M
368.728876114,0,1000,0,1,3,0,1,5,4,2,0,250.0,train,0,M
384.688854218,0,1000,0,1,3,0,1,5,4,2,0,250.0,train,0,M
272.006988525,3,1000,1,0,3,0,1,5,4,2,0,250.0,train,0,M
448.000907898,0,1000,0,1,3,0,1,5,4,2,0,250.0,train,0,M
576.807975769,5,1000,2,1,3,0,1,5,4,2,0,250.0,train,5,M
624.82380867,1,1000,3,1,3,0,1,5,4,2,0,250.0,train,1,M
640.378952026,3,1000,1,1,3,0,1,5,4,2,0,250.0,train,3,M
672.235965729,5,1000,2,1,3,0,1,5,4,2,0,250.0,train,5,M
512.313127518,2,1000,4,0,3,0,1,5,4,2,0,250.0,train,1,M
495.204925537,0,1000,0,0,3,0,1,5,4,2,0,250.0,train,1,M
607.542037964,2,1000,4,1,3,0,1,5,4,2,0,250.0,train,2,M
943.506002426,4,1000,5,1,3,0,1,5,4,2,0,250.0,train,4,M
815.444946289,2,1000,4,1,3,0,1,5,4,2,0,250.0,train,2,M
1231.70399666,5,1000,2,1,3,0,1,5,4,2,0,250.0,train,5,M
735.95905304,2,1000,4,1,3,0,1,5,4,2,0,250.0,train,2,M
704.208135605,3,1000,1,1,3,0,1,5,4,2,0,250.0,train,3,M
687.211990356,5,1000,2,1,3,0,1,5,4,2,0,250.0,train,5,M
944.226980209,4,1000,5,1,3,0,1,5,4,2,0,250.0,train,4,M
511.826992035,3,1000,1,0,3,0,1,5,4,2,0,250.0,train,2,M
592.414855957,1,1000,3,1,3,0,1,5,4,2,0,250.0,train,1,M
464.32185173,1,1000,3,1,3,0,1,5,4,2,0,250.0,train,1,M
655.367136002,5,1000,2,1,3,0,1,5,4,2,0,250.0,train,5,M
688.803911209,3,1000,1,1,3,0,1,5,4,2,0,250.0,train,3,M
735.999822617,3,1000,1,1,3,0,1,5,4,2,0,250.0,train,3,M
495.987176895,3,1000,1,1,3,0,1,5,4,2,0,250.0,train,3,M
719.686031342,4,1000,5,0,3,0,1,5,4,2,0,250.0,train,5,M
319.541931152,0,1000,0,0,3,0,1,5,4,2,0,250.0,train,3,M
607.470035553,5,1000,2,1,3,0,1,5,4,2,0,250.0,train,5,M
1151.61395073,3,1000,1,1,3,0,1,5,4,2,0,250.0,train,3,M
800.446033478,2,1000,4,1,3,0,1,5,4,2,0,250.0,train,2,M
671.555995941,3,1000,1,1,3,0,1,5,4,2,0,250.0,train,3,M
559.633970261,5,1000,2,1,3,0,1,5,4,2,0,250.0,train,5,M
592.691898346,2,1000,4,1,3,0,1,5,4,2,0,250.0,train,2,M
432.219982147,0,1000,0,1,3,0,1,5,4,2,0,250.0,train,0,M
415.436029434,0,1000,0,1,3,0,1,5,4,2,0,250.0,train,0,M
319.890022278,0,1000,0,1,3,0,1,5,4,2,0,250.0,train,0,M
367.825031281,4,1000,5,1,3,0,1,5,4,2,0,250.0,train,4,M
640.352010727,3,1000,1,0,3,0,1,5,4,2,0,250.0,train,2,M
608.174085617,2,1000,4,1,3,0,1,5,4,2,0,250.0,train,2,M
608.26086998,2,1000,4,1,3,0,1,5,4,2,0,250.0,train,2,M
447.793960571,4,1000,5,1,3,0,1,5,4,2,0,250.0,train,4,M
527.630090714,1,1000,3,1,3,0,1,5,4,2,0,250.0,train,1,M
592.253923416,5,1000,2,1,3,0,1,5,4,2,0,250.0,train,5,M
527.583837509,5,1000,2,1,3,0,1,5,4,2,0,250.0,train,5,M
479.981899261,3,1000,1,0,3,0,1,5,4,2,0,250.0,train,2,M
719.624042511,1,1000,3,1,3,0,1,5,4,2,0,250.0,train,1,M
623.645067215,5,1000,2,1,3,0,1,5,4,2,0,250.0,train,5,M
768.337011337,2,1000,4,1,3,0,1,5,4,2,0,250.0,train,2,M
607.912063599,4,1000,5,1,3,0,1,5,4,2,0,250.0,train,4,M
624.237060547,5,1000,2,1,3,0,1,5,4,2,0,250.0,train,5,M
496.007204056,4,1000,5,1,3,0,1,5,4,2,0,250.0,train,4,M
847.510814667,3,1000,1,1,3,0,1,5,4,2,0,250.0,train,3,M
559.635877609,4,1000,5,1,3,0,1,5,4,2,0,250.0,train,4,M
543.62487793,5,1000,2,1,3,0,1,5,4,2,0,250.0,train,5,M
479.650020599,0,1000,0,1,3,0,1,5,4,2,0,250.0,train,0,M
576.598882675,1,1000,3,1,3,0,1,5,4,2,0,250.0,train,1,M
528.362035751,0,1000,0,1,3,0,1,5,4,2,0,250.0,train,0,M
431.953907013,0,1000,0,1,3,0,1,5,4,2,0,250.0,train,0,M
496.196985245,1,1000,3,1,3,0,1,5,4,2,0,250.0,train,1,M
752.691984177,2,1000,4,1,3,0,1,5,4,2,0,250.0,train,2,M
911.585092545,3,1000,1,1,3,0,1,5,4,2,0,250.0,train,3,M
784.01184082,4,1000,5,1,3,0,1,5,4,2,0,250.0,train,4,M
671.257019043,3,1000,1,1,3,0,1,5,4,2,0,250.0,train,3,M
543.608903885,5,1000,2,1,3,0,1,5,4,2,0,250.0,train,5,M
639.587879181,5,1000,2,1,3,0,1,5,4,2,0,250.0,train,5,M
448.104143143,0,1000,0,1,3,0,1,5,4,2,0,250.0,train,0,M
640.464782715,3,1000,1,1,3,0,1,5,4,2,0,250.0,train,3,M
495.535135269,4,1000,5,1,3,0,1,5,4,2,0,250.0,train,4,M
655.668020248,5,1000,2,1,3,0,1,5,4,2,0,250.0,train,5,M
639.466047287,2,1000,4,0,3,0,1,5,4,2,0,250.0,train,3,M
511.384010315,4,1000,5,1,3,0,1,5,4,2,0,250.0,train,4,M
832.365036011,2,1000,4,1,3,0,1,5,4,2,0,250.0,train,2,M
527.314901352,4,1000,5,1,3,0,1,5,4,2,0,250.0,train,4,M
447.956085205,2,1000,4,1,3,0,1,5,4,2,0,250.0,train,2,M
480.357885361,0,1000,0,0,3,0,1,5,4,2,0,250.0,train,2,M
495.462179184,4,1000,5,0,3,0,1,5,4,2,0,250.0,train,2,M
592.355012894,5,1000,2,1,3,0,1,5,4,2,0,250.0,train,5,M
704.725027084,1,1000,3,1,3,0,1,5,4,2,0,250.0,train,1,M
559.617996216,1,1000,3,1,3,0,1,5,4,2,0,250.0,train,1,M
511.808872223,0,1000,0,1,3,0,1,5,4,2,0,250.0,train,0,M
591.480016708,2,1000,4,1,3,0,1,5,4,2,0,250.0,train,2,M
527.323961258,2,1000,4,1,3,0,1,5,4,2,0,250.0,train,2,M
447.481155396,2,1000,4,1,3,0,1,5,4,2,0,250.0,train,2,M
415.729999542,2,1000,4,1,3,0,1,5,4,2,0,250.0,train,2,M
463.532924652,2,1000,4,1,3,0,1,5,4,2,0,250.0,train,2,M
671.448945999,4,1000,5,1,3,0,1,5,4,2,0,250.0,train,4,M
479.365110397,0,1000,0,1,3,0,1,5,4,2,0,250.0,train,0,M
543.574810028,1,1000,3,1,3,0,1,5,4,2,0,250.0,train,1,M
383.930921555,0,1000,0,1,3,0,1,5,4,2,0,250.0,train,0,M
398.945808411,0,1000,0,1,3,0,1,5,4,2,0,250.0,train,0,M
527.898073196,5,1000,2,1,3,0,1,5,4,2,0,250.0,train,5,M
559.846878052,5,1000,2,1,3,0,1,5,4,2,0,250.0,train,5,M
383.558988571,5,1000,2,1,3,0,1,5,4,2,0,250.0,train,5,M
512.181043625,3,1000,1,1,3,0,1,5,4,2,0,250.0,train,3,M
511.491775513,1,1000,3,0,3,0,1,5,4,2,0,250.0,train,0,M
431.545972824,2,1000,4,1,3,0,1,5,4,2,0,250.0,train,2,M
639.529943466,4,1000,5,1,3,0,1,5,4,2,0,250.0,train,4,M
544.189929962,4,1000,5,1,3,0,1,5,4,2,0,250.0,train,4,M
432.152986526,4,1000,5,1,3,0,1,5,4,2,0,250.0,train,4,M
640.045881271,1,1000,3,1,3,0,1,5,4,2,0,250.0,train,1,M
448.132991791,1,1000,3,1,3,0,1,5,4,2,0,250.0,train,1,M
607.704162598,4,1000,5,1,3,0,1,5,4,2,0,250.0,train,4,M
479.58779335,3,1000,1,0,3,0,1,5,4,2,0,250.0,train,4,M
128.169775009,4,1000,5,1,3,0,1,5,4,2,0,250.0,train,4,M
784.287929535,3,1000,1,1,3,0,1,5,4,2,0,250.0,train,3,M
832.325935364,2,1000,4,0,3,0,1,5,4,2,0,250.0,train,3,M
624.122142792,5,1000,2,1,3,0,1,5,4,2,0,250.0,train,5,M
816.277980804,1,1000,3,1,3,0,1,5,4,2,0,250.0,train,1,M
479.813098907,4,1000,5,1,3,0,1,5,4,2,0,250.0,train,4,M
320.288181305,0,1000,0,1,3,0,1,5,4,2,0,250.0,train,0,M
688.158988953,2,1000,4,1,3,0,1,5,4,2,0,250.0,train,2,M
368.141174316,1,1000,3,1,3,0,1,5,4,2,0,250.0,train,1,M
447.639942169,0,1000,0,1,3,0,1,5,4,2,0,250.0,train,0,M
464.25485611,2,1000,4,1,3,0,1,5,4,2,0,250.0,train,2,M
431.605100632,0,1000,0,0,3,0,1,5,4,2,0,250.0,train,1,M
592.427015305,3,1000,1,1,3,0,1,5,4,2,0,250.0,train,3,M
400.359153748,1,1000,3,1,3,0,1,5,4,2,0,250.0,train,1,M
448.750019073,0,1000,0,1,3,0,1,5,4,2,0,250.0,train,0,M
8959.13505554,2,1000,4,1,3,0,1,5,4,2,0,250.0,test,2,M
2176.19109154,0,1000,0,1,3,0,1,5,4,2,0,250.0,test,0,M
3392.31491089,5,1000,2,1,3,0,1,5,4,2,0,250.0,test,5,M
1888.27800751,4,1000,5,1,3,0,1,5,4,2,0,250.0,test,4,M
1504.37903404,1,1000,3,1,3,0,1,5,4,2,0,250.0,test,1,M
1728.42597961,0,1000,0,1,3,0,1,5,4,2,0,250.0,test,0,M
2192.33512878,5,1000,2,1,3,0,1,5,4,2,0,250.0,test,5,M
800.224065781,1,1000,3,1,3,0,1,5,4,2,0,250.0,test,1,M
703.709125519,0,1000,0,1,3,0,1,5,4,2,0,250.0,test,0,M
1136.64007187,2,1000,4,1,3,0,1,5,4,2,0,250.0,test,2,M
1104.09903526,1,1000,3,0,3,0,1,5,4,2,0,250.0,test,3,M
1024.16205406,3,1000,1,0,3,0,1,5,4,2,0,250.0,test,4,M
688.256025314,0,1000,0,1,3,0,1,5,4,2,0,250.0,test,0,M
527.947902679,5,1000,2,1,3,0,1,5,4,2,0,250.0,test,5,M
560.142040253,5,1000,2,1,3,0,1,5,4,2,0,250.0,test,5,M
1552.68597603,2,1000,4,0,3,0,1,5,4,2,0,250.0,test,3,M
799.997091293,0,1000,0,1,3,0,1,5,4,2,0,250.0,test,0,M
576.323986053,5,1000,2,1,3,0,1,5,4,2,0,250.0,test,5,M
656.350135803,0,1000,0,1,3,0,1,5,4,2,0,250.0,test,0,M
608.191013336,0,1000,0,1,3,0,1,5,4,2,0,250.0,test,0,M
704.688072205,1,1000,3,1,3,0,1,5,4,2,0,250.0,test,1,M
1200.0451088,1,1000,3,0,3,0,1,5,4,2,0,250.0,test,2,M
672.27602005,0,1000,0,1,3,0,1,5,4,2,0,250.0,test,0,M
1056.10990524,1,1000,3,1,3,0,1,5,4,2,0,250.0,test,1,M
624.231100082,3,1000,1,0,3,0,1,5,4,2,0,250.0,test,5,M
640.336990356,0,1000,0,1,3,0,1,5,4,2,0,250.0,test,0,M
736.2241745,1,1000,3,1,3,0,1,5,4,2,0,250.0,test,1,M
2224.25985336,2,1000,4,1,3,0,1,5,4,2,0,250.0,test,2,M
1232.20992088,3,1000,1,1,3,0,1,5,4,2,0,250.0,test,3,M
1264.28699493,3,1000,1,1,3,0,1,5,4,2,0,250.0,test,3,M
543.683052063,3,1000,1,1,3,0,1,5,4,2,0,250.0,test,3,M
576.735019684,2,1000,4,0,3,0,1,5,4,2,0,250.0,test,0,M
95.7179069519,3,1000,1,0,3,0,1,5,4,2,0,250.0,test,4,M
239.967107773,5,1000,2,0,3,0,1,5,4,2,0,250.0,test,4,M
608.008861542,5,1000,2,1,3,0,1,5,4,2,0,250.0,test,5,M
576.069116592,2,1000,4,0,3,0,1,5,4,2,0,250.0,test,0,M
1663.7339592,4,1000,5,0,3,0,1,5,4,2,0,250.0,test,0,M
704.135894775,5,1000,2,1,3,0,1,5,4,2,0,250.0,test,5,M
1631.61683083,4,1000,5,1,3,0,1,5,4,2,0,250.0,test,4,M
1152.21190453,3,1000,1,1,3,0,1,5,4,2,0,250.0,test,3,M
704.055070877,0,1000,0,1,3,0,1,5,4,2,0,250.0,test,0,M
1199.95808601,4,1000,5,1,3,0,1,5,4,2,0,250.0,test,4,M
623.851060867,5,1000,2,1,3,0,1,5,4,2,0,250.0,test,5,M
1248.19397926,5,1000,2,1,3,0,1,5,4,2,0,250.0,test,5,M
416.147947311,5,1000,2,1,3,0,1,5,4,2,0,250.0,test,5,M
704.486846924,4,1000,5,0,3,0,1,5,4,2,0,250.0,test,0,M
592.308998108,5,1000,2,1,3,0,1,5,4,2,0,250.0,test,5,M
1296.23913765,1,1000,3,1,3,0,1,5,4,2,0,250.0,test,1,M
79.666852951,2,1000,4,0,3,0,1,5,4,2,0,250.0,test,4,M
703.874111176,5,1000,2,1,3,0,1,5,4,2,0,250.0,test,5,M
544.028997421,0,1000,0,0,3,0,1,5,4,2,0,250.0,test,1,M
3808.04204941,4,1000,5,1,3,0,1,5,4,2,0,250.0,test,4,M
704.326152802,3,1000,1,0,3,0,1,5,4,2,0,250.0,test,4,M
608.777999878,5,1000,2,1,3,0,1,5,4,2,0,250.0,test,5,M
768.738031387,3,1000,1,0,3,0,1,5,4,2,0,250.0,test,4,M
559.715032578,5,1000,2,1,3,0,1,5,4,2,0,250.0,test,5,M
416.263103485,5,1000,2,0,3,0,1,5,4,2,0,250.0,test,3,M
2272.06206322,2,1000,4,1,3,0,1,5,4,2,0,250.0,test,2,M
2192.66605377,4,1000,5,0,3,0,1,5,4,2,0,250.0,test,3,M
1440.43111801,4,1000,5,1,3,0,1,5,4,2,0,250.0,test,4,M
1471.98009491,2,1000,4,1,3,0,1,5,4,2,0,250.0,test,2,M
623.547077179,5,1000,2,1,3,0,1,5,4,2,0,250.0,test,5,M
1008.0268383,0,1000,0,1,3,0,1,5,4,2,0,250.0,test,0,M
1295.84717751,2,1000,4,1,3,0,1,5,4,2,0,250.0,test,2,M
1920.24683952,0,1000,0,1,3,0,1,5,4,2,0,250.0,test,0,M
1823.86207581,2,1000,4,1,3,0,1,5,4,2,0,250.0,test,2,M
527.960777283,2,1000,4,1,3,0,1,5,4,2,0,250.0,test,2,M
399.917125702,2,1000,4,1,3,0,1,5,4,2,0,250.0,test,2,M
559.833049774,0,1000,0,0,3,0,1,5,4,2,0,250.0,test,1,M
639.789819717,2,1000,4,0,3,0,1,5,4,2,0,250.0,test,0,M
607.95879364,0,1000,0,1,3,0,1,5,4,2,0,250.0,test,0,M
495.904922485,4,1000,5,0,3,0,1,5,4,2,0,250.0,test,2,M
1040.78698158,2,1000,4,1,3,0,1,5,4,2,0,250.0,test,2,M
655.832052231,5,1000,2,1,3,0,1,5,4,2,0,250.0,test,5,M
351.907968521,5,1000,2,1,3,0,1,5,4,2,0,250.0,test,5,M
831.702947617,3,1000,1,1,3,0,1,5,4,2,0,250.0,test,3,M
879.949092865,3,1000,1,1,3,0,1,5,4,2,0,250.0,test,3,M
863.909959793,2,1000,4,1,3,0,1,5,4,2,0,250.0,test,2,M
511.997938156,2,1000,4,1,3,0,1,5,4,2,0,250.0,test,2,M
656.370162964,5,1000,2,1,3,0,1,5,4,2,0,250.0,test,5,M
623.983860016,5,1000,2,1,3,0,1,5,4,2,0,250.0,test,5,M
608.699798584,3,1000,1,1,3,0,1,5,4,2,0,250.0,test,3,M
975.88801384,1,1000,3,1,3,0,1,5,4,2,0,250.0,test,1,M
1087.94307709,0,1000,0,1,3,0,1,5,4,2,0,250.0,test,0,M
672.206878662,1,1000,3,0,3,0,1,5,4,2,0,250.0,test,4,M
704.169034958,0,1000,0,1,3,0,1,5,4,2,0,250.0,test,0,M
912.302017212,3,1000,1,1,3,0,1,5,4,2,0,250.0,test,3,M
4832.17096329,0,1000,0,0,3,0,1,5,4,2,0,250.0,test,4,M
5871.95611,2,1000,4,0,3,0,1,5,4,2,0,250.0,test,4,M
719.581127167,5,1000,2,1,3,0,1,5,4,2,0,250.0,test,5,M
1919.9860096,1,1000,3,1,3,0,1,5,4,2,0,250.0,test,1,M
639.94383812,5,1000,2,1,3,0,1,5,4,2,0,250.0,test,5,M
640.271186829,2,1000,4,0,3,0,1,5,4,2,0,250.0,test,3,M
608.196973801,2,1000,4,1,3,0,1,5,4,2,0,250.0,test,2,M
1584.24496651,0,1000,0,1,3,0,1,5,4,2,0,250.0,test,0,M
3615.71502686,2,1000,4,0,3,0,1,5,4,2,0,250.0,test,1,M
719.342947006,5,1000,2,1,3,0,1,5,4,2,0,250.0,test,5,M
1072.20101357,2,1000,4,1,3,0,1,5,4,2,0,250.0,test,2,M
736.101865768,0,1000,0,1,3,0,1,5,4,2,0,250.0,test,0,M
560.241937637,0,1000,0,1,3,0,1,5,4,2,0,250.0,test,0,M
640.216112137,3,1000,1,0,3,0,1,5,4,2,0,250.0,test,5,M
624.156951904,1,1000,3,0,3,0,1,5,4,2,0,250.0,test,2,M
624.247074127,1,1000,3,1,3,0,1,5,4,2,0,250.0,test,1,M
608.326911926,0,1000,0,1,3,0,1,5,4,2,0,250.0,test,0,M
1072.1719265,2,1000,4,1,3,0,1,5,4,2,0,250.0,test,2,M
704.298973083,5,1000,2,1,3,0,1,5,4,2,0,250.0,test,5,M
672.230005264,4,1000,5,0,3,0,1,5,4,2,0,250.0,test,1,M
576.295852661,1,1000,3,0,3,0,1,5,4,2,0,250.0,test,2,M
1168.29013824,4,1000,5,1,3,0,1,5,4,2,0,250.0,test,4,M
672.857999802,2,1000,4,1,3,0,1,5,4,2,0,250.0,test,2,M
576.598882675,5,1000,2,1,3,0,1,5,4,2,0,250.0,test,5,M
1504.11701202,0,1000,0,1,3,0,1,5,4,2,0,250.0,test,0,M
1232.15198517,4,1000,5,1,3,0,1,5,4,2,0,250.0,test,4,M
1104.129076,4,1000,5,1,3,0,1,5,4,2,0,250.0,test,4,M
1136.07192039,0,1000,0,1,3,0,1,5,4,2,0,250.0,test,0,M
1168.75314713,2,1000,4,1,3,0,1,5,4,2,0,250.0,test,2,M
1136.23094559,0,1000,0,1,3,0,1,5,4,2,0,250.0,test,0,M
1071.92492485,2,1000,4,1,3,0,1,5,4,2,0,250.0,test,2,M
1040.04597664,2,1000,4,1,3,0,1,5,4,2,0,250.0,test,2,M
736.185073853,5,1000,2,1,3,0,1,5,4,2,0,250.0,test,5,M
544.195175171,4,1000,5,0,3,0,1,5,4,2,0,250.0,test,2,M
1792.18697548,3,1000,1,1,3,0,1,5,4,2,0,250.0,test,3,M
3983.24012756,5,1000,2,1,3,0,1,5,4,2,0,250.0,test,5,M
864.343881607,5,1000,2,1,3,0,1,5,4,2,0,250.0,test,5,M
847.519874573,3,1000,1,0,3,0,1,5,4,2,0,250.0,test,4,M
239.99786377,0,1000,0,0,3,0,1,5,4,2,0,250.0,test,3,M
1087.66102791,3,1000,1,1,3,0,1,5,4,2,0,250.0,test,3,M
1024.06907082,1,1000,3,0,3,0,1,5,4,2,0,250.0,test,2,M
864.177942276,5,1000,2,1,3,0,1,5,4,2,0,250.0,test,5,M
639.918088913,1,1000,3,1,3,0,1,5,4,2,0,250.0,test,1,M
879.935979843,2,1000,4,1,3,0,1,5,4,2,0,250.0,test,2,M
1119.98820305,4,1000,5,0,3,0,1,5,4,2,0,250.0,test,3,M
31.5699577332,2,1000,4,0,3,0,1,5,4,2,0,250.0,test,1,M
607.712984085,5,1000,2,1,3,0,1,5,4,2,0,250.0,test,5,M
1072.1950531,1,1000,3,1,3,0,1,5,4,2,0,250.0,test,1,M
672.091007233,5,1000,2,1,3,0,1,5,4,2,0,250.0,test,5,M
656.221151352,0,1000,0,1,3,0,1,5,4,2,0,250.0,test,0,M
1039.93105888,0,1000,0,1,3,0,1,5,4,2,0,250.0,test,0,M
1455.56902885,0,1000,0,1,3,0,1,5,4,2,0,250.0,test,0,M
15.9940719604,1,1000,3,0,3,0,1,5,4,2,0,250.0,test,4,M
703.691005707,2,1000,4,0,3,0,1,5,4,2,0,250.0,test,0,M
3072.03793526,0,1000,0,1,3,0,1,5,4,2,0,250.0,test,0,M
2959.69390869,4,1000,5,0,3,0,1,5,4,2,0,250.0,test,0,M
1888.88502121,5,1000,2,0,3,0,1,5,4,2,0,250.0,test,2,M
832.006931305,5,1000,2,1,3,0,1,5,4,2,0,250.0,test,5,M
1935.6470108,1,1000,3,1,3,0,1,5,4,2,0,250.0,test,1,M
719.952106476,1,1000,3,1,3,0,1,5,4,2,0,250.0,test,1,M
128.267049789,3,1000,1,0,3,0,1,5,4,2,0,250.0,test,1,M
928.669929504,0,1000,0,0,3,0,1,5,4,2,0,250.0,test,1,M
3007.96699524,4,1000,5,1,3,0,1,5,4,2,0,250.0,test,4,M
1040.27199745,0,1000,0,1,3,0,1,5,4,2,0,250.0,test,0,M
896.155118942,3,1000,1,0,3,0,1,5,4,2,0,250.0,test,4,M
928.12204361,1,1000,3,1,3,0,1,5,4,2,0,250.0,test,1,M
783.919095993,3,1000,1,1,3,0,1,5,4,2,0,250.0,test,3,M
976.169109344,5,1000,2,1,3,0,1,5,4,2,0,250.0,test,5,M
1600.15916824,2,1000,4,1,3,0,1,5,4,2,0,250.0,test,2,M
784.291982651,3,1000,1,1,3,0,1,5,4,2,0,250.0,test,3,M
864.38202858,1,1000,3,1,3,0,1,5,4,2,0,250.0,test,1,M
1231.94909096,4,1000,5,1,3,0,1,5,4,2,0,250.0,test,4,M
1183.64787102,1,1000,3,1,3,0,1,5,4,2,0,250.0,test,1,M
1328.08184624,0,1000,0,1,3,0,1,5,4,2,0,250.0,test,0,M
816.383838654,1,1000,3,1,3,0,1,5,4,2,0,250.0,test,1,M
720.316886902,3,1000,1,1,3,0,1,5,4,2,0,250.0,test,3,M
624.135971069,3,1000,1,1,3,0,1,5,4,2,0,250.0,test,3,M
912.286043167,1,1000,3,1,3,0,1,5,4,2,0,250.0,test,1,M
992.384195328,0,1000,0,1,3,0,1,5,4,2,0,250.0,test,0,M
1359.75694656,4,1000,5,0,3,0,1,5,4,2,0,250.0,test,5,M
1568.08996201,1,1000,3,1,3,0,1,5,4,2,0,250.0,test,1,M
880.124807358,0,1000,0,1,3,0,1,5,4,2,0,250.0,test,0,M
12399.8579979,0,1000,0,0,3,0,1,5,4,2,0,250.0,test,2,M
976.034164429,2,1000,4,1,3,0,1,5,4,2,0,250.0,test,2,M
1504.155159,0,1000,0,1,3,0,1,5,4,2,0,250.0,test,0,M
1776.19290352,5,1000,2,1,3,0,1,5,4,2,0,250.0,test,5,M
479.629993439,5,1000,2,1,3,0,1,5,4,2,0,250.0,test,5,M
384.083032608,5,1000,2,1,3,0,1,5,4,2,0,250.0,test,5,M
223.937988281,2,1000,4,0,3,0,1,5,4,2,0,250.0,test,5,M
319.530963898,5,1000,2,1,3,0,1,5,4,2,0,250.0,test,5,M
544.306993484,0,1000,0,0,3,0,1,5,4,2,0,250.0,test,1,M
655.731916428,0,1000,0,1,3,0,1,5,4,2,0,250.0,test,0,M
592.146873474,2,1000,4,0,3,0,1,5,4,2,0,250.0,test,1,M
672.171115875,1,1000,3,1,3,0,1,5,4,2,0,250.0,test,1,M
704.090833664,3,1000,1,1,3,0,1,5,4,2,0,250.0,test,3,M
1936.36488914,4,1000,5,1,3,0,1,5,4,2,0,250.0,test,4,M
831.620931625,0,1000,0,1,3,0,1,5,4,2,0,250.0,test,0,M
543.913125992,0,1000,0,1,3,0,1,5,4,2,0,250.0,test,0,M
624.288082123,1,1000,3,1,3,0,1,5,4,2,0,250.0,test,1,M
752.269029617,4,1000,5,1,3,0,1,5,4,2,0,250.0,test,4,M
608.30616951,4,1000,5,1,3,0,1,5,4,2,0,250.0,test,4,M
751.777887344,2,1000,4,1,3,0,1,5,4,2,0,250.0,test,2,M
960.429906845,4,1000,5,1,3,0,1,5,4,2,0,250.0,test,4,M
527.930021286,4,1000,5,1,3,0,1,5,4,2,0,250.0,test,4,M
656.393051147,3,1000,1,1,3,0,1,5,4,2,0,250.0,test,3,M
624.308109283,3,1000,1,1,3,0,1,5,4,2,0,250.0,test,3,M
799.840927124,1,1000,3,0,3,0,1,5,4,2,0,250.0,test,2,M
576.224803925,1,1000,3,0,3,0,1,5,4,2,0,250.0,test,4,M
704.191923141,3,1000,1,1,3,0,1,5,4,2,0,250.0,test,3,M
640.340089798,1,1000,3,1,3,0,1,5,4,2,0,250.0,test,1,M
1247.76005745,2,1000,4,1,3,0,1,5,4,2,0,250.0,test,2,M
688.042879105,0,1000,0,0,3,0,1,5,4,2,0,250.0,test,1,M
1152.38213539,2,1000,4,0,3,0,1,5,4,2,0,250.0,test,1,M
704.232931137,3,1000,1,0,3,0,1,5,4,2,0,250.0,test,4,M
768.645048141,4,1000,5,1,3,0,1,5,4,2,0,250.0,test,4,M
1008.67199898,0,1000,0,1,3,0,1,5,4,2,0,250.0,test,0,M
512.639045715,3,1000,1,1,3,0,1,5,4,2,0,250.0,test,3,M
880.692958832,0,1000,0,1,3,0,1,5,4,2,0,250.0,test,0,M
608.695030212,3,1000,1,1,3,0,1,5,4,2,0,250.0,test,3,M
432.631969452,3,1000,1,1,3,0,1,5,4,2,0,250.0,test,3,M
464.693069458,3,1000,1,1,3,0,1,5,4,2,0,250.0,test,3,M
575.792074203,4,1000,5,1,3,0,1,5,4,2,0,250.0,test,4,M
511.755943298,4,1000,5,1,3,0,1,5,4,2,0,250.0,test,4,M
224.411964417,4,1000,5,1,3,0,1,5,4,2,0,250.0,test,4,M
191.931962967,4,1000,5,1,3,0,1,5,4,2,0,250.0,test,4,M
191.900014877,5,1000,2,0,3,0,1,5,4,2,0,250.0,test,3,M
47.7769374847,5,1000,2,1,3,0,1,5,4,2,0,250.0,test,5,M
367.53821373,5,1000,2,1,3,0,1,5,4,2,0,250.0,test,5,M
63.905954361,1,1000,3,0,3,0,1,5,4,2,0,250.0,test,5,M
495.869159698,4,1000,5,1,3,0,1,5,4,2,0,250.0,test,4,M
191.908836365,1,1000,3,0,3,0,1,5,4,2,0,250.0,test,5,M
511.510133743,1,1000,3,1,3,0,1,5,4,2,0,250.0,test,1,M
623.985052109,5,1000,2,1,3,0,1,5,4,2,0,250.0,test,5,M
464.490175247,4,1000,5,1,3,0,1,5,4,2,0,250.0,test,4,M
367.68078804,2,1000,4,0,3,0,1,5,4,2,0,250.0,test,5,M
560.429096222,4,1000,5,1,3,0,1,5,4,2,0,250.0,test,4,M
592.319965363,5,1000,2,1,3,0,1,5,4,2,0,250.0,test,5,M
624.794960022,4,1000,5,1,3,0,1,5,4,2,0,250.0,test,4,M
560.159921646,3,1000,1,1,3,0,1,5,4,2,0,250.0,test,3,M
671.964168549,2,1000,4,1,3,0,1,5,4,2,0,250.0,test,2,M
623.862981796,2,1000,4,1,3,0,1,5,4,2,0,250.0,test,2,M
511.649847031,0,1000,0,0,3,0,1,5,4,2,0,250.0,test,3,M
431.681871414,0,1000,0,1,3,0,1,5,4,2,0,250.0,test,0,M
640.059947968,3,1000,1,1,3,0,1,5,4,2,0,250.0,test,3,M
528.083086014,3,1000,1,1,3,0,1,5,4,2,0,250.0,test,3,M
464.194059372,5,1000,2,0,3,0,1,5,4,2,0,250.0,test,3,M
560.357093811,3,1000,1,1,3,0,1,5,4,2,0,250.0,test,3,M
864.342927933,2,1000,4,1,3,0,1,5,4,2,0,250.0,test,2,M
624.176025391,2,1000,4,1,3,0,1,5,4,2,0,250.0,test,2,M
207.734823227,0,1000,0,0,3,0,1,5,4,2,0,250.0,test,2,M
640.016078949,3,1000,1,1,3,0,1,5,4,2,0,250.0,test,3,M
559.859037399,4,1000,5,1,3,0,1,5,4,2,0,250.0,test,4,M
720.193862915,1,1000,3,1,3,0,1,5,4,2,0,250.0,test,1,M
560.237169266,2,1000,4,1,3,0,1,5,4,2,0,250.0,test,2,M
576.030015945,5,1000,2,1,3,0,1,5,4,2,0,250.0,test,5,M
1087.76211739,2,1000,4,1,3,0,1,5,4,2,0,250.0,test,2,M
624.730110168,3,1000,1,1,3,0,1,5,4,2,0,250.0,test,3,M
687.849998474,2,1000,4,1,3,0,1,5,4,2,0,250.0,test,2,M
656.061887741,5,1000,2,1,3,0,1,5,4,2,0,250.0,test,5,M
575.90508461,2,1000,4,0,3,0,1,5,4,2,0,250.0,test,1,M
687.807798386,0,1000,0,1,3,0,1,5,4,2,0,250.0,test,0,M
640.23900032,4,1000,5,1,3,0,1,5,4,2,0,250.0,test,4,M
1456.10499382,1,1000,3,1,3,0,1,5,4,2,0,250.0,test,1,M
