RT,correct_response,ms-prestimblank,curstim,correct,SRmap_1,SRmap_0,SRmap_3,SRmap_2,SRmap_5,SRmap_4,ms-precue,ntrials,type,response,condition
10175.5001545,4,1000,4,1,2,0,5,3,1,4,0,250.0,train,4,H-
4831.51602745,0,1000,0,1,2,0,5,3,1,4,0,250.0,train,0,H-
1311.62405014,0,1000,0,1,2,0,5,3,1,4,0,250.0,train,0,H-
1103.28483582,0,1000,0,1,2,0,5,3,1,4,0,250.0,train,0,H-
2480.21697998,5,1000,3,1,2,0,5,3,1,4,0,250.0,train,5,H-
2175.96912384,1,1000,5,1,2,0,5,3,1,4,0,250.0,train,1,H-
2144.23203468,5,1000,3,1,2,0,5,3,1,4,0,250.0,train,5,H-
1631.96015358,1,1000,5,1,2,0,5,3,1,4,0,250.0,train,1,H-
2287.80317307,5,1000,3,1,2,0,5,3,1,4,0,250.0,train,5,H-
896.394968033,5,1000,3,1,2,0,5,3,1,4,0,250.0,train,5,H-
800.465106964,1,1000,5,1,2,0,5,3,1,4,0,250.0,train,1,H-
608.332872391,1,1000,5,1,2,0,5,3,1,4,0,250.0,train,1,H-
1184.34786797,0,1000,0,1,2,0,5,3,1,4,0,250.0,train,0,H-
1712.45908737,2,1000,1,1,2,0,5,3,1,4,0,250.0,train,2,H-
1024.29795265,5,1000,3,1,2,0,5,3,1,4,0,250.0,train,5,H-
863.919019699,2,1000,1,1,2,0,5,3,1,4,0,250.0,train,2,H-
607.453107834,5,1000,3,1,2,0,5,3,1,4,0,250.0,train,5,H-
512.014865875,2,1000,1,1,2,0,5,3,1,4,0,250.0,train,2,H-
3215.89612961,3,1000,2,1,2,0,5,3,1,4,0,250.0,train,3,H-
800.132989883,3,1000,2,1,2,0,5,3,1,4,0,250.0,train,3,H-
960.300922394,0,1000,0,1,2,0,5,3,1,4,0,250.0,train,0,H-
2672.22309113,4,1000,4,1,2,0,5,3,1,4,0,250.0,train,4,H-
1760.16402245,2,1000,1,1,2,0,5,3,1,4,0,250.0,train,2,H-
672.179937363,1,1000,5,0,2,0,5,3,1,4,0,250.0,train,0,H-
896.003961563,1,1000,5,1,2,0,5,3,1,4,0,250.0,train,1,H-
432.147026062,1,1000,5,1,2,0,5,3,1,4,0,250.0,train,1,H-
816.401004791,0,1000,0,1,2,0,5,3,1,4,0,250.0,train,0,H-
1600.3100872,3,1000,2,1,2,0,5,3,1,4,0,250.0,train,3,H-
1376.29199028,2,1000,1,1,2,0,5,3,1,4,0,250.0,train,2,H-
4384.1881752,2,1000,1,1,2,0,5,3,1,4,0,250.0,train,2,H-
1088.30308914,1,1000,5,1,2,0,5,3,1,4,0,250.0,train,1,H-
1088.25421333,4,1000,4,1,2,0,5,3,1,4,0,250.0,train,4,H-
720.394849777,3,1000,2,1,2,0,5,3,1,4,0,250.0,train,3,H-
1136.39807701,1,1000,5,1,2,0,5,3,1,4,0,250.0,train,1,H-
1088.12904358,4,1000,4,1,2,0,5,3,1,4,0,250.0,train,4,H-
896.38710022,1,1000,5,1,2,0,5,3,1,4,0,250.0,train,1,H-
1360.33606529,2,1000,1,1,2,0,5,3,1,4,0,250.0,train,2,H-
592.375040054,2,1000,1,1,2,0,5,3,1,4,0,250.0,train,2,H-
592.412948608,1,1000,5,1,2,0,5,3,1,4,0,250.0,train,1,H-
816.269874573,3,1000,2,1,2,0,5,3,1,4,0,250.0,train,3,H-
687.968015671,1,1000,5,1,2,0,5,3,1,4,0,250.0,train,1,H-
1232.47981071,0,1000,0,1,2,0,5,3,1,4,0,250.0,train,0,H-
656.381845474,3,1000,2,1,2,0,5,3,1,4,0,250.0,train,3,H-
592.386007309,4,1000,4,1,2,0,5,3,1,4,0,250.0,train,4,H-
944.428920746,2,1000,1,1,2,0,5,3,1,4,0,250.0,train,2,H-
640.486955643,3,1000,2,1,2,0,5,3,1,4,0,250.0,train,3,H-
576.463937759,3,1000,2,1,2,0,5,3,1,4,0,250.0,train,3,H-
1296.41890526,0,1000,0,1,2,0,5,3,1,4,0,250.0,train,0,H-
1024.43194389,4,1000,4,1,2,0,5,3,1,4,0,250.0,train,4,H-
656.405925751,4,1000,4,1,2,0,5,3,1,4,0,250.0,train,4,H-
736.305952072,5,1000,3,1,2,0,5,3,1,4,0,250.0,train,5,H-
432.281017303,5,1000,3,1,2,0,5,3,1,4,0,250.0,train,5,H-
1008.44788551,2,1000,1,1,2,0,5,3,1,4,0,250.0,train,2,H-
1328.26399803,0,1000,0,1,2,0,5,3,1,4,0,250.0,train,0,H-
944.399833679,5,1000,3,1,2,0,5,3,1,4,0,250.0,train,5,H-
784.342050552,2,1000,1,1,2,0,5,3,1,4,0,250.0,train,2,H-
640.40517807,4,1000,4,1,2,0,5,3,1,4,0,250.0,train,4,H-
656.279087067,0,1000,0,1,2,0,5,3,1,4,0,250.0,train,0,H-
656.420946121,2,1000,1,1,2,0,5,3,1,4,0,250.0,train,2,H-
2032.39297867,1,1000,5,1,2,0,5,3,1,4,0,250.0,train,1,H-
816.308021545,3,1000,2,1,2,0,5,3,1,4,0,250.0,train,3,H-
832.367897034,2,1000,1,1,2,0,5,3,1,4,0,250.0,train,2,H-
1152.43697166,4,1000,4,1,2,0,5,3,1,4,0,250.0,train,4,H-
960.446834564,0,1000,0,1,2,0,5,3,1,4,0,250.0,train,0,H-
720.477104187,4,1000,4,1,2,0,5,3,1,4,0,250.0,train,4,H-
544.437885284,5,1000,3,1,2,0,5,3,1,4,0,250.0,train,5,H-
623.936891556,0,1000,0,1,2,0,5,3,1,4,0,250.0,train,0,H-
815.259933472,4,1000,4,1,2,0,5,3,1,4,0,250.0,train,4,H-
591.907024384,0,1000,0,1,2,0,5,3,1,4,0,250.0,train,0,H-
623.733997345,0,1000,0,1,2,0,5,3,1,4,0,250.0,train,0,H-
591.315031052,4,1000,4,1,2,0,5,3,1,4,0,250.0,train,4,H-
512.794017792,5,1000,3,1,2,0,5,3,1,4,0,250.0,train,5,H-
559.741020203,4,1000,4,1,2,0,5,3,1,4,0,250.0,train,4,H-
527.920007706,1,1000,5,0,2,0,5,3,1,4,0,250.0,train,0,H-
736.233949661,4,1000,4,1,2,0,5,3,1,4,0,250.0,train,4,H-
608.360052109,0,1000,0,1,2,0,5,3,1,4,0,250.0,train,0,H-
576.189994812,0,1000,0,1,2,0,5,3,1,4,0,250.0,train,0,H-
592.37909317,5,1000,3,1,2,0,5,3,1,4,0,250.0,train,5,H-
752.890825272,3,1000,2,1,2,0,5,3,1,4,0,250.0,train,3,H-
992.210149765,2,1000,1,1,2,0,5,3,1,4,0,250.0,train,2,H-
608.426094055,3,1000,2,1,2,0,5,3,1,4,0,250.0,train,3,H-
1104.32195663,1,1000,5,1,2,0,5,3,1,4,0,250.0,train,1,H-
608.431816101,5,1000,3,1,2,0,5,3,1,4,0,250.0,train,5,H-
1152.40693092,2,1000,1,1,2,0,5,3,1,4,0,250.0,train,2,H-
1184.51809883,0,1000,0,1,2,0,5,3,1,4,0,250.0,train,0,H-
592.401027679,3,1000,2,1,2,0,5,3,1,4,0,250.0,train,3,H-
1024.20902252,1,1000,5,1,2,0,5,3,1,4,0,250.0,train,1,H-
976.379871368,0,1000,0,1,2,0,5,3,1,4,0,250.0,train,0,H-
736.275911331,2,1000,1,1,2,0,5,3,1,4,0,250.0,train,2,H-
704.339981079,5,1000,3,1,2,0,5,3,1,4,0,250.0,train,5,H-
832.432031631,0,1000,0,1,2,0,5,3,1,4,0,250.0,train,0,H-
528.377056122,5,1000,3,1,2,0,5,3,1,4,0,250.0,train,5,H-
704.400062561,4,1000,4,1,2,0,5,3,1,4,0,250.0,train,4,H-
608.247995377,4,1000,4,1,2,0,5,3,1,4,0,250.0,train,4,H-
768.403053284,2,1000,1,1,2,0,5,3,1,4,0,250.0,train,2,H-
592.439889908,4,1000,4,1,2,0,5,3,1,4,0,250.0,train,4,H-
592.494010925,5,1000,3,1,2,0,5,3,1,4,0,250.0,train,5,H-
896.432876587,1,1000,5,0,2,0,5,3,1,4,0,250.0,train,0,H-
751.924037933,2,1000,1,1,2,0,5,3,1,4,0,250.0,train,2,H-
1168.11609268,1,1000,5,1,2,0,5,3,1,4,0,250.0,train,1,H-
560.450077057,0,1000,0,1,2,0,5,3,1,4,0,250.0,train,0,H-
544.321060181,0,1000,0,1,2,0,5,3,1,4,0,250.0,train,0,H-
624.410152435,2,1000,1,1,2,0,5,3,1,4,0,250.0,train,2,H-
496.334075928,2,1000,1,1,2,0,5,3,1,4,0,250.0,train,2,H-
528.372049332,5,1000,3,1,2,0,5,3,1,4,0,250.0,train,5,H-
1024.50203896,3,1000,2,1,2,0,5,3,1,4,0,250.0,train,3,H-
624.34887886,0,1000,0,1,2,0,5,3,1,4,0,250.0,train,0,H-
624.36413765,0,1000,0,1,2,0,5,3,1,4,0,250.0,train,0,H-
368.433952332,0,1000,0,1,2,0,5,3,1,4,0,250.0,train,0,H-
608.050823212,2,1000,1,1,2,0,5,3,1,4,0,250.0,train,2,H-
591.786146164,5,1000,3,1,2,0,5,3,1,4,0,250.0,train,5,H-
815.867900848,1,1000,5,1,2,0,5,3,1,4,0,250.0,train,1,H-
640.105962753,0,1000,0,1,2,0,5,3,1,4,0,250.0,train,0,H-
543.888092041,5,1000,3,1,2,0,5,3,1,4,0,250.0,train,5,H-
543.495893478,2,1000,1,1,2,0,5,3,1,4,0,250.0,train,2,H-
720.368146896,5,1000,3,1,2,0,5,3,1,4,0,250.0,train,5,H-
655.971050262,4,1000,4,1,2,0,5,3,1,4,0,250.0,train,4,H-
576.282024384,2,1000,1,1,2,0,5,3,1,4,0,250.0,train,2,H-
608.334064484,1,1000,5,1,2,0,5,3,1,4,0,250.0,train,1,H-
816.43819809,1,1000,5,1,2,0,5,3,1,4,0,250.0,train,1,H-
624.335050583,5,1000,3,1,2,0,5,3,1,4,0,250.0,train,5,H-
592.500925064,3,1000,2,1,2,0,5,3,1,4,0,250.0,train,3,H-
848.457813263,0,1000,0,1,2,0,5,3,1,4,0,250.0,train,0,H-
672.322034836,4,1000,4,1,2,0,5,3,1,4,0,250.0,train,4,H-
496.36888504,4,1000,4,1,2,0,5,3,1,4,0,250.0,train,4,H-
736.268997192,1,1000,5,1,2,0,5,3,1,4,0,250.0,train,1,H-
688.414096832,1,1000,5,0,2,0,5,3,1,4,0,250.0,train,0,H-
720.288038254,2,1000,1,1,2,0,5,3,1,4,0,250.0,train,2,H-
656.518936157,0,1000,0,1,2,0,5,3,1,4,0,250.0,train,0,H-
576.211929321,2,1000,1,1,2,0,5,3,1,4,0,250.0,train,2,H-
592.372894287,5,1000,3,1,2,0,5,3,1,4,0,250.0,train,5,H-
624.480962753,3,1000,2,1,2,0,5,3,1,4,0,250.0,train,3,H-
576.043128967,2,1000,1,1,2,0,5,3,1,4,0,250.0,train,2,H-
527.919054031,5,1000,3,1,2,0,5,3,1,4,0,250.0,train,5,H-
816.400051117,0,1000,0,1,2,0,5,3,1,4,0,250.0,train,0,H-
623.716831207,4,1000,4,1,2,0,5,3,1,4,0,250.0,train,4,H-
511.9099617,4,1000,4,1,2,0,5,3,1,4,0,250.0,train,4,H-
543.925046921,3,1000,2,0,2,0,5,3,1,4,0,250.0,train,2,H-
1599.71499443,1,1000,5,1,2,0,5,3,1,4,0,250.0,train,1,H-
1040.3649807,3,1000,2,1,2,0,5,3,1,4,0,250.0,train,3,H-
639.054059982,2,1000,1,1,2,0,5,3,1,4,0,250.0,train,2,H-
768.630981445,4,1000,4,1,2,0,5,3,1,4,0,250.0,train,4,H-
688.640117645,2,1000,1,1,2,0,5,3,1,4,0,250.0,train,2,H-
991.774082184,0,1000,0,1,2,0,5,3,1,4,0,250.0,train,0,H-
656.049966812,4,1000,4,0,2,0,5,3,1,4,0,250.0,train,5,H-
896.691083908,3,1000,2,1,2,0,5,3,1,4,0,250.0,train,3,H-
831.937074661,0,1000,0,1,2,0,5,3,1,4,0,250.0,train,0,H-
560.029029846,5,1000,3,1,2,0,5,3,1,4,0,250.0,train,5,H-
799.916028976,1,1000,5,1,2,0,5,3,1,4,0,250.0,train,1,H-
3424.03888702,1,1000,5,0,2,0,5,3,1,4,0,250.0,train,0,H-
655.762910843,3,1000,2,1,2,0,5,3,1,4,0,250.0,train,3,H-
559.911966324,5,1000,3,1,2,0,5,3,1,4,0,250.0,train,5,H-
1072.16501236,1,1000,5,1,2,0,5,3,1,4,0,250.0,train,1,H-
575.747013092,1,1000,5,1,2,0,5,3,1,4,0,250.0,train,1,H-
639.814138412,0,1000,0,1,2,0,5,3,1,4,0,250.0,train,0,H-
703.896045685,3,1000,2,1,2,0,5,3,1,4,0,250.0,train,3,H-
559.895992279,5,1000,3,1,2,0,5,3,1,4,0,250.0,train,5,H-
576.20716095,5,1000,3,1,2,0,5,3,1,4,0,250.0,train,5,H-
1568.47381592,2,1000,1,1,2,0,5,3,1,4,0,250.0,train,2,H-
576.318979263,3,1000,2,1,2,0,5,3,1,4,0,250.0,train,3,H-
624.21298027,2,1000,1,1,2,0,5,3,1,4,0,250.0,train,2,H-
608.39676857,4,1000,4,1,2,0,5,3,1,4,0,250.0,train,4,H-
528.337001801,5,1000,3,1,2,0,5,3,1,4,0,250.0,train,5,H-
752.418041229,4,1000,4,1,2,0,5,3,1,4,0,250.0,train,4,H-
784.394979477,2,1000,1,0,2,0,5,3,1,4,0,250.0,train,3,H-
832.097053528,1,1000,5,1,2,0,5,3,1,4,0,250.0,train,1,H-
1056.46586418,3,1000,2,1,2,0,5,3,1,4,0,250.0,train,3,H-
896.16894722,0,1000,0,1,2,0,5,3,1,4,0,250.0,train,0,H-
800.274848938,0,1000,0,1,2,0,5,3,1,4,0,250.0,train,0,H-
592.293024063,3,1000,2,1,2,0,5,3,1,4,0,250.0,train,3,H-
912.23692894,0,1000,0,1,2,0,5,3,1,4,0,250.0,train,0,H-
624.331951141,5,1000,3,1,2,0,5,3,1,4,0,250.0,train,5,H-
640.373945236,4,1000,4,1,2,0,5,3,1,4,0,250.0,train,4,H-
976.490974426,2,1000,1,1,2,0,5,3,1,4,0,250.0,train,2,H-
592.250108719,5,1000,3,1,2,0,5,3,1,4,0,250.0,train,5,H-
544.369935989,4,1000,4,1,2,0,5,3,1,4,0,250.0,train,4,H-
544.422864914,4,1000,4,1,2,0,5,3,1,4,0,250.0,train,4,H-
640.365123749,0,1000,0,1,2,0,5,3,1,4,0,250.0,train,0,H-
624.333143234,1,1000,5,1,2,0,5,3,1,4,0,250.0,train,1,H-
912.245988846,2,1000,1,1,2,0,5,3,1,4,0,250.0,train,2,H-
672.040939331,4,1000,4,0,2,0,5,3,1,4,0,250.0,train,5,H-
1039.76106644,1,1000,5,1,2,0,5,3,1,4,0,250.0,train,1,H-
784.294128418,4,1000,4,1,2,0,5,3,1,4,0,250.0,train,4,H-
720.484972,2,1000,1,1,2,0,5,3,1,4,0,250.0,train,2,H-
1088.42086792,1,1000,5,1,2,0,5,3,1,4,0,250.0,train,1,H-
912.41812706,3,1000,2,1,2,0,5,3,1,4,0,250.0,train,3,H-
848.328113556,4,1000,4,1,2,0,5,3,1,4,0,250.0,train,4,H-
1440.13404846,1,1000,5,1,2,0,5,3,1,4,0,250.0,train,1,H-
720.133066177,1,1000,5,1,2,0,5,3,1,4,0,250.0,train,1,H-
816.457033157,0,1000,0,1,2,0,5,3,1,4,0,250.0,train,0,H-
976.265907288,2,1000,1,1,2,0,5,3,1,4,0,250.0,train,2,H-
992.277145386,1,1000,5,1,2,0,5,3,1,4,0,250.0,train,1,H-
1408.00094604,0,1000,0,1,2,0,5,3,1,4,0,250.0,train,0,H-
816.384077072,1,1000,5,1,2,0,5,3,1,4,0,250.0,train,1,H-
1440.32692909,0,1000,0,1,2,0,5,3,1,4,0,250.0,train,0,H-
1008.30602646,3,1000,2,1,2,0,5,3,1,4,0,250.0,train,3,H-
816.168069839,0,1000,0,1,2,0,5,3,1,4,0,250.0,train,0,H-
880.150794983,3,1000,2,1,2,0,5,3,1,4,0,250.0,train,3,H-
672.367095947,5,1000,3,1,2,0,5,3,1,4,0,250.0,train,5,H-
768.364191055,3,1000,2,1,2,0,5,3,1,4,0,250.0,train,3,H-
528.35893631,3,1000,2,1,2,0,5,3,1,4,0,250.0,train,3,H-
896.460056305,1,1000,5,1,2,0,5,3,1,4,0,250.0,train,1,H-
560.126066208,5,1000,3,1,2,0,5,3,1,4,0,250.0,train,5,H-
816.299915314,1,1000,5,1,2,0,5,3,1,4,0,250.0,train,1,H-
848.377943039,3,1000,2,1,2,0,5,3,1,4,0,250.0,train,3,H-
640.333890915,3,1000,2,1,2,0,5,3,1,4,0,250.0,train,3,H-
624.392032623,1,1000,5,1,2,0,5,3,1,4,0,250.0,train,1,H-
1168.37692261,4,1000,4,1,2,0,5,3,1,4,0,250.0,train,4,H-
527.947902679,5,1000,3,1,2,0,5,3,1,4,0,250.0,train,5,H-
672.39689827,4,1000,4,1,2,0,5,3,1,4,0,250.0,train,4,H-
512.326002121,2,1000,1,1,2,0,5,3,1,4,0,250.0,train,2,H-
592.272996902,5,1000,3,1,2,0,5,3,1,4,0,250.0,train,5,H-
640.101909637,5,1000,3,1,2,0,5,3,1,4,0,250.0,train,5,H-
735.975980759,2,1000,1,1,2,0,5,3,1,4,0,250.0,train,2,H-
640.376091003,3,1000,2,1,2,0,5,3,1,4,0,250.0,train,3,H-
736.302137375,5,1000,3,1,2,0,5,3,1,4,0,250.0,train,5,H-
512.32790947,5,1000,3,1,2,0,5,3,1,4,0,250.0,train,5,H-
640.240192413,4,1000,4,1,2,0,5,3,1,4,0,250.0,train,4,H-
960.294961929,0,1000,0,1,2,0,5,3,1,4,0,250.0,train,0,H-
592.27013588,5,1000,3,1,2,0,5,3,1,4,0,250.0,train,5,H-
576.267957687,3,1000,2,1,2,0,5,3,1,4,0,250.0,train,3,H-
576.207876205,3,1000,2,1,2,0,5,3,1,4,0,250.0,train,3,H-
800.412893295,0,1000,0,1,2,0,5,3,1,4,0,250.0,train,0,H-
656.42619133,0,1000,0,1,2,0,5,3,1,4,0,250.0,train,0,H-
496.320962906,3,1000,2,1,2,0,5,3,1,4,0,250.0,train,3,H-
544.233083725,5,1000,3,1,2,0,5,3,1,4,0,250.0,train,5,H-
832.340955734,3,1000,2,1,2,0,5,3,1,4,0,250.0,train,3,H-
880.462884903,1,1000,5,1,2,0,5,3,1,4,0,250.0,train,1,H-
800.436019897,3,1000,2,1,2,0,5,3,1,4,0,250.0,train,3,H-
736.334085464,1,1000,5,1,2,0,5,3,1,4,0,250.0,train,1,H-
560.271024704,5,1000,3,1,2,0,5,3,1,4,0,250.0,train,5,H-
1152.19092369,5,1000,3,1,2,0,5,3,1,4,0,250.0,train,5,H-
704.329013824,2,1000,1,1,2,0,5,3,1,4,0,250.0,train,2,H-
752.239942551,1,1000,5,1,2,0,5,3,1,4,0,250.0,train,1,H-
656.245946884,3,1000,2,1,2,0,5,3,1,4,0,250.0,train,3,H-
608.369112015,1,1000,5,1,2,0,5,3,1,4,0,250.0,train,1,H-
896.363019943,3,1000,2,1,2,0,5,3,1,4,0,250.0,train,3,H-
736.491918564,4,1000,4,1,2,0,5,3,1,4,0,250.0,train,4,H-
544.43192482,3,1000,2,1,2,0,5,3,1,4,0,250.0,train,3,H-
608.458995819,2,1000,1,1,2,0,5,3,1,4,0,250.0,train,2,H-
992.378950119,3,1000,2,1,2,0,5,3,1,4,0,250.0,train,3,H-
1008.43906403,4,1000,4,1,2,0,5,3,1,4,0,250.0,train,4,H-
687.93296814,2,1000,1,1,2,0,5,3,1,4,0,250.0,train,2,H-
783.866882324,1,1000,5,1,2,0,5,3,1,4,0,250.0,train,1,H-
655.823945999,2,1000,1,1,2,0,5,3,1,4,0,250.0,train,2,H-
719.850063324,0,1000,0,1,2,0,5,3,1,4,0,250.0,train,0,H-
591.915130615,3,1000,2,1,2,0,5,3,1,4,0,250.0,train,3,H-
720.764160156,0,1000,0,1,2,0,5,3,1,4,0,250.0,train,0,H-
672.739982605,2,1000,1,1,2,0,5,3,1,4,0,250.0,train,2,H-
608.690023422,2,1000,1,1,2,0,5,3,1,4,0,250.0,train,2,H-
5535.44306755,4,1000,4,1,5,1,3,0,2,4,0,250.0,test,4,H-
1440.07205963,0,1000,2,1,5,1,3,0,2,4,0,250.0,test,0,H-
1376.29795074,5,1000,1,1,5,1,3,0,2,4,0,250.0,test,5,H-
1344.28119659,2,1000,5,1,5,1,3,0,2,4,0,250.0,test,2,H-
1104.37607765,4,1000,4,0,5,1,3,0,2,4,0,250.0,test,1,H-
832.15379715,4,1000,4,1,5,1,3,0,2,4,0,250.0,test,4,H-
976.493835449,5,1000,1,1,5,1,3,0,2,4,0,250.0,test,5,H-
752.300024033,5,1000,1,1,5,1,3,0,2,4,0,250.0,test,5,H-
544.373035431,5,1000,1,1,5,1,3,0,2,4,0,250.0,test,5,H-
1072.42918015,0,1000,2,1,5,1,3,0,2,4,0,250.0,test,0,H-
1120.3520298,2,1000,5,1,5,1,3,0,2,4,0,250.0,test,2,H-
1024.41215515,0,1000,2,1,5,1,3,0,2,4,0,250.0,test,0,H-
896.380901337,2,1000,5,1,5,1,3,0,2,4,0,250.0,test,2,H-
832.507133484,4,1000,4,1,5,1,3,0,2,4,0,250.0,test,4,H-
1120.41211128,0,1000,2,1,5,1,3,0,2,4,0,250.0,test,0,H-
1104.36916351,3,1000,3,1,5,1,3,0,2,4,0,250.0,test,3,H-
736.34314537,0,1000,2,1,5,1,3,0,2,4,0,250.0,test,0,H-
832.118988037,0,1000,2,1,5,1,3,0,2,4,0,250.0,test,0,H-
816.395044327,5,1000,1,1,5,1,3,0,2,4,0,250.0,test,5,H-
768.330097198,4,1000,4,1,5,1,3,0,2,4,0,250.0,test,4,H-
832.487106323,2,1000,5,1,5,1,3,0,2,4,0,250.0,test,2,H-
640.371084213,1,1000,0,1,5,1,3,0,2,4,0,250.0,test,1,H-
608.093976974,1,1000,0,1,5,1,3,0,2,4,0,250.0,test,1,H-
784.290075302,2,1000,5,1,5,1,3,0,2,4,0,250.0,test,2,H-
896.248102188,4,1000,4,1,5,1,3,0,2,4,0,250.0,test,4,H-
704.32305336,4,1000,4,1,5,1,3,0,2,4,0,250.0,test,4,H-
576.316833496,4,1000,4,1,5,1,3,0,2,4,0,250.0,test,4,H-
880.433082581,3,1000,3,1,5,1,3,0,2,4,0,250.0,test,3,H-
655.956983566,4,1000,4,1,5,1,3,0,2,4,0,250.0,test,4,H-
928.17902565,5,1000,1,1,5,1,3,0,2,4,0,250.0,test,5,H-
752.226114273,3,1000,3,1,5,1,3,0,2,4,0,250.0,test,3,H-
1040.4689312,2,1000,5,1,5,1,3,0,2,4,0,250.0,test,2,H-
672.370910645,1,1000,0,1,5,1,3,0,2,4,0,250.0,test,1,H-
640.029907227,1,1000,0,1,5,1,3,0,2,4,0,250.0,test,1,H-
1535.75396538,5,1000,1,1,5,1,3,0,2,4,0,250.0,test,5,H-
1135.64610481,2,1000,5,1,5,1,3,0,2,4,0,250.0,test,2,H-
783.915042877,4,1000,4,1,5,1,3,0,2,4,0,250.0,test,4,H-
1104.27308083,1,1000,0,1,5,1,3,0,2,4,0,250.0,test,1,H-
1055.99808693,5,1000,1,1,5,1,3,0,2,4,0,250.0,test,5,H-
688.251972198,4,1000,4,1,5,1,3,0,2,4,0,250.0,test,4,H-
960.330963135,3,1000,3,1,5,1,3,0,2,4,0,250.0,test,3,H-
816.302061081,0,1000,2,1,5,1,3,0,2,4,0,250.0,test,0,H-
1104.4781208,5,1000,1,1,5,1,3,0,2,4,0,250.0,test,5,H-
1216.33720398,1,1000,0,1,5,1,3,0,2,4,0,250.0,test,1,H-
800.328969955,0,1000,2,1,5,1,3,0,2,4,0,250.0,test,0,H-
624.022006989,0,1000,2,1,5,1,3,0,2,4,0,250.0,test,0,H-
944.365024567,5,1000,1,1,5,1,3,0,2,4,0,250.0,test,5,H-
656.434059143,4,1000,4,1,5,1,3,0,2,4,0,250.0,test,4,H-
1296.33688927,0,1000,2,1,5,1,3,0,2,4,0,250.0,test,0,H-
1425.12083054,5,1000,1,1,5,1,3,0,2,4,0,250.0,test,5,H-
656.378984451,4,1000,4,1,5,1,3,0,2,4,0,250.0,test,4,H-
816.426992416,5,1000,1,1,5,1,3,0,2,4,0,250.0,test,5,H-
832.196950912,4,1000,4,1,5,1,3,0,2,4,0,250.0,test,4,H-
704.073190689,4,1000,4,1,5,1,3,0,2,4,0,250.0,test,4,H-
736.512899399,5,1000,1,1,5,1,3,0,2,4,0,250.0,test,5,H-
880.11097908,3,1000,3,1,5,1,3,0,2,4,0,250.0,test,3,H-
736.722946167,3,1000,3,1,5,1,3,0,2,4,0,250.0,test,3,H-
1328.60803604,2,1000,5,1,5,1,3,0,2,4,0,250.0,test,2,H-
1536.70907021,1,1000,0,1,5,1,3,0,2,4,0,250.0,test,1,H-
945.526838303,1,1000,0,1,5,1,3,0,2,4,0,250.0,test,1,H-
720.321178436,5,1000,1,1,5,1,3,0,2,4,0,250.0,test,5,H-
592.031955719,5,1000,1,1,5,1,3,0,2,4,0,250.0,test,5,H-
816.434860229,1,1000,0,1,5,1,3,0,2,4,0,250.0,test,1,H-
879.80389595,0,1000,2,1,5,1,3,0,2,4,0,250.0,test,0,H-
671.757936478,4,1000,4,1,5,1,3,0,2,4,0,250.0,test,4,H-
783.578872681,3,1000,3,1,5,1,3,0,2,4,0,250.0,test,3,H-
544.078111649,3,1000,3,1,5,1,3,0,2,4,0,250.0,test,3,H-
1152.10986137,2,1000,5,1,5,1,3,0,2,4,0,250.0,test,2,H-
768.084049225,2,1000,5,1,5,1,3,0,2,4,0,250.0,test,2,H-
879.989147186,1,1000,0,1,5,1,3,0,2,4,0,250.0,test,1,H-
816.295862198,4,1000,4,1,5,1,3,0,2,4,0,250.0,test,4,H-
1184.27586555,1,1000,0,1,5,1,3,0,2,4,0,250.0,test,1,H-
624.15099144,5,1000,1,1,5,1,3,0,2,4,0,250.0,test,5,H-
687.783956528,4,1000,4,1,5,1,3,0,2,4,0,250.0,test,4,H-
704.707860947,1,1000,0,1,5,1,3,0,2,4,0,250.0,test,1,H-
1104.39395905,0,1000,2,1,5,1,3,0,2,4,0,250.0,test,0,H-
736.623048782,0,1000,2,1,5,1,3,0,2,4,0,250.0,test,0,H-
1247.38001823,3,1000,3,1,5,1,3,0,2,4,0,250.0,test,3,H-
768.694877625,0,1000,2,1,5,1,3,0,2,4,0,250.0,test,0,H-
992.152929306,0,1000,2,1,5,1,3,0,2,4,0,250.0,test,0,H-
656.202077866,3,1000,3,1,5,1,3,0,2,4,0,250.0,test,3,H-
624.65596199,5,1000,1,1,5,1,3,0,2,4,0,250.0,test,5,H-
864.624023438,3,1000,3,1,5,1,3,0,2,4,0,250.0,test,3,H-
2000.65994263,1,1000,0,1,5,1,3,0,2,4,0,250.0,test,1,H-
608.691215515,1,1000,0,1,5,1,3,0,2,4,0,250.0,test,1,H-
639.999866486,0,1000,2,1,5,1,3,0,2,4,0,250.0,test,0,H-
623.934984207,0,1000,2,1,5,1,3,0,2,4,0,250.0,test,0,H-
543.648958206,0,1000,2,1,5,1,3,0,2,4,0,250.0,test,0,H-
1087.93997765,5,1000,1,1,5,1,3,0,2,4,0,250.0,test,5,H-
608.378887177,5,1000,1,1,5,1,3,0,2,4,0,250.0,test,5,H-
623.773097992,0,1000,2,1,5,1,3,0,2,4,0,250.0,test,0,H-
719.895839691,3,1000,3,1,5,1,3,0,2,4,0,250.0,test,3,H-
1039.80302811,2,1000,5,1,5,1,3,0,2,4,0,250.0,test,2,H-
640.014886856,3,1000,3,1,5,1,3,0,2,4,0,250.0,test,3,H-
623.81696701,4,1000,4,1,5,1,3,0,2,4,0,250.0,test,4,H-
896.08502388,2,1000,5,1,5,1,3,0,2,4,0,250.0,test,2,H-
703.891992569,1,1000,0,1,5,1,3,0,2,4,0,250.0,test,1,H-
784.383058548,2,1000,5,1,5,1,3,0,2,4,0,250.0,test,2,H-
623.89087677,4,1000,4,1,5,1,3,0,2,4,0,250.0,test,4,H-
1088.33599091,3,1000,3,1,5,1,3,0,2,4,0,250.0,test,3,H-
1152.11701393,2,1000,5,1,5,1,3,0,2,4,0,250.0,test,2,H-
655.839920044,4,1000,4,1,5,1,3,0,2,4,0,250.0,test,4,H-
1007.70998001,0,1000,2,1,5,1,3,0,2,4,0,250.0,test,0,H-
831.594944,2,1000,5,1,5,1,3,0,2,4,0,250.0,test,2,H-
784.124135971,0,1000,2,1,5,1,3,0,2,4,0,250.0,test,0,H-
687.853097916,2,1000,5,1,5,1,3,0,2,4,0,250.0,test,2,H-
783.814191818,5,1000,1,1,5,1,3,0,2,4,0,250.0,test,5,H-
959.794044495,1,1000,0,1,5,1,3,0,2,4,0,250.0,test,1,H-
720.290899277,3,1000,3,1,5,1,3,0,2,4,0,250.0,test,3,H-
640.294790268,0,1000,2,1,5,1,3,0,2,4,0,250.0,test,0,H-
623.776912689,3,1000,3,1,5,1,3,0,2,4,0,250.0,test,3,H-
559.906959534,4,1000,4,1,5,1,3,0,2,4,0,250.0,test,4,H-
608.036994934,0,1000,2,1,5,1,3,0,2,4,0,250.0,test,0,H-
464.617967606,0,1000,2,1,5,1,3,0,2,4,0,250.0,test,0,H-
592.617988586,1,1000,0,1,5,1,3,0,2,4,0,250.0,test,1,H-
528.663873672,0,1000,2,1,5,1,3,0,2,4,0,250.0,test,0,H-
576.70712471,2,1000,5,0,5,1,3,0,2,4,0,250.0,test,1,H-
1168.69688034,5,1000,1,1,5,1,3,0,2,4,0,250.0,test,5,H-
1216.60399437,1,1000,0,1,5,1,3,0,2,4,0,250.0,test,1,H-
448.679208755,1,1000,0,1,5,1,3,0,2,4,0,250.0,test,1,H-
479.385137558,1,1000,0,1,5,1,3,0,2,4,0,250.0,test,1,H-
720.107078552,2,1000,5,1,5,1,3,0,2,4,0,250.0,test,2,H-
704.240083694,4,1000,4,1,5,1,3,0,2,4,0,250.0,test,4,H-
528.187036514,5,1000,1,1,5,1,3,0,2,4,0,250.0,test,5,H-
496.300935745,5,1000,1,0,5,1,3,0,2,4,0,250.0,test,4,H-
960.687160492,2,1000,5,1,5,1,3,0,2,4,0,250.0,test,2,H-
656.627893448,0,1000,2,1,5,1,3,0,2,4,0,250.0,test,0,H-
608.637094498,4,1000,4,1,5,1,3,0,2,4,0,250.0,test,4,H-
2224.1768837,0,1000,2,1,5,1,3,0,2,4,0,250.0,test,0,H-
624.216079712,4,1000,4,1,5,1,3,0,2,4,0,250.0,test,4,H-
656.321048737,5,1000,1,1,5,1,3,0,2,4,0,250.0,test,5,H-
1135.91504097,2,1000,5,1,5,1,3,0,2,4,0,250.0,test,2,H-
864.348888397,2,1000,5,1,5,1,3,0,2,4,0,250.0,test,2,H-
1871.27709389,0,1000,2,1,5,1,3,0,2,4,0,250.0,test,0,H-
591.255903244,5,1000,1,1,5,1,3,0,2,4,0,250.0,test,5,H-
975.931882858,3,1000,3,1,5,1,3,0,2,4,0,250.0,test,3,H-
1264.31512833,2,1000,5,1,5,1,3,0,2,4,0,250.0,test,2,H-
704.329013824,4,1000,4,1,5,1,3,0,2,4,0,250.0,test,4,H-
671.319007874,0,1000,2,1,5,1,3,0,2,4,0,250.0,test,0,H-
1280.36403656,1,1000,0,1,5,1,3,0,2,4,0,250.0,test,1,H-
639.757156372,0,1000,2,1,5,1,3,0,2,4,0,250.0,test,0,H-
639.876127243,1,1000,0,1,5,1,3,0,2,4,0,250.0,test,1,H-
799.366235733,4,1000,4,1,5,1,3,0,2,4,0,250.0,test,4,H-
1088.31214905,0,1000,2,1,5,1,3,0,2,4,0,250.0,test,0,H-
1120.35703659,4,1000,4,1,5,1,3,0,2,4,0,250.0,test,4,H-
1615.85307121,2,1000,5,1,5,1,3,0,2,4,0,250.0,test,2,H-
912.715196609,2,1000,5,1,5,1,3,0,2,4,0,250.0,test,2,H-
784.630060196,2,1000,5,1,5,1,3,0,2,4,0,250.0,test,2,H-
1024.71089363,3,1000,3,1,5,1,3,0,2,4,0,250.0,test,3,H-
1200.74701309,0,1000,2,1,5,1,3,0,2,4,0,250.0,test,0,H-
1631.50596619,2,1000,5,1,5,1,3,0,2,4,0,250.0,test,2,H-
639.827013016,2,1000,5,1,5,1,3,0,2,4,0,250.0,test,2,H-
832.644939423,4,1000,4,1,5,1,3,0,2,4,0,250.0,test,4,H-
2240.65113068,3,1000,3,1,5,1,3,0,2,4,0,250.0,test,3,H-
736.668109894,3,1000,3,1,5,1,3,0,2,4,0,250.0,test,3,H-
672.212839127,3,1000,3,0,5,1,3,0,2,4,0,250.0,test,4,H-
576.717853546,4,1000,4,1,5,1,3,0,2,4,0,250.0,test,4,H-
672.33300209,1,1000,0,1,5,1,3,0,2,4,0,250.0,test,1,H-
864.251852036,2,1000,5,1,5,1,3,0,2,4,0,250.0,test,2,H-
687.9529953,0,1000,2,1,5,1,3,0,2,4,0,250.0,test,0,H-
592.357873917,5,1000,1,1,5,1,3,0,2,4,0,250.0,test,5,H-
608.337163925,4,1000,4,1,5,1,3,0,2,4,0,250.0,test,4,H-
2384.54604149,1,1000,0,1,5,1,3,0,2,4,0,250.0,test,1,H-
575.877904892,0,1000,2,1,5,1,3,0,2,4,0,250.0,test,0,H-
816.017150879,2,1000,5,1,5,1,3,0,2,4,0,250.0,test,2,H-
688.090085983,3,1000,3,1,5,1,3,0,2,4,0,250.0,test,3,H-
1727.63586044,1,1000,0,1,5,1,3,0,2,4,0,250.0,test,1,H-
703.805923462,4,1000,4,1,5,1,3,0,2,4,0,250.0,test,4,H-
735.913038254,4,1000,4,1,5,1,3,0,2,4,0,250.0,test,4,H-
735.89015007,3,1000,3,1,5,1,3,0,2,4,0,250.0,test,3,H-
688.335895538,4,1000,4,1,5,1,3,0,2,4,0,250.0,test,4,H-
623.513936996,3,1000,3,1,5,1,3,0,2,4,0,250.0,test,3,H-
799.94893074,1,1000,0,1,5,1,3,0,2,4,0,250.0,test,1,H-
895.915031433,5,1000,1,1,5,1,3,0,2,4,0,250.0,test,5,H-
688.027143478,0,1000,2,1,5,1,3,0,2,4,0,250.0,test,0,H-
607.871055603,1,1000,0,1,5,1,3,0,2,4,0,250.0,test,1,H-
752.269029617,0,1000,2,1,5,1,3,0,2,4,0,250.0,test,0,H-
639.811038971,0,1000,2,1,5,1,3,0,2,4,0,250.0,test,0,H-
544.298887253,0,1000,2,1,5,1,3,0,2,4,0,250.0,test,0,H-
831.909894943,4,1000,4,1,5,1,3,0,2,4,0,250.0,test,4,H-
640.383958817,5,1000,1,1,5,1,3,0,2,4,0,250.0,test,5,H-
672.291994095,0,1000,2,1,5,1,3,0,2,4,0,250.0,test,0,H-
704.230070114,4,1000,4,1,5,1,3,0,2,4,0,250.0,test,4,H-
32.1440696716,1,1000,0,1,5,1,3,0,2,4,0,250.0,test,1,H-
175.770998001,4,1000,4,1,5,1,3,0,2,4,0,250.0,test,4,H-
1264.17684555,1,1000,0,1,5,1,3,0,2,4,0,250.0,test,1,H-
864.543199539,5,1000,1,1,5,1,3,0,2,4,0,250.0,test,5,H-
495.91588974,4,1000,4,0,5,1,3,0,2,4,0,250.0,test,5,H-
592.642068863,1,1000,0,1,5,1,3,0,2,4,0,250.0,test,1,H-
671.82302475,2,1000,5,1,5,1,3,0,2,4,0,250.0,test,2,H-
576.677083969,1,1000,0,1,5,1,3,0,2,4,0,250.0,test,1,H-
544.721841812,4,1000,4,1,5,1,3,0,2,4,0,250.0,test,4,H-
688.585042953,4,1000,4,1,5,1,3,0,2,4,0,250.0,test,4,H-
1168.65181923,2,1000,5,1,5,1,3,0,2,4,0,250.0,test,2,H-
32.0720672607,1,1000,0,1,5,1,3,0,2,4,0,250.0,test,1,H-
575.958967209,5,1000,1,1,5,1,3,0,2,4,0,250.0,test,5,H-
1200.02317429,1,1000,0,1,5,1,3,0,2,4,0,250.0,test,1,H-
656.629085541,1,1000,0,1,5,1,3,0,2,4,0,250.0,test,1,H-
704.673051834,4,1000,4,1,5,1,3,0,2,4,0,250.0,test,4,H-
912.143945694,2,1000,5,1,5,1,3,0,2,4,0,250.0,test,2,H-
640.709161758,1,1000,0,1,5,1,3,0,2,4,0,250.0,test,1,H-
576.745033264,0,1000,2,1,5,1,3,0,2,4,0,250.0,test,0,H-
624.15099144,5,1000,1,1,5,1,3,0,2,4,0,250.0,test,5,H-
624.713897705,4,1000,4,1,5,1,3,0,2,4,0,250.0,test,4,H-
624.988079071,0,1000,2,1,5,1,3,0,2,4,0,250.0,test,0,H-
416.674137115,0,1000,2,1,5,1,3,0,2,4,0,250.0,test,0,H-
640.730857849,3,1000,3,1,5,1,3,0,2,4,0,250.0,test,3,H-
576.740026474,1,1000,0,1,5,1,3,0,2,4,0,250.0,test,1,H-
928.714036942,2,1000,5,1,5,1,3,0,2,4,0,250.0,test,2,H-
816.67804718,1,1000,0,1,5,1,3,0,2,4,0,250.0,test,1,H-
736.690998077,2,1000,5,0,5,1,3,0,2,4,0,250.0,test,1,H-
592.633008957,0,1000,2,1,5,1,3,0,2,4,0,250.0,test,0,H-
656.640052795,4,1000,4,1,5,1,3,0,2,4,0,250.0,test,4,H-
592.668056488,5,1000,1,1,5,1,3,0,2,4,0,250.0,test,5,H-
1024.75690842,2,1000,5,1,5,1,3,0,2,4,0,250.0,test,2,H-
656.556844711,3,1000,3,1,5,1,3,0,2,4,0,250.0,test,3,H-
624.539852142,3,1000,3,1,5,1,3,0,2,4,0,250.0,test,3,H-
624.655008316,0,1000,2,1,5,1,3,0,2,4,0,250.0,test,0,H-
1008.58902931,2,1000,5,1,5,1,3,0,2,4,0,250.0,test,2,H-
576.195955276,5,1000,1,1,5,1,3,0,2,4,0,250.0,test,5,H-
688.709020615,5,1000,1,1,5,1,3,0,2,4,0,250.0,test,5,H-
880.628108978,0,1000,2,1,5,1,3,0,2,4,0,250.0,test,0,H-
815.761089325,5,1000,1,1,5,1,3,0,2,4,0,250.0,test,5,H-
656.021118164,3,1000,3,1,5,1,3,0,2,4,0,250.0,test,3,H-
784.080982208,0,1000,2,1,5,1,3,0,2,4,0,250.0,test,0,H-
1295.9048748,2,1000,5,1,5,1,3,0,2,4,0,250.0,test,2,H-
1184.77106094,3,1000,3,1,5,1,3,0,2,4,0,250.0,test,3,H-
912.658929825,0,1000,2,1,5,1,3,0,2,4,0,250.0,test,0,H-
1088.67692947,2,1000,5,1,5,1,3,0,2,4,0,250.0,test,2,H-
624.154090881,5,1000,1,1,5,1,3,0,2,4,0,250.0,test,5,H-
928.647041321,2,1000,5,1,5,1,3,0,2,4,0,250.0,test,2,H-
559.854030609,2,1000,5,1,5,1,3,0,2,4,0,250.0,test,2,H-
735.844135284,3,1000,3,1,5,1,3,0,2,4,0,250.0,test,3,H-
640.649080276,4,1000,4,1,5,1,3,0,2,4,0,250.0,test,4,H-
624.612092972,4,1000,4,1,5,1,3,0,2,4,0,250.0,test,4,H-
607.926130295,5,1000,1,1,5,1,3,0,2,4,0,250.0,test,5,H-
959.825992584,2,1000,5,1,5,1,3,0,2,4,0,250.0,test,2,H-
576.250076294,0,1000,2,1,5,1,3,0,2,4,0,250.0,test,0,H-
687.997102737,3,1000,3,1,5,1,3,0,2,4,0,250.0,test,3,H-
575.903892517,5,1000,1,1,5,1,3,0,2,4,0,250.0,test,5,H-
624.006986618,0,1000,2,1,5,1,3,0,2,4,0,250.0,test,0,H-
495.903968811,0,1000,2,1,5,1,3,0,2,4,0,250.0,test,0,H-
511.873960495,0,1000,2,1,5,1,3,0,2,4,0,250.0,test,0,H-
607.729196548,1,1000,0,1,5,1,3,0,2,4,0,250.0,test,1,H-
703.700065613,3,1000,3,1,5,1,3,0,2,4,0,250.0,test,3,H-
735.510110855,3,1000,3,1,5,1,3,0,2,4,0,250.0,test,3,H-
527.865886688,3,1000,3,1,5,1,3,0,2,4,0,250.0,test,3,H-
624.123096466,0,1000,2,1,5,1,3,0,2,4,0,250.0,test,0,H-
607.86485672,5,1000,1,1,5,1,3,0,2,4,0,250.0,test,5,H-
751.821994781,3,1000,3,1,5,1,3,0,2,4,0,250.0,test,3,H-
