RT,correct_response,ms-prestimblank,curstim,correct,SRmap_1,SRmap_0,SRmap_3,SRmap_2,SRmap_5,SRmap_4,ms-precue,ntrials,type,response,condition
7533.55193138,2,600,5,1,4,5,0,1,2,3,400,250.0,train,2,E-
2078.10997963,3,600,4,1,4,5,0,1,2,3,400,250.0,train,3,E-
830.184936523,3,600,4,1,4,5,0,1,2,3,400,250.0,train,3,E-
382.107019424,1,600,2,0,4,5,0,1,2,3,400,250.0,train,0,E-
366.796016693,2,600,5,1,4,5,0,1,2,3,400,250.0,train,2,E-
190.635919571,2,600,5,0,4,5,0,1,2,3,400,250.0,train,1,E-
430.773973465,5,600,0,1,4,5,0,1,2,3,400,250.0,train,5,E-
430.908918381,1,600,2,1,4,5,0,1,2,3,400,250.0,train,1,E-
542.82283783,4,600,1,1,4,5,0,1,2,3,400,250.0,train,4,E-
174.798965454,0,600,3,1,4,5,0,1,2,3,400,250.0,train,0,E-
190.106153488,2,600,5,1,4,5,0,1,2,3,400,250.0,train,2,E-
126.906871796,5,600,0,1,4,5,0,1,2,3,400,250.0,train,5,E-
15.1889324188,0,600,3,1,4,5,0,1,2,3,400,250.0,train,0,E-
95.0500965118,0,600,3,1,4,5,0,1,2,3,400,250.0,train,0,E-
14.270067215,0,600,3,1,4,5,0,1,2,3,400,250.0,train,0,E-
62.3099803925,4,600,1,0,4,5,0,1,2,3,400,250.0,train,5,E-
333.979845047,2,600,5,1,4,5,0,1,2,3,400,250.0,train,2,E-
95.5131053925,0,600,3,1,4,5,0,1,2,3,400,250.0,train,0,E-
254.384994507,3,600,4,1,4,5,0,1,2,3,400,250.0,train,3,E-
270.845890045,3,600,4,0,4,5,0,1,2,3,400,250.0,train,2,E-
175.679922104,4,600,1,1,4,5,0,1,2,3,400,250.0,train,4,E-
111.580133438,2,600,5,1,4,5,0,1,2,3,400,250.0,train,2,E-
143.634080887,3,600,4,1,4,5,0,1,2,3,400,250.0,train,3,E-
79.6389579773,3,600,4,1,4,5,0,1,2,3,400,250.0,train,3,E-
47.3690032959,3,600,4,1,4,5,0,1,2,3,400,250.0,train,3,E-
95.4489707947,1,600,2,1,4,5,0,1,2,3,400,250.0,train,1,E-
15.6481266022,0,600,3,1,4,5,0,1,2,3,400,250.0,train,0,E-
175.408124924,4,600,1,0,4,5,0,1,2,3,400,250.0,train,3,E-
0.0572204589844,4,600,1,1,4,5,0,1,2,3,400,250.0,train,4,E-
223.016023636,4,600,1,1,4,5,0,1,2,3,400,250.0,train,4,E-
126.935958862,0,600,3,1,4,5,0,1,2,3,400,250.0,train,0,E-
79.1079998016,1,600,2,0,4,5,0,1,2,3,400,250.0,train,0,E-
94.4218635559,4,600,1,0,4,5,0,1,2,3,400,250.0,train,3,E-
142.930984497,0,600,3,1,4,5,0,1,2,3,400,250.0,train,0,E-
382.901906967,3,600,4,0,4,5,0,1,2,3,400,250.0,train,4,E-
382.889032364,5,600,0,1,4,5,0,1,2,3,400,250.0,train,5,E-
78.9279937744,4,600,1,1,4,5,0,1,2,3,400,250.0,train,4,E-
206.235170364,1,600,2,1,4,5,0,1,2,3,400,250.0,train,1,E-
191.031217575,1,600,2,1,4,5,0,1,2,3,400,250.0,train,1,E-
126.776218414,3,600,4,1,4,5,0,1,2,3,400,250.0,train,3,E-
111.266136169,0,600,3,1,4,5,0,1,2,3,400,250.0,train,0,E-
591.524839401,1,600,2,1,4,5,0,1,2,3,400,250.0,train,1,E-
47.7011203766,0,600,3,1,4,5,0,1,2,3,400,250.0,train,0,E-
222.341060638,4,600,1,0,4,5,0,1,2,3,400,250.0,train,3,E-
255.475997925,2,600,5,1,4,5,0,1,2,3,400,250.0,train,2,E-
95.6308841705,3,600,4,1,4,5,0,1,2,3,400,250.0,train,3,E-
223.569869995,1,600,2,1,4,5,0,1,2,3,400,250.0,train,1,E-
63.4410381317,3,600,4,1,4,5,0,1,2,3,400,250.0,train,3,E-
31.5139293671,3,600,4,1,4,5,0,1,2,3,400,250.0,train,3,E-
142.770051956,0,600,3,1,4,5,0,1,2,3,400,250.0,train,0,E-
63.5559558868,0,600,3,1,4,5,0,1,2,3,400,250.0,train,0,E-
510.55598259,0,600,3,1,4,5,0,1,2,3,400,250.0,train,0,E-
303.500890732,4,600,1,1,4,5,0,1,2,3,400,250.0,train,4,E-
126.798868179,5,600,0,1,4,5,0,1,2,3,400,250.0,train,5,E-
271.561861038,1,600,2,1,4,5,0,1,2,3,400,250.0,train,1,E-
143.55802536,3,600,4,0,4,5,0,1,2,3,400,250.0,train,2,E-
303.485155106,1,600,2,1,4,5,0,1,2,3,400,250.0,train,1,E-
255.591869354,2,600,5,0,4,5,0,1,2,3,400,250.0,train,3,E-
79.6928405762,0,600,3,1,4,5,0,1,2,3,400,250.0,train,0,E-
142.992019653,0,600,3,1,4,5,0,1,2,3,400,250.0,train,0,E-
47.1248626709,0,600,3,1,4,5,0,1,2,3,400,250.0,train,0,E-
175.545930862,5,600,0,1,4,5,0,1,2,3,400,250.0,train,5,E-
175.462961197,1,600,2,1,4,5,0,1,2,3,400,250.0,train,1,E-
127.660989761,0,600,3,1,4,5,0,1,2,3,400,250.0,train,0,E-
191.414117813,5,600,0,1,4,5,0,1,2,3,400,250.0,train,5,E-
79.7410011292,3,600,4,1,4,5,0,1,2,3,400,250.0,train,3,E-
79.5040130615,0,600,3,1,4,5,0,1,2,3,400,250.0,train,0,E-
47.5599765778,1,600,2,1,4,5,0,1,2,3,400,250.0,train,1,E-
127.581119537,5,600,0,1,4,5,0,1,2,3,400,250.0,train,5,E-
158.467054367,3,600,4,0,4,5,0,1,2,3,400,250.0,train,2,E-
126.789808273,1,600,2,1,4,5,0,1,2,3,400,250.0,train,1,E-
63.5440349579,5,600,0,1,4,5,0,1,2,3,400,250.0,train,5,E-
63.570022583,4,600,1,1,4,5,0,1,2,3,400,250.0,train,4,E-
79.6041488647,4,600,1,1,4,5,0,1,2,3,400,250.0,train,4,E-
31.6751003265,0,600,3,1,4,5,0,1,2,3,400,250.0,train,0,E-
142.894983292,2,600,5,0,4,5,0,1,2,3,400,250.0,train,1,E-
190.816879272,2,600,5,1,4,5,0,1,2,3,400,250.0,train,2,E-
127.357006073,5,600,0,1,4,5,0,1,2,3,400,250.0,train,5,E-
398.222923279,1,600,2,1,4,5,0,1,2,3,400,250.0,train,1,E-
79.0340900421,0,600,3,1,4,5,0,1,2,3,400,250.0,train,0,E-
175.358057022,1,600,2,0,4,5,0,1,2,3,400,250.0,train,2,E-
46.2820529938,2,600,5,1,4,5,0,1,2,3,400,250.0,train,2,E-
110.335111618,1,600,2,1,4,5,0,1,2,3,400,250.0,train,1,E-
127.626895905,3,600,4,1,4,5,0,1,2,3,400,250.0,train,3,E-
302.33502388,1,600,2,1,4,5,0,1,2,3,400,250.0,train,1,E-
95.5669879913,1,600,2,1,4,5,0,1,2,3,400,250.0,train,1,E-
223.484992981,3,600,4,0,4,5,0,1,2,3,400,250.0,train,2,E-
382.647037506,2,600,5,1,4,5,0,1,2,3,400,250.0,train,2,E-
159.433841705,3,600,4,1,4,5,0,1,2,3,400,250.0,train,3,E-
206.737041473,4,600,1,1,4,5,0,1,2,3,400,250.0,train,4,E-
47.0411777496,3,600,4,1,4,5,0,1,2,3,400,250.0,train,3,E-
511.425971985,1,600,2,1,4,5,0,1,2,3,400,250.0,train,1,E-
239.362955093,5,600,0,1,4,5,0,1,2,3,400,250.0,train,5,E-
111.461877823,4,600,1,1,4,5,0,1,2,3,400,250.0,train,4,E-
159.420967102,5,600,0,1,4,5,0,1,2,3,400,250.0,train,5,E-
143.356084824,0,600,3,0,4,5,0,1,2,3,400,250.0,train,2,E-
79.7040462494,1,600,2,1,4,5,0,1,2,3,400,250.0,train,1,E-
127.510070801,2,600,5,1,4,5,0,1,2,3,400,250.0,train,2,E-
127.509832382,3,600,4,1,4,5,0,1,2,3,400,250.0,train,3,E-
142.930984497,5,600,0,1,4,5,0,1,2,3,400,250.0,train,5,E-
95.2208042145,4,600,1,1,4,5,0,1,2,3,400,250.0,train,4,E-
95.507144928,0,600,3,1,4,5,0,1,2,3,400,250.0,train,0,E-
286.65804863,1,600,2,1,4,5,0,1,2,3,400,250.0,train,1,E-
95.400094986,0,600,3,1,4,5,0,1,2,3,400,250.0,train,0,E-
143.450021744,1,600,2,1,4,5,0,1,2,3,400,250.0,train,1,E-
126.255989075,3,600,4,1,4,5,0,1,2,3,400,250.0,train,3,E-
110.789060593,0,600,3,1,4,5,0,1,2,3,400,250.0,train,0,E-
223.505020142,4,600,1,1,4,5,0,1,2,3,400,250.0,train,4,E-
159.497976303,1,600,2,1,4,5,0,1,2,3,400,250.0,train,1,E-
175.462007523,4,600,1,1,4,5,0,1,2,3,400,250.0,train,4,E-
95.6659317017,5,600,0,1,4,5,0,1,2,3,400,250.0,train,5,E-
191.512107849,3,600,4,1,4,5,0,1,2,3,400,250.0,train,3,E-
111.524105072,1,600,2,1,4,5,0,1,2,3,400,250.0,train,1,E-
159.555196762,0,600,3,1,4,5,0,1,2,3,400,250.0,train,0,E-
159.520864487,0,600,3,1,4,5,0,1,2,3,400,250.0,train,0,E-
335.428953171,2,600,5,1,4,5,0,1,2,3,400,250.0,train,2,E-
239.318132401,4,600,1,1,4,5,0,1,2,3,400,250.0,train,4,E-
191.648006439,5,600,0,1,4,5,0,1,2,3,400,250.0,train,5,E-
126.363039017,4,600,1,1,4,5,0,1,2,3,400,250.0,train,4,E-
654.683828354,4,600,1,1,4,5,0,1,2,3,400,250.0,train,4,E-
31.1398506165,3,600,4,1,4,5,0,1,2,3,400,250.0,train,3,E-
175.314188004,2,600,5,0,4,5,0,1,2,3,400,250.0,train,1,E-
334.136962891,1,600,2,1,4,5,0,1,2,3,400,250.0,train,1,E-
79.0569782257,3,600,4,1,4,5,0,1,2,3,400,250.0,train,3,E-
79.4489383698,4,600,1,1,4,5,0,1,2,3,400,250.0,train,4,E-
143.684148788,0,600,3,1,4,5,0,1,2,3,400,250.0,train,0,E-
95.2680110931,3,600,4,1,4,5,0,1,2,3,400,250.0,train,3,E-
127.531051636,0,600,3,1,4,5,0,1,2,3,400,250.0,train,0,E-
63.2400512695,0,600,3,1,4,5,0,1,2,3,400,250.0,train,0,E-
47.6641654968,0,600,3,1,4,5,0,1,2,3,400,250.0,train,0,E-
207.479000092,5,600,0,1,4,5,0,1,2,3,400,250.0,train,5,E-
111.425161362,0,600,3,1,4,5,0,1,2,3,400,250.0,train,0,E-
110.940933228,1,600,2,0,4,5,0,1,2,3,400,250.0,train,0,E-
111.056089401,1,600,2,1,4,5,0,1,2,3,400,250.0,train,1,E-
14.830827713,1,600,2,1,4,5,0,1,2,3,400,250.0,train,1,E-
47.5420951843,0,600,3,1,4,5,0,1,2,3,400,250.0,train,0,E-
175.446987152,1,600,2,1,4,5,0,1,2,3,400,250.0,train,1,E-
78.9589881897,1,600,2,1,4,5,0,1,2,3,400,250.0,train,1,E-
191.236019135,4,600,1,1,4,5,0,1,2,3,400,250.0,train,4,E-
79.5600414276,0,600,3,1,4,5,0,1,2,3,400,250.0,train,0,E-
159.560918808,5,600,0,1,4,5,0,1,2,3,400,250.0,train,5,E-
175.56810379,0,600,3,1,4,5,0,1,2,3,400,250.0,train,0,E-
175.401926041,0,600,3,1,4,5,0,1,2,3,400,250.0,train,0,E-
671.504974365,3,600,4,1,4,5,0,1,2,3,400,250.0,train,3,E-
207.445859909,1,600,2,1,4,5,0,1,2,3,400,250.0,train,1,E-
143.583059311,5,600,0,1,4,5,0,1,2,3,400,250.0,train,5,E-
158.237218857,5,600,0,1,4,5,0,1,2,3,400,250.0,train,5,E-
79.5531272888,0,600,3,1,4,5,0,1,2,3,400,250.0,train,0,E-
223.578929901,4,600,1,1,4,5,0,1,2,3,400,250.0,train,4,E-
286.66305542,4,600,1,1,4,5,0,1,2,3,400,250.0,train,4,E-
109.848976135,3,600,4,1,4,5,0,1,2,3,400,250.0,train,3,E-
78.6139965057,5,600,0,1,4,5,0,1,2,3,400,250.0,train,5,E-
94.2897796631,5,600,0,1,4,5,0,1,2,3,400,250.0,train,5,E-
110.965967178,4,600,1,1,4,5,0,1,2,3,400,250.0,train,4,E-
255.487918854,2,600,5,0,4,5,0,1,2,3,400,250.0,train,1,E-
95.587015152,1,600,2,1,4,5,0,1,2,3,400,250.0,train,1,E-
15.5229568481,0,600,3,1,4,5,0,1,2,3,400,250.0,train,0,E-
95.5030918121,1,600,2,1,4,5,0,1,2,3,400,250.0,train,1,E-
143.4237957,3,600,4,1,4,5,0,1,2,3,400,250.0,train,3,E-
79.4620513916,0,600,3,0,4,5,0,1,2,3,400,250.0,train,2,E-
94.9900150299,5,600,0,1,4,5,0,1,2,3,400,250.0,train,5,E-
126.848220825,0,600,3,1,4,5,0,1,2,3,400,250.0,train,0,E-
302.391052246,2,600,5,1,4,5,0,1,2,3,400,250.0,train,2,E-
47.4669933319,2,600,5,1,4,5,0,1,2,3,400,250.0,train,2,E-
46.9789505005,0,600,3,1,4,5,0,1,2,3,400,250.0,train,0,E-
62.4260902405,5,600,0,0,4,5,0,1,2,3,400,250.0,train,2,E-
143.534898758,5,600,0,1,4,5,0,1,2,3,400,250.0,train,5,E-
62.511920929,0,600,3,0,4,5,0,1,2,3,400,250.0,train,2,E-
158.908843994,5,600,0,1,4,5,0,1,2,3,400,250.0,train,5,E-
110.335826874,4,600,1,1,4,5,0,1,2,3,400,250.0,train,4,E-
142.916917801,4,600,1,1,4,5,0,1,2,3,400,250.0,train,4,E-
157.963991165,0,600,3,1,4,5,0,1,2,3,400,250.0,train,0,E-
46.5369224548,0,600,3,1,4,5,0,1,2,3,400,250.0,train,0,E-
207.332134247,3,600,4,0,4,5,0,1,2,3,400,250.0,train,2,E-
271.510124207,2,600,5,1,4,5,0,1,2,3,400,250.0,train,2,E-
191.314220428,5,600,0,1,4,5,0,1,2,3,400,250.0,train,5,E-
126.957178116,2,600,5,1,4,5,0,1,2,3,400,250.0,train,2,E-
79.1871547699,5,600,0,1,4,5,0,1,2,3,400,250.0,train,5,E-
47.5871562958,1,600,2,1,4,5,0,1,2,3,400,250.0,train,1,E-
302.94418335,3,600,4,1,4,5,0,1,2,3,400,250.0,train,3,E-
175.114870071,3,600,4,1,4,5,0,1,2,3,400,250.0,train,3,E-
607.578992844,3,600,4,1,4,5,0,1,2,3,400,250.0,train,3,E-
447.467088699,3,600,4,1,4,5,0,1,2,3,400,250.0,train,3,E-
191.547870636,5,600,0,1,4,5,0,1,2,3,400,250.0,train,5,E-
223.435878754,3,600,4,1,4,5,0,1,2,3,400,250.0,train,3,E-
223.593950272,4,600,1,1,4,5,0,1,2,3,400,250.0,train,4,E-
127.507925034,4,600,1,1,4,5,0,1,2,3,400,250.0,train,4,E-
543.403148651,0,600,3,0,4,5,0,1,2,3,400,250.0,train,2,E-
382.805109024,2,600,5,1,4,5,0,1,2,3,400,250.0,train,2,E-
270.42388916,4,600,1,1,4,5,0,1,2,3,400,250.0,train,4,E-
366.717100143,0,600,3,1,4,5,0,1,2,3,400,250.0,train,0,E-
174.872875214,1,600,2,1,4,5,0,1,2,3,400,250.0,train,1,E-
239.580869675,2,600,5,1,4,5,0,1,2,3,400,250.0,train,2,E-
237.874984741,4,600,1,1,4,5,0,1,2,3,400,250.0,train,4,E-
221.0521698,4,600,1,1,4,5,0,1,2,3,400,250.0,train,4,E-
206.973075867,1,600,2,1,4,5,0,1,2,3,400,250.0,train,1,E-
238.423109055,1,600,2,1,4,5,0,1,2,3,400,250.0,train,1,E-
255.419015884,4,600,1,1,4,5,0,1,2,3,400,250.0,train,4,E-
159.076929092,5,600,0,1,4,5,0,1,2,3,400,250.0,train,5,E-
558.246850967,1,600,2,1,4,5,0,1,2,3,400,250.0,train,1,E-
350.857973099,3,600,4,0,4,5,0,1,2,3,400,250.0,train,4,E-
191.003084183,4,600,1,1,4,5,0,1,2,3,400,250.0,train,4,E-
206.103086472,2,600,5,1,4,5,0,1,2,3,400,250.0,train,2,E-
190.70315361,5,600,0,1,4,5,0,1,2,3,400,250.0,train,5,E-
254.983901978,1,600,2,1,4,5,0,1,2,3,400,250.0,train,1,E-
174.76606369,0,600,3,1,4,5,0,1,2,3,400,250.0,train,0,E-
303.215026855,3,600,4,0,4,5,0,1,2,3,400,250.0,train,2,E-
222.230195999,5,600,0,1,4,5,0,1,2,3,400,250.0,train,5,E-
238.859891891,3,600,4,1,4,5,0,1,2,3,400,250.0,train,3,E-
175.547122955,5,600,0,1,4,5,0,1,2,3,400,250.0,train,5,E-
318.238019943,4,600,1,1,4,5,0,1,2,3,400,250.0,train,4,E-
127.470970154,0,600,3,1,4,5,0,1,2,3,400,250.0,train,0,E-
175.444841385,0,600,3,1,4,5,0,1,2,3,400,250.0,train,0,E-
223.353147507,3,600,4,1,4,5,0,1,2,3,400,250.0,train,3,E-
191.030025482,1,600,2,1,4,5,0,1,2,3,400,250.0,train,1,E-
623.499155045,4,600,1,1,4,5,0,1,2,3,400,250.0,train,4,E-
255.54895401,1,600,2,1,4,5,0,1,2,3,400,250.0,train,1,E-
143.638134003,0,600,3,1,4,5,0,1,2,3,400,250.0,train,0,E-
223.437070847,3,600,4,1,4,5,0,1,2,3,400,250.0,train,3,E-
126.297950745,5,600,0,1,4,5,0,1,2,3,400,250.0,train,5,E-
126.538991928,5,600,0,1,4,5,0,1,2,3,400,250.0,train,5,E-
47.6350784302,5,600,0,1,4,5,0,1,2,3,400,250.0,train,5,E-
447.425842285,4,600,1,1,4,5,0,1,2,3,400,250.0,train,4,E-
318.928956985,3,600,4,1,4,5,0,1,2,3,400,250.0,train,3,E-
255.661964417,5,600,0,1,4,5,0,1,2,3,400,250.0,train,5,E-
286.849021912,2,600,5,1,4,5,0,1,2,3,400,250.0,train,2,E-
270.138025284,2,600,5,1,4,5,0,1,2,3,400,250.0,train,2,E-
78.9828300476,0,600,3,1,4,5,0,1,2,3,400,250.0,train,0,E-
190.562009811,4,600,1,0,4,5,0,1,2,3,400,250.0,train,3,E-
270.29800415,4,600,1,1,4,5,0,1,2,3,400,250.0,train,4,E-
79.5938968658,4,600,1,1,4,5,0,1,2,3,400,250.0,train,4,E-
254.827022552,2,600,5,1,4,5,0,1,2,3,400,250.0,train,2,E-
175.512075424,0,600,3,1,4,5,0,1,2,3,400,250.0,train,0,E-
63.0979537964,1,600,2,1,4,5,0,1,2,3,400,250.0,train,1,E-
222.922801971,3,600,4,1,4,5,0,1,2,3,400,250.0,train,3,E-
159.048080444,0,600,3,1,4,5,0,1,2,3,400,250.0,train,0,E-
205.956935883,3,600,4,1,4,5,0,1,2,3,400,250.0,train,3,E-
255.012989044,3,600,4,1,4,5,0,1,2,3,400,250.0,train,3,E-
143.476963043,0,600,3,1,4,5,0,1,2,3,400,250.0,train,0,E-
638.885974884,5,600,0,1,4,5,0,1,2,3,400,250.0,train,5,E-
2542.63997078,1,600,2,1,4,5,0,1,2,3,400,250.0,train,1,E-
7934.1981411,0,600,3,1,4,5,0,1,2,3,400,250.0,train,0,E-
10669.2490578,3,600,4,1,4,5,0,1,2,3,400,250.0,train,3,E-
10909.3358517,1,600,2,1,4,5,0,1,2,3,400,250.0,train,1,E-
10237.4801636,0,600,3,1,4,5,0,1,2,3,400,250.0,train,0,E-
142.946004868,0,600,3,1,4,5,0,1,2,3,400,250.0,train,0,E-
191.181898117,4,600,1,1,4,5,0,1,2,3,400,250.0,train,4,E-
78.2370567322,1,600,2,1,4,5,0,1,2,3,400,250.0,train,1,E-
126.99007988,0,600,3,1,4,5,0,1,2,3,400,250.0,train,0,E-
222.036123276,1,600,2,1,4,5,0,1,2,3,400,250.0,train,1,E-
621.746063232,5,1000,2,1,4,0,3,5,2,1,0,250.0,test,5,E-
654.767990112,1,1000,4,1,4,0,3,5,2,1,0,250.0,test,1,E-
412.339925766,0,1000,0,1,4,0,3,5,2,1,0,250.0,test,0,E-
446.728229523,0,1000,0,1,4,0,3,5,2,1,0,250.0,test,0,E-
9533.3108902,0,1000,0,1,4,0,3,5,2,1,0,250.0,test,0,E-
1070.91283798,2,1000,5,1,4,0,3,5,2,1,0,250.0,test,2,E-
10780.3189754,4,1000,1,1,4,0,3,5,2,1,0,250.0,test,4,E-
510.653972626,0,1000,0,1,4,0,3,5,2,1,0,250.0,test,0,E-
414.004087448,1,1000,4,1,4,0,3,5,2,1,0,250.0,test,1,E-
511.258840561,4,1000,1,1,4,0,3,5,2,1,0,250.0,test,4,E-
462.968111038,5,1000,2,1,4,0,3,5,2,1,0,250.0,test,5,E-
542.068958282,3,1000,3,0,4,0,3,5,2,1,0,250.0,test,4,E-
990.481853485,1,1000,4,1,4,0,3,5,2,1,0,250.0,test,1,E-
669.500827789,2,1000,5,1,4,0,3,5,2,1,0,250.0,test,2,E-
638.871908188,3,1000,3,1,4,0,3,5,2,1,0,250.0,test,3,E-
702.831983566,1,1000,4,1,4,0,3,5,2,1,0,250.0,test,1,E-
526.340961456,2,1000,5,1,4,0,3,5,2,1,0,250.0,test,2,E-
445.319890976,5,1000,2,1,4,0,3,5,2,1,0,250.0,test,5,E-
431.442975998,4,1000,1,1,4,0,3,5,2,1,0,250.0,test,4,E-
590.830087662,4,1000,1,1,4,0,3,5,2,1,0,250.0,test,4,E-
494.263887405,5,1000,2,1,4,0,3,5,2,1,0,250.0,test,5,E-
510.582923889,3,1000,3,1,4,0,3,5,2,1,0,250.0,test,3,E-
381.431818008,3,1000,3,0,4,0,3,5,2,1,0,250.0,test,1,E-
542.875051498,0,1000,0,1,4,0,3,5,2,1,0,250.0,test,0,E-
462.198972702,2,1000,5,1,4,0,3,5,2,1,0,250.0,test,2,E-
543.414115906,3,1000,3,1,4,0,3,5,2,1,0,250.0,test,3,E-
398.368120193,4,1000,1,1,4,0,3,5,2,1,0,250.0,test,4,E-
541.923046112,0,1000,0,1,4,0,3,5,2,1,0,250.0,test,0,E-
543.263912201,4,1000,1,0,4,0,3,5,2,1,0,250.0,test,3,E-
526.26991272,0,1000,0,1,4,0,3,5,2,1,0,250.0,test,0,E-
1597.9411602,3,1000,3,1,4,0,3,5,2,1,0,250.0,test,3,E-
525.447845459,0,1000,0,1,4,0,3,5,2,1,0,250.0,test,0,E-
462.889909744,1,1000,4,1,4,0,3,5,2,1,0,250.0,test,1,E-
654.114961624,4,1000,1,0,4,0,3,5,2,1,0,250.0,test,5,E-
23515.3589249,3,1000,3,1,4,0,3,5,2,1,0,250.0,test,3,E-
702.697992325,3,1000,3,1,4,0,3,5,2,1,0,250.0,test,3,E-
527.074098587,0,1000,0,1,4,0,3,5,2,1,0,250.0,test,0,E-
750.259160995,3,1000,3,1,4,0,3,5,2,1,0,250.0,test,3,E-
670.081853867,1,1000,4,1,4,0,3,5,2,1,0,250.0,test,1,E-
1166.37301445,2,1000,5,0,4,0,3,5,2,1,0,250.0,test,3,E-
542.788028717,0,1000,0,1,4,0,3,5,2,1,0,250.0,test,0,E-
606.637001038,2,1000,5,1,4,0,3,5,2,1,0,250.0,test,2,E-
670.094966888,4,1000,1,1,4,0,3,5,2,1,0,250.0,test,4,E-
461.927890778,5,1000,2,1,4,0,3,5,2,1,0,250.0,test,5,E-
222.482204437,1,1000,4,0,4,0,3,5,2,1,0,250.0,test,4,E-
925.997972488,1,1000,4,0,4,0,3,5,2,1,0,250.0,test,5,E-
5580.24096489,5,1000,2,1,4,0,3,5,2,1,0,250.0,test,5,E-
526.196956635,0,1000,0,1,4,0,3,5,2,1,0,250.0,test,0,E-
414.630174637,1,1000,4,1,4,0,3,5,2,1,0,250.0,test,1,E-
573.666810989,2,1000,5,1,4,0,3,5,2,1,0,250.0,test,2,E-
94.7868824005,3,1000,3,0,4,0,3,5,2,1,0,250.0,test,0,E-
654.886960983,2,1000,5,1,4,0,3,5,2,1,0,250.0,test,2,E-
3197.63803482,4,1000,1,1,4,0,3,5,2,1,0,250.0,test,4,E-
541.869878769,2,1000,5,1,4,0,3,5,2,1,0,250.0,test,2,E-
558.773994446,1,1000,4,1,4,0,3,5,2,1,0,250.0,test,1,E-
669.903993607,1,1000,4,1,4,0,3,5,2,1,0,250.0,test,1,E-
3614.27283287,3,1000,3,1,4,0,3,5,2,1,0,250.0,test,3,E-
1373.55804443,5,1000,2,1,4,0,3,5,2,1,0,250.0,test,5,E-
574.866056442,4,1000,1,1,4,0,3,5,2,1,0,250.0,test,4,E-
527.020931244,4,1000,1,1,4,0,3,5,2,1,0,250.0,test,4,E-
653.474092484,0,1000,0,1,4,0,3,5,2,1,0,250.0,test,0,E-
525.437116623,0,1000,0,1,4,0,3,5,2,1,0,250.0,test,0,E-
590.912103653,4,1000,1,0,4,0,3,5,2,1,0,250.0,test,5,E-
1245.69106102,3,1000,3,1,4,0,3,5,2,1,0,250.0,test,3,E-
654.334068298,0,1000,0,1,4,0,3,5,2,1,0,250.0,test,0,E-
719.456195831,5,1000,2,1,4,0,3,5,2,1,0,250.0,test,5,E-
559.511899948,1,1000,4,1,4,0,3,5,2,1,0,250.0,test,1,E-
558.474063873,1,1000,4,1,4,0,3,5,2,1,0,250.0,test,1,E-
446.876049042,0,1000,0,1,4,0,3,5,2,1,0,250.0,test,0,E-
589.921951294,3,1000,3,1,4,0,3,5,2,1,0,250.0,test,3,E-
525.596141815,4,1000,1,1,4,0,3,5,2,1,0,250.0,test,4,E-
558.156013489,0,1000,0,1,4,0,3,5,2,1,0,250.0,test,0,E-
622.776031494,3,1000,3,1,4,0,3,5,2,1,0,250.0,test,3,E-
542.735099792,3,1000,3,0,4,0,3,5,2,1,0,250.0,test,2,E-
591.369152069,5,1000,2,1,4,0,3,5,2,1,0,250.0,test,5,E-
606.714010239,3,1000,3,1,4,0,3,5,2,1,0,250.0,test,3,E-
558.347940445,1,1000,4,1,4,0,3,5,2,1,0,250.0,test,1,E-
798.734903336,2,1000,5,0,4,0,3,5,2,1,0,250.0,test,3,E-
606.679916382,4,1000,1,1,4,0,3,5,2,1,0,250.0,test,4,E-
974.558115005,3,1000,3,1,4,0,3,5,2,1,0,250.0,test,3,E-
1692.953825,2,1000,5,1,4,0,3,5,2,1,0,250.0,test,2,E-
1054.34179306,0,1000,0,1,4,0,3,5,2,1,0,250.0,test,0,E-
1181.183815,2,1000,5,1,4,0,3,5,2,1,0,250.0,test,2,E-
830.812931061,2,1000,5,1,4,0,3,5,2,1,0,250.0,test,2,E-
2669.05212402,5,1000,2,1,4,0,3,5,2,1,0,250.0,test,5,E-
1068.01605225,2,1000,5,1,4,0,3,5,2,1,0,250.0,test,2,E-
606.8379879,5,1000,2,1,4,0,3,5,2,1,0,250.0,test,5,E-
894.18721199,2,1000,5,1,4,0,3,5,2,1,0,250.0,test,2,E-
589.406967163,5,1000,2,1,4,0,3,5,2,1,0,250.0,test,5,E-
718.491792679,2,1000,5,1,4,0,3,5,2,1,0,250.0,test,2,E-
1199.49698448,3,1000,3,1,4,0,3,5,2,1,0,250.0,test,3,E-
1438.54594231,4,1000,1,1,4,0,3,5,2,1,0,250.0,test,4,E-
845.242023468,0,1000,0,1,4,0,3,5,2,1,0,250.0,test,0,E-
1101.58395767,3,1000,3,0,4,0,3,5,2,1,0,250.0,test,0,E-
750.739097595,0,1000,0,1,4,0,3,5,2,1,0,250.0,test,0,E-
910.137891769,4,1000,1,1,4,0,3,5,2,1,0,250.0,test,4,E-
1037.99700737,1,1000,4,1,4,0,3,5,2,1,0,250.0,test,1,E-
591.398000717,0,1000,0,1,4,0,3,5,2,1,0,250.0,test,0,E-
557.981014252,4,1000,1,1,4,0,3,5,2,1,0,250.0,test,4,E-
605.552911758,5,1000,2,1,4,0,3,5,2,1,0,250.0,test,5,E-
735.327005386,5,1000,2,1,4,0,3,5,2,1,0,250.0,test,5,E-
958.148002625,0,1000,0,1,4,0,3,5,2,1,0,250.0,test,0,E-
655.390977859,3,1000,3,0,4,0,3,5,2,1,0,250.0,test,2,E-
798.712015152,3,1000,3,1,4,0,3,5,2,1,0,250.0,test,3,E-
734.45892334,5,1000,2,1,4,0,3,5,2,1,0,250.0,test,5,E-
1245.93782425,1,1000,4,1,4,0,3,5,2,1,0,250.0,test,1,E-
750.612020493,3,1000,3,1,4,0,3,5,2,1,0,250.0,test,3,E-
3821.51007652,0,1000,0,1,4,0,3,5,2,1,0,250.0,test,0,E-
590.46792984,2,1000,5,1,4,0,3,5,2,1,0,250.0,test,2,E-
1134.25993919,5,1000,2,1,4,0,3,5,2,1,0,250.0,test,5,E-
26682.9040051,2,1000,5,1,4,0,3,5,2,1,0,250.0,test,2,E-
958.081960678,5,1000,2,1,4,0,3,5,2,1,0,250.0,test,5,E-
830.691099167,4,1000,1,1,4,0,3,5,2,1,0,250.0,test,4,E-
814.756155014,1,1000,4,1,4,0,3,5,2,1,0,250.0,test,1,E-
590.69108963,3,1000,3,1,4,0,3,5,2,1,0,250.0,test,3,E-
590.934038162,5,1000,2,1,4,0,3,5,2,1,0,250.0,test,5,E-
525.063991547,2,1000,5,0,4,0,3,5,2,1,0,250.0,test,1,E-
542.140960693,5,1000,2,1,4,0,3,5,2,1,0,250.0,test,5,E-
558.32195282,2,1000,5,1,4,0,3,5,2,1,0,250.0,test,2,E-
717.834949493,1,1000,4,1,4,0,3,5,2,1,0,250.0,test,1,E-
670.622825623,0,1000,0,1,4,0,3,5,2,1,0,250.0,test,0,E-
622.802972794,5,1000,2,1,4,0,3,5,2,1,0,250.0,test,5,E-
654.521942139,3,1000,3,1,4,0,3,5,2,1,0,250.0,test,3,E-
590.501070023,3,1000,3,1,4,0,3,5,2,1,0,250.0,test,3,E-
893.872022629,0,1000,0,1,4,0,3,5,2,1,0,250.0,test,0,E-
734.004020691,1,1000,4,1,4,0,3,5,2,1,0,250.0,test,1,E-
862.755060196,1,1000,4,1,4,0,3,5,2,1,0,250.0,test,1,E-
749.94301796,1,1000,4,1,4,0,3,5,2,1,0,250.0,test,1,E-
558.113098145,4,1000,1,1,4,0,3,5,2,1,0,250.0,test,4,E-
942.26193428,2,1000,5,1,4,0,3,5,2,1,0,250.0,test,2,E-
541.019201279,0,1000,0,1,4,0,3,5,2,1,0,250.0,test,0,E-
606.599092484,2,1000,5,1,4,0,3,5,2,1,0,250.0,test,2,E-
590.378046036,5,1000,2,1,4,0,3,5,2,1,0,250.0,test,5,E-
623.027086258,0,1000,0,1,4,0,3,5,2,1,0,250.0,test,0,E-
813.652992249,5,1000,2,1,4,0,3,5,2,1,0,250.0,test,5,E-
734.8279953,4,1000,1,1,4,0,3,5,2,1,0,250.0,test,4,E-
862.405061722,1,1000,4,1,4,0,3,5,2,1,0,250.0,test,1,E-
941.844940186,5,1000,2,1,4,0,3,5,2,1,0,250.0,test,5,E-
670.13001442,4,1000,1,1,4,0,3,5,2,1,0,250.0,test,4,E-
654.304981232,4,1000,1,1,4,0,3,5,2,1,0,250.0,test,4,E-
861.742019653,0,1000,0,1,4,0,3,5,2,1,0,250.0,test,0,E-
574.016094208,1,1000,4,1,4,0,3,5,2,1,0,250.0,test,1,E-
670.751094818,0,1000,0,1,4,0,3,5,2,1,0,250.0,test,0,E-
830.482959747,3,1000,3,1,4,0,3,5,2,1,0,250.0,test,3,E-
829.019069672,3,1000,3,1,4,0,3,5,2,1,0,250.0,test,3,E-
686.784982681,5,1000,2,1,4,0,3,5,2,1,0,250.0,test,5,E-
606.607913971,4,1000,1,1,4,0,3,5,2,1,0,250.0,test,4,E-
1134.09996033,4,1000,1,1,4,0,3,5,2,1,0,250.0,test,4,E-
766.952037811,1,1000,4,1,4,0,3,5,2,1,0,250.0,test,1,E-
750.705003738,0,1000,0,1,4,0,3,5,2,1,0,250.0,test,0,E-
1261.73710823,3,1000,3,0,4,0,3,5,2,1,0,250.0,test,2,E-
606.855154037,5,1000,2,1,4,0,3,5,2,1,0,250.0,test,5,E-
446.937084198,5,1000,2,1,4,0,3,5,2,1,0,250.0,test,5,E-
430.046796799,4,1000,1,1,4,0,3,5,2,1,0,250.0,test,4,E-
590.38901329,4,1000,1,1,4,0,3,5,2,1,0,250.0,test,4,E-
637.914896011,1,1000,4,1,4,0,3,5,2,1,0,250.0,test,1,E-
574.667930603,1,1000,4,1,4,0,3,5,2,1,0,250.0,test,1,E-
638.818979263,3,1000,3,1,4,0,3,5,2,1,0,250.0,test,3,E-
892.997980118,2,1000,5,1,4,0,3,5,2,1,0,250.0,test,2,E-
2749.8459816,0,1000,0,1,4,0,3,5,2,1,0,250.0,test,0,E-
3532.26900101,3,1000,3,1,4,0,3,5,2,1,0,250.0,test,3,E-
557.103157043,5,1000,2,1,4,0,3,5,2,1,0,250.0,test,5,E-
1181.96201324,2,1000,5,1,4,0,3,5,2,1,0,250.0,test,2,E-
654.646873474,0,1000,0,1,4,0,3,5,2,1,0,250.0,test,0,E-
830.948114395,4,1000,1,1,4,0,3,5,2,1,0,250.0,test,4,E-
846.248865128,3,1000,3,1,4,0,3,5,2,1,0,250.0,test,3,E-
1054.64577675,1,1000,4,1,4,0,3,5,2,1,0,250.0,test,1,E-
846.508026123,4,1000,1,1,4,0,3,5,2,1,0,250.0,test,4,E-
606.798887253,0,1000,0,1,4,0,3,5,2,1,0,250.0,test,0,E-
574.804067612,5,1000,2,1,4,0,3,5,2,1,0,250.0,test,5,E-
813.709020615,1,1000,4,1,4,0,3,5,2,1,0,250.0,test,1,E-
621.549844742,0,1000,0,1,4,0,3,5,2,1,0,250.0,test,0,E-
814.193964005,1,1000,4,1,4,0,3,5,2,1,0,250.0,test,1,E-
573.689937592,2,1000,5,1,4,0,3,5,2,1,0,250.0,test,2,E-
622.76506424,3,1000,3,1,4,0,3,5,2,1,0,250.0,test,3,E-
558.629989624,4,1000,1,1,4,0,3,5,2,1,0,250.0,test,4,E-
1358.61802101,0,1000,0,1,4,0,3,5,2,1,0,250.0,test,0,E-
590.759038925,4,1000,1,1,4,0,3,5,2,1,0,250.0,test,4,E-
749.170064926,3,1000,3,1,4,0,3,5,2,1,0,250.0,test,3,E-
590.366125107,3,1000,3,1,4,0,3,5,2,1,0,250.0,test,3,E-
861.829042435,3,1000,3,1,4,0,3,5,2,1,0,250.0,test,3,E-
1342.76795387,2,1000,5,1,4,0,3,5,2,1,0,250.0,test,2,E-
622.325181961,3,1000,3,1,4,0,3,5,2,1,0,250.0,test,3,E-
591.23301506,3,1000,3,1,4,0,3,5,2,1,0,250.0,test,3,E-
781.787157059,4,1000,1,1,4,0,3,5,2,1,0,250.0,test,4,E-
1356.64391518,1,1000,4,1,4,0,3,5,2,1,0,250.0,test,1,E-
1454.6148777,5,1000,2,1,4,0,3,5,2,1,0,250.0,test,5,E-
557.672023773,0,1000,0,1,4,0,3,5,2,1,0,250.0,test,0,E-
926.63693428,5,1000,2,1,4,0,3,5,2,1,0,250.0,test,5,E-
1630.19585609,2,1000,5,1,4,0,3,5,2,1,0,250.0,test,2,E-
1438.3430481,1,1000,4,1,4,0,3,5,2,1,0,250.0,test,1,E-
1166.58878326,2,1000,5,0,4,0,3,5,2,1,0,250.0,test,3,E-
1470.81708908,1,1000,4,1,4,0,3,5,2,1,0,250.0,test,1,E-
1341.97402,3,1000,3,1,4,0,3,5,2,1,0,250.0,test,3,E-
46.0422039032,3,1000,3,0,4,0,3,5,2,1,0,250.0,test,1,E-
781.825065613,3,1000,3,1,4,0,3,5,2,1,0,250.0,test,3,E-
590.832948685,4,1000,1,1,4,0,3,5,2,1,0,250.0,test,4,E-
749.63092804,2,1000,5,1,4,0,3,5,2,1,0,250.0,test,2,E-
526.383876801,1,1000,4,1,4,0,3,5,2,1,0,250.0,test,1,E-
974.750041962,0,1000,0,1,4,0,3,5,2,1,0,250.0,test,0,E-
5261.62600517,2,1000,5,0,4,0,3,5,2,1,0,250.0,test,4,E-
3598.279953,2,1000,5,1,4,0,3,5,2,1,0,250.0,test,2,E-
2126.02996826,4,1000,1,1,4,0,3,5,2,1,0,250.0,test,4,E-
1118.68309975,0,1000,0,1,4,0,3,5,2,1,0,250.0,test,0,E-
3708.61196518,2,1000,5,1,4,0,3,5,2,1,0,250.0,test,2,E-
846.732139587,4,1000,1,1,4,0,3,5,2,1,0,250.0,test,4,E-
526.726007462,3,1000,3,0,4,0,3,5,2,1,0,250.0,test,2,E-
814.468860626,0,1000,0,1,4,0,3,5,2,1,0,250.0,test,0,E-
590.715885162,0,1000,0,1,4,0,3,5,2,1,0,250.0,test,0,E-
878.672838211,3,1000,3,0,4,0,3,5,2,1,0,250.0,test,2,E-
622.638940811,3,1000,3,1,4,0,3,5,2,1,0,250.0,test,3,E-
670.865058899,0,1000,0,1,4,0,3,5,2,1,0,250.0,test,0,E-
623.286962509,0,1000,0,1,4,0,3,5,2,1,0,250.0,test,0,E-
574.479103088,5,1000,2,1,4,0,3,5,2,1,0,250.0,test,5,E-
559.392929077,0,1000,0,1,4,0,3,5,2,1,0,250.0,test,0,E-
414.989948273,1,1000,4,1,4,0,3,5,2,1,0,250.0,test,1,E-
1102.05888748,2,1000,5,1,4,0,3,5,2,1,0,250.0,test,2,E-
526.826143265,0,1000,0,1,4,0,3,5,2,1,0,250.0,test,0,E-
638.606786728,3,1000,3,1,4,0,3,5,2,1,0,250.0,test,3,E-
990.657091141,2,1000,5,1,4,0,3,5,2,1,0,250.0,test,2,E-
1150.91395378,5,1000,2,1,4,0,3,5,2,1,0,250.0,test,5,E-
863.026857376,2,1000,5,1,4,0,3,5,2,1,0,250.0,test,2,E-
542.96708107,0,1000,0,1,4,0,3,5,2,1,0,250.0,test,0,E-
2044.84319687,3,1000,3,0,4,0,3,5,2,1,0,250.0,test,2,E-
4173.66909981,3,1000,3,1,4,0,3,5,2,1,0,250.0,test,3,E-
702.604055405,3,1000,3,1,4,0,3,5,2,1,0,250.0,test,3,E-
1102.40912437,0,1000,0,1,4,0,3,5,2,1,0,250.0,test,0,E-
1102.84590721,3,1000,3,1,4,0,3,5,2,1,0,250.0,test,3,E-
575.001955032,3,1000,3,1,4,0,3,5,2,1,0,250.0,test,3,E-
1038.9649868,1,1000,4,1,4,0,3,5,2,1,0,250.0,test,1,E-
1230.65519333,0,1000,0,1,4,0,3,5,2,1,0,250.0,test,0,E-
3390.00701904,4,1000,1,1,4,0,3,5,2,1,0,250.0,test,4,E-
4942.18301773,5,1000,2,1,4,0,3,5,2,1,0,250.0,test,5,E-
686.26499176,2,1000,5,1,4,0,3,5,2,1,0,250.0,test,2,E-
718.769073486,1,1000,4,1,4,0,3,5,2,1,0,250.0,test,1,E-
1758.64005089,2,1000,5,1,4,0,3,5,2,1,0,250.0,test,2,E-
2142.63105392,5,1000,2,1,4,0,3,5,2,1,0,250.0,test,5,E-
2222.64289856,0,1000,0,1,4,0,3,5,2,1,0,250.0,test,0,E-
766.633987427,1,1000,4,1,4,0,3,5,2,1,0,250.0,test,1,E-
718.687057495,3,1000,3,1,4,0,3,5,2,1,0,250.0,test,3,E-
558.665990829,0,1000,0,1,4,0,3,5,2,1,0,250.0,test,0,E-
830.116987228,4,1000,1,1,4,0,3,5,2,1,0,250.0,test,4,E-
1071.30980492,5,1000,2,1,4,0,3,5,2,1,0,250.0,test,5,E-
590.069055557,4,1000,1,1,4,0,3,5,2,1,0,250.0,test,4,E-
734.913825989,2,1000,5,1,4,0,3,5,2,1,0,250.0,test,2,E-
541.184902191,2,1000,5,1,4,0,3,5,2,1,0,250.0,test,2,E-
510.496139526,2,1000,5,1,4,0,3,5,2,1,0,250.0,test,2,E-
574.914932251,0,1000,0,1,4,0,3,5,2,1,0,250.0,test,0,E-
879.436016083,0,1000,0,1,4,0,3,5,2,1,0,250.0,test,0,E-
542.096138,0,1000,0,1,4,0,3,5,2,1,0,250.0,test,0,E-
