RT,correct_response,ms-prestimblank,curstim,correct,SRmap_1,SRmap_0,SRmap_3,SRmap_2,SRmap_5,SRmap_4,ms-precue,ntrials,type,response,condition
5551.49793625,5,1000,4,1,4,3,2,0,1,5,0,250.0,train,5,H+
1776.12686157,5,1000,4,1,4,3,2,0,1,5,0,250.0,train,5,H+
1680.134058,1,1000,5,0,4,3,2,0,1,5,0,250.0,train,0,H+
4832.21006393,0,1000,2,1,4,3,2,0,1,5,0,250.0,train,0,H+
2080.15012741,4,1000,1,1,4,3,2,0,1,5,0,250.0,train,4,H+
960.255861282,4,1000,1,1,4,3,2,0,1,5,0,250.0,train,4,H+
1360.27503014,3,1000,0,1,4,3,2,0,1,5,0,250.0,train,3,H+
1023.80394936,3,1000,0,1,4,3,2,0,1,5,0,250.0,train,3,H+
2239.69697952,2,1000,3,1,4,3,2,0,1,5,0,250.0,train,2,H+
1664.12401199,4,1000,1,1,4,3,2,0,1,5,0,250.0,train,4,H+
1184.23104286,5,1000,4,1,4,3,2,0,1,5,0,250.0,train,5,H+
1776.37910843,0,1000,2,1,4,3,2,0,1,5,0,250.0,train,0,H+
1183.90989304,0,1000,2,1,4,3,2,0,1,5,0,250.0,train,0,H+
1664.14618492,5,1000,4,1,4,3,2,0,1,5,0,250.0,train,5,H+
944.32592392,3,1000,0,1,4,3,2,0,1,5,0,250.0,train,3,H+
1296.29588127,5,1000,4,1,4,3,2,0,1,5,0,250.0,train,5,H+
815.984010696,0,1000,2,1,4,3,2,0,1,5,0,250.0,train,0,H+
1296.37789726,4,1000,1,1,4,3,2,0,1,5,0,250.0,train,4,H+
2352.23603249,3,1000,0,1,4,3,2,0,1,5,0,250.0,train,3,H+
896.245956421,4,1000,1,0,4,3,2,0,1,5,0,250.0,train,0,H+
1408.35499763,5,1000,4,1,4,3,2,0,1,5,0,250.0,train,5,H+
624.3288517,4,1000,1,0,4,3,2,0,1,5,0,250.0,train,5,H+
1008.38303566,1,1000,5,0,4,3,2,0,1,5,0,250.0,train,0,H+
832.417964935,4,1000,1,0,4,3,2,0,1,5,0,250.0,train,0,H+
944.334983826,5,1000,4,1,4,3,2,0,1,5,0,250.0,train,5,H+
1199.95498657,2,1000,3,0,4,3,2,0,1,5,0,250.0,train,1,H+
1487.51997948,3,1000,0,1,4,3,2,0,1,5,0,250.0,train,3,H+
720.806121826,3,1000,0,0,4,3,2,0,1,5,0,250.0,train,5,H+
1504.23598289,4,1000,1,1,4,3,2,0,1,5,0,250.0,train,4,H+
1375.96583366,0,1000,2,1,4,3,2,0,1,5,0,250.0,train,0,H+
736.295938492,4,1000,1,0,4,3,2,0,1,5,0,250.0,train,0,H+
1344.31481361,3,1000,0,1,4,3,2,0,1,5,0,250.0,train,3,H+
1311.4490509,2,1000,3,1,4,3,2,0,1,5,0,250.0,train,2,H+
1424.24488068,0,1000,2,1,4,3,2,0,1,5,0,250.0,train,0,H+
1167.65785217,2,1000,3,1,4,3,2,0,1,5,0,250.0,train,2,H+
800.39191246,2,1000,3,1,4,3,2,0,1,5,0,250.0,train,2,H+
608.335971832,2,1000,3,1,4,3,2,0,1,5,0,250.0,train,2,H+
1712.26406097,0,1000,2,1,4,3,2,0,1,5,0,250.0,train,0,H+
800.290107727,1,1000,5,0,4,3,2,0,1,5,0,250.0,train,0,H+
1728.35898399,4,1000,1,1,4,3,2,0,1,5,0,250.0,train,4,H+
1024.38902855,3,1000,0,1,4,3,2,0,1,5,0,250.0,train,3,H+
864.30811882,3,1000,0,1,4,3,2,0,1,5,0,250.0,train,3,H+
912.018060684,4,1000,1,1,4,3,2,0,1,5,0,250.0,train,4,H+
1136.32202148,2,1000,3,1,4,3,2,0,1,5,0,250.0,train,2,H+
1104.52318192,3,1000,0,1,4,3,2,0,1,5,0,250.0,train,3,H+
1280.25698662,1,1000,5,0,4,3,2,0,1,5,0,250.0,train,0,H+
1184.31091309,2,1000,3,1,4,3,2,0,1,5,0,250.0,train,2,H+
1552.22892761,0,1000,2,1,4,3,2,0,1,5,0,250.0,train,0,H+
944.393157959,0,1000,2,1,4,3,2,0,1,5,0,250.0,train,0,H+
752.920150757,0,1000,2,1,4,3,2,0,1,5,0,250.0,train,0,H+
1072.4158287,2,1000,3,1,4,3,2,0,1,5,0,250.0,train,2,H+
1040.41314125,5,1000,4,1,4,3,2,0,1,5,0,250.0,train,5,H+
704.412937164,4,1000,1,1,4,3,2,0,1,5,0,250.0,train,4,H+
688.334941864,3,1000,0,1,4,3,2,0,1,5,0,250.0,train,3,H+
720.310926437,1,1000,5,1,4,3,2,0,1,5,0,250.0,train,1,H+
576.411008835,5,1000,4,1,4,3,2,0,1,5,0,250.0,train,5,H+
1200.35600662,3,1000,0,1,4,3,2,0,1,5,0,250.0,train,3,H+
672.199964523,2,1000,3,1,4,3,2,0,1,5,0,250.0,train,2,H+
688.457012177,2,1000,3,1,4,3,2,0,1,5,0,250.0,train,2,H+
1055.99498749,5,1000,4,1,4,3,2,0,1,5,0,250.0,train,5,H+
672.05119133,0,1000,2,1,4,3,2,0,1,5,0,250.0,train,0,H+
592.367887497,2,1000,3,1,4,3,2,0,1,5,0,250.0,train,2,H+
656.359195709,4,1000,1,0,4,3,2,0,1,5,0,250.0,train,5,H+
896.239995956,0,1000,2,1,4,3,2,0,1,5,0,250.0,train,0,H+
768.335103989,1,1000,5,1,4,3,2,0,1,5,0,250.0,train,1,H+
784.450054169,1,1000,5,0,4,3,2,0,1,5,0,250.0,train,0,H+
1200.36387444,3,1000,0,1,4,3,2,0,1,5,0,250.0,train,3,H+
944.337844849,4,1000,1,0,4,3,2,0,1,5,0,250.0,train,0,H+
704.267978668,4,1000,1,1,4,3,2,0,1,5,0,250.0,train,4,H+
704.359054565,4,1000,1,1,4,3,2,0,1,5,0,250.0,train,4,H+
912.302017212,0,1000,2,1,4,3,2,0,1,5,0,250.0,train,0,H+
960.368156433,4,1000,1,0,4,3,2,0,1,5,0,250.0,train,5,H+
768.272161484,5,1000,4,1,4,3,2,0,1,5,0,250.0,train,5,H+
1248.3921051,2,1000,3,1,4,3,2,0,1,5,0,250.0,train,2,H+
960.05988121,2,1000,3,1,4,3,2,0,1,5,0,250.0,train,2,H+
896.501064301,1,1000,5,1,4,3,2,0,1,5,0,250.0,train,1,H+
1376.39403343,4,1000,1,1,4,3,2,0,1,5,0,250.0,train,4,H+
944.408178329,2,1000,3,1,4,3,2,0,1,5,0,250.0,train,2,H+
512.435913086,3,1000,0,1,4,3,2,0,1,5,0,250.0,train,3,H+
576.325893402,5,1000,4,1,4,3,2,0,1,5,0,250.0,train,5,H+
640.407085419,2,1000,3,1,4,3,2,0,1,5,0,250.0,train,2,H+
368.125200272,1,1000,5,1,4,3,2,0,1,5,0,250.0,train,1,H+
544.423103333,3,1000,0,0,4,3,2,0,1,5,0,250.0,train,5,H+
672.362804413,0,1000,2,1,4,3,2,0,1,5,0,250.0,train,0,H+
736.53793335,4,1000,1,1,4,3,2,0,1,5,0,250.0,train,4,H+
768.356084824,1,1000,5,1,4,3,2,0,1,5,0,250.0,train,1,H+
688.104867935,4,1000,1,1,4,3,2,0,1,5,0,250.0,train,4,H+
672.391891479,3,1000,0,0,4,3,2,0,1,5,0,250.0,train,2,H+
624.310016632,5,1000,4,1,4,3,2,0,1,5,0,250.0,train,5,H+
1104.52008247,0,1000,2,1,4,3,2,0,1,5,0,250.0,train,0,H+
592.326164246,1,1000,5,1,4,3,2,0,1,5,0,250.0,train,1,H+
384.474039078,2,1000,3,1,4,3,2,0,1,5,0,250.0,train,2,H+
368.352890015,3,1000,0,1,4,3,2,0,1,5,0,250.0,train,3,H+
832.425117493,3,1000,0,1,4,3,2,0,1,5,0,250.0,train,3,H+
1040.5819416,1,1000,5,1,4,3,2,0,1,5,0,250.0,train,1,H+
816.325902939,4,1000,1,1,4,3,2,0,1,5,0,250.0,train,4,H+
1120.38612366,1,1000,5,1,4,3,2,0,1,5,0,250.0,train,1,H+
720.448970795,4,1000,1,1,4,3,2,0,1,5,0,250.0,train,4,H+
1040.5189991,0,1000,2,1,4,3,2,0,1,5,0,250.0,train,0,H+
656.434059143,0,1000,2,1,4,3,2,0,1,5,0,250.0,train,0,H+
416.413068771,0,1000,2,1,4,3,2,0,1,5,0,250.0,train,0,H+
592.385053635,5,1000,4,1,4,3,2,0,1,5,0,250.0,train,5,H+
544.39997673,5,1000,4,1,4,3,2,0,1,5,0,250.0,train,5,H+
704.49090004,3,1000,0,1,4,3,2,0,1,5,0,250.0,train,3,H+
784.52205658,2,1000,3,0,4,3,2,0,1,5,0,250.0,train,1,H+
800.29296875,4,1000,1,1,4,3,2,0,1,5,0,250.0,train,4,H+
1088.45186234,4,1000,1,1,4,3,2,0,1,5,0,250.0,train,4,H+
752.29716301,3,1000,0,1,4,3,2,0,1,5,0,250.0,train,3,H+
1120.22781372,1,1000,5,1,4,3,2,0,1,5,0,250.0,train,1,H+
784.353971481,4,1000,1,1,4,3,2,0,1,5,0,250.0,train,4,H+
416.405916214,0,1000,2,1,4,3,2,0,1,5,0,250.0,train,0,H+
560.404062271,0,1000,2,1,4,3,2,0,1,5,0,250.0,train,0,H+
496.487140656,4,1000,1,0,4,3,2,0,1,5,0,250.0,train,5,H+
576.283931732,5,1000,4,1,4,3,2,0,1,5,0,250.0,train,5,H+
544.333219528,4,1000,1,1,4,3,2,0,1,5,0,250.0,train,4,H+
816.357851028,3,1000,0,1,4,3,2,0,1,5,0,250.0,train,3,H+
1200.23608208,1,1000,5,1,4,3,2,0,1,5,0,250.0,train,1,H+
608.485937119,0,1000,2,1,4,3,2,0,1,5,0,250.0,train,0,H+
688.254117966,3,1000,0,0,4,3,2,0,1,5,0,250.0,train,2,H+
1344.25187111,2,1000,3,1,4,3,2,0,1,5,0,250.0,train,2,H+
1104.76493835,2,1000,3,1,4,3,2,0,1,5,0,250.0,train,2,H+
720.488071442,1,1000,5,1,4,3,2,0,1,5,0,250.0,train,1,H+
608.4420681,0,1000,2,1,4,3,2,0,1,5,0,250.0,train,0,H+
608.426094055,3,1000,0,0,4,3,2,0,1,5,0,250.0,train,2,H+
624.346971512,5,1000,4,1,4,3,2,0,1,5,0,250.0,train,5,H+
688.512086868,4,1000,1,1,4,3,2,0,1,5,0,250.0,train,4,H+
528.434991837,4,1000,1,1,4,3,2,0,1,5,0,250.0,train,4,H+
592.222929001,3,1000,0,1,4,3,2,0,1,5,0,250.0,train,3,H+
384.339094162,3,1000,0,1,4,3,2,0,1,5,0,250.0,train,3,H+
608.232021332,5,1000,4,1,4,3,2,0,1,5,0,250.0,train,5,H+
816.514015198,1,1000,5,0,4,3,2,0,1,5,0,250.0,train,2,H+
576.342105865,5,1000,4,0,4,3,2,0,1,5,0,250.0,train,3,H+
336.305141449,3,1000,0,0,4,3,2,0,1,5,0,250.0,train,5,H+
848.401069641,0,1000,2,1,4,3,2,0,1,5,0,250.0,train,0,H+
848.357200623,3,1000,0,0,4,3,2,0,1,5,0,250.0,train,5,H+
544.220924377,5,1000,4,1,4,3,2,0,1,5,0,250.0,train,5,H+
1392.37117767,2,1000,3,1,4,3,2,0,1,5,0,250.0,train,2,H+
720.40605545,2,1000,3,1,4,3,2,0,1,5,0,250.0,train,2,H+
928.464174271,2,1000,3,0,4,3,2,0,1,5,0,250.0,train,1,H+
800.173997879,1,1000,5,1,4,3,2,0,1,5,0,250.0,train,1,H+
512.100934982,2,1000,3,1,4,3,2,0,1,5,0,250.0,train,2,H+
960.451841354,3,1000,0,1,4,3,2,0,1,5,0,250.0,train,3,H+
1120.52989006,2,1000,3,1,4,3,2,0,1,5,0,250.0,train,2,H+
688.421010971,0,1000,2,1,4,3,2,0,1,5,0,250.0,train,0,H+
608.371019363,5,1000,4,1,4,3,2,0,1,5,0,250.0,train,5,H+
496.419906616,5,1000,4,1,4,3,2,0,1,5,0,250.0,train,5,H+
800.417900085,3,1000,0,1,4,3,2,0,1,5,0,250.0,train,3,H+
816.379070282,3,1000,0,1,4,3,2,0,1,5,0,250.0,train,3,H+
608.333110809,5,1000,4,1,4,3,2,0,1,5,0,250.0,train,5,H+
1296.27609253,1,1000,5,1,4,3,2,0,1,5,0,250.0,train,1,H+
592.255115509,4,1000,1,0,4,3,2,0,1,5,0,250.0,train,5,H+
848.33407402,4,1000,1,1,4,3,2,0,1,5,0,250.0,train,4,H+
608.403205872,4,1000,1,1,4,3,2,0,1,5,0,250.0,train,4,H+
816.395998001,5,1000,4,1,4,3,2,0,1,5,0,250.0,train,5,H+
576.482057571,4,1000,1,1,4,3,2,0,1,5,0,250.0,train,4,H+
720.491886139,3,1000,0,1,4,3,2,0,1,5,0,250.0,train,3,H+
417.156219482,3,1000,0,1,4,3,2,0,1,5,0,250.0,train,3,H+
496.408939362,5,1000,4,1,4,3,2,0,1,5,0,250.0,train,5,H+
672.677993774,5,1000,4,1,4,3,2,0,1,5,0,250.0,train,5,H+
1168.81895065,2,1000,3,1,4,3,2,0,1,5,0,250.0,train,2,H+
576.469898224,3,1000,0,1,4,3,2,0,1,5,0,250.0,train,3,H+
753.386974335,2,1000,3,1,4,3,2,0,1,5,0,250.0,train,2,H+
656.445980072,2,1000,3,0,4,3,2,0,1,5,0,250.0,train,1,H+
496.304035187,2,1000,3,1,4,3,2,0,1,5,0,250.0,train,2,H+
720.306873322,4,1000,1,1,4,3,2,0,1,5,0,250.0,train,4,H+
752.53200531,0,1000,2,1,4,3,2,0,1,5,0,250.0,train,0,H+
496.499061584,4,1000,1,0,4,3,2,0,1,5,0,250.0,train,5,H+
720.225095749,3,1000,0,1,4,3,2,0,1,5,0,250.0,train,3,H+
496.788978577,3,1000,0,1,4,3,2,0,1,5,0,250.0,train,3,H+
528.270959854,3,1000,0,1,4,3,2,0,1,5,0,250.0,train,3,H+
560.074090958,5,1000,4,1,4,3,2,0,1,5,0,250.0,train,5,H+
639.967918396,3,1000,0,1,4,3,2,0,1,5,0,250.0,train,3,H+
576.110124588,3,1000,0,1,4,3,2,0,1,5,0,250.0,train,3,H+
559.720039368,3,1000,0,1,4,3,2,0,1,5,0,250.0,train,3,H+
1008.41784477,1,1000,5,1,4,3,2,0,1,5,0,250.0,train,1,H+
944.445133209,4,1000,1,1,4,3,2,0,1,5,0,250.0,train,4,H+
656.373977661,4,1000,1,1,4,3,2,0,1,5,0,250.0,train,4,H+
864.346981049,1,1000,5,1,4,3,2,0,1,5,0,250.0,train,1,H+
672.202110291,0,1000,2,1,4,3,2,0,1,5,0,250.0,train,0,H+
656.497001648,4,1000,1,1,4,3,2,0,1,5,0,250.0,train,4,H+
1024.43385124,2,1000,3,0,4,3,2,0,1,5,0,250.0,train,1,H+
640.366077423,5,1000,4,1,4,3,2,0,1,5,0,250.0,train,5,H+
864.454030991,3,1000,0,1,4,3,2,0,1,5,0,250.0,train,3,H+
544.306993484,5,1000,4,1,4,3,2,0,1,5,0,250.0,train,5,H+
736.238002777,3,1000,0,1,4,3,2,0,1,5,0,250.0,train,3,H+
576.332807541,3,1000,0,1,4,3,2,0,1,5,0,250.0,train,3,H+
624.356985092,4,1000,1,1,4,3,2,0,1,5,0,250.0,train,4,H+
720.429897308,3,1000,0,1,4,3,2,0,1,5,0,250.0,train,3,H+
672.33300209,5,1000,4,1,4,3,2,0,1,5,0,250.0,train,5,H+
480.022907257,5,1000,4,1,4,3,2,0,1,5,0,250.0,train,5,H+
704.484939575,3,1000,0,1,4,3,2,0,1,5,0,250.0,train,3,H+
464.123010635,5,1000,4,1,4,3,2,0,1,5,0,250.0,train,5,H+
752.449989319,0,1000,2,0,4,3,2,0,1,5,0,250.0,train,4,H+
576.315879822,5,1000,4,1,4,3,2,0,1,5,0,250.0,train,5,H+
560.099840164,4,1000,1,1,4,3,2,0,1,5,0,250.0,train,4,H+
704.428911209,1,1000,5,1,4,3,2,0,1,5,0,250.0,train,1,H+
784.135103226,3,1000,0,1,4,3,2,0,1,5,0,250.0,train,3,H+
1040.43006897,2,1000,3,1,4,3,2,0,1,5,0,250.0,train,2,H+
736.374139786,0,1000,2,1,4,3,2,0,1,5,0,250.0,train,0,H+
880.085945129,2,1000,3,1,4,3,2,0,1,5,0,250.0,train,2,H+
656.44288063,3,1000,0,1,4,3,2,0,1,5,0,250.0,train,3,H+
656.446933746,5,1000,4,1,4,3,2,0,1,5,0,250.0,train,5,H+
512.293815613,5,1000,4,1,4,3,2,0,1,5,0,250.0,train,5,H+
496.320009232,0,1000,2,0,4,3,2,0,1,5,0,250.0,train,5,H+
736.362934113,2,1000,3,1,4,3,2,0,1,5,0,250.0,train,2,H+
672.465085983,3,1000,0,1,4,3,2,0,1,5,0,250.0,train,3,H+
656.270027161,5,1000,4,1,4,3,2,0,1,5,0,250.0,train,5,H+
800.4591465,1,1000,5,1,4,3,2,0,1,5,0,250.0,train,1,H+
688.466072083,1,1000,5,1,4,3,2,0,1,5,0,250.0,train,1,H+
800.39691925,4,1000,1,1,4,3,2,0,1,5,0,250.0,train,4,H+
464.334964752,4,1000,1,1,4,3,2,0,1,5,0,250.0,train,4,H+
544.449090958,1,1000,5,1,4,3,2,0,1,5,0,250.0,train,1,H+
640.347957611,3,1000,0,1,4,3,2,0,1,5,0,250.0,train,3,H+
752.519130707,2,1000,3,1,4,3,2,0,1,5,0,250.0,train,2,H+
544.382095337,2,1000,3,1,4,3,2,0,1,5,0,250.0,train,2,H+
880.53393364,4,1000,1,1,4,3,2,0,1,5,0,250.0,train,4,H+
416.405200958,0,1000,2,1,4,3,2,0,1,5,0,250.0,train,0,H+
384.389162064,0,1000,2,1,4,3,2,0,1,5,0,250.0,train,0,H+
1040.34209251,3,1000,0,1,4,3,2,0,1,5,0,250.0,train,3,H+
560.46795845,1,1000,5,1,4,3,2,0,1,5,0,250.0,train,1,H+
544.409036636,4,1000,1,1,4,3,2,0,1,5,0,250.0,train,4,H+
688.448905945,0,1000,2,1,4,3,2,0,1,5,0,250.0,train,0,H+
720.472097397,2,1000,3,0,4,3,2,0,1,5,0,250.0,train,1,H+
928.366184235,3,1000,0,1,4,3,2,0,1,5,0,250.0,train,3,H+
768.312931061,0,1000,2,1,4,3,2,0,1,5,0,250.0,train,0,H+
624.424934387,3,1000,0,1,4,3,2,0,1,5,0,250.0,train,3,H+
400.437116623,4,1000,1,1,4,3,2,0,1,5,0,250.0,train,4,H+
560.441970825,5,1000,4,1,4,3,2,0,1,5,0,250.0,train,5,H+
928.416967392,1,1000,5,1,4,3,2,0,1,5,0,250.0,train,1,H+
560.429096222,5,1000,4,0,4,3,2,0,1,5,0,250.0,train,3,H+
368.228912354,5,1000,4,1,4,3,2,0,1,5,0,250.0,train,5,H+
544.250965118,4,1000,1,1,4,3,2,0,1,5,0,250.0,train,4,H+
480.293989182,4,1000,1,1,4,3,2,0,1,5,0,250.0,train,4,H+
560.358047485,2,1000,3,0,4,3,2,0,1,5,0,250.0,train,1,H+
528.29003334,1,1000,5,1,4,3,2,0,1,5,0,250.0,train,1,H+
320.600032806,1,1000,5,1,4,3,2,0,1,5,0,250.0,train,1,H+
464.416027069,2,1000,3,0,4,3,2,0,1,5,0,250.0,train,1,H+
688.251018524,0,1000,2,0,4,3,2,0,1,5,0,250.0,train,4,H+
544.147014618,4,1000,1,1,4,3,2,0,1,5,0,250.0,train,4,H+
608.323097229,5,1000,4,1,4,3,2,0,1,5,0,250.0,train,5,H+
688.291072845,1,1000,5,1,4,3,2,0,1,5,0,250.0,train,1,H+
464.457988739,0,1000,2,1,4,3,2,0,1,5,0,250.0,train,0,H+
1152.45199203,2,1000,3,1,4,3,2,0,1,5,0,250.0,train,2,H+
544.385194778,0,1000,2,0,4,3,2,0,1,5,0,250.0,train,3,H+
400.269985199,0,1000,2,0,4,3,2,0,1,5,0,250.0,train,4,H+
704.342126846,2,1000,3,1,4,3,2,0,1,5,0,250.0,train,2,H+
479.979038239,1,1000,5,1,4,3,2,0,1,5,0,250.0,train,1,H+
576.510906219,4,1000,1,1,4,3,2,0,1,5,0,250.0,train,4,H+
768.10503006,1,1000,5,1,4,3,2,0,1,5,0,250.0,train,1,H+
528.424978256,4,1000,1,1,4,3,2,0,1,5,0,250.0,train,4,H+
1056.02121353,0,1000,2,1,4,3,2,0,1,5,0,250.0,test,0,H+
528.27000618,0,1000,2,1,4,3,2,0,1,5,0,250.0,test,0,H+
1008.36086273,2,1000,3,0,4,3,2,0,1,5,0,250.0,test,1,H+
592.41104126,2,1000,3,1,4,3,2,0,1,5,0,250.0,test,2,H+
576.390028,2,1000,3,1,4,3,2,0,1,5,0,250.0,test,2,H+
624.363899231,1,1000,5,1,4,3,2,0,1,5,0,250.0,test,1,H+
623.975038528,4,1000,1,1,4,3,2,0,1,5,0,250.0,test,4,H+
624.334096909,5,1000,4,1,4,3,2,0,1,5,0,250.0,test,5,H+
704.207897186,0,1000,2,0,4,3,2,0,1,5,0,250.0,test,4,H+
400.296926498,0,1000,2,1,4,3,2,0,1,5,0,250.0,test,0,H+
736.387014389,1,1000,5,1,4,3,2,0,1,5,0,250.0,test,1,H+
608.329057693,3,1000,0,0,4,3,2,0,1,5,0,250.0,test,2,H+
719.974994659,4,1000,1,1,4,3,2,0,1,5,0,250.0,test,4,H+
736.341953278,1,1000,5,1,4,3,2,0,1,5,0,250.0,test,1,H+
704.396009445,2,1000,3,1,4,3,2,0,1,5,0,250.0,test,2,H+
560.38403511,4,1000,1,1,4,3,2,0,1,5,0,250.0,test,4,H+
1039.91293907,5,1000,4,1,4,3,2,0,1,5,0,250.0,test,5,H+
591.56703949,1,1000,5,1,4,3,2,0,1,5,0,250.0,test,1,H+
608.367919922,0,1000,2,0,4,3,2,0,1,5,0,250.0,test,4,H+
640.385866165,0,1000,2,1,4,3,2,0,1,5,0,250.0,test,0,H+
464.039087296,4,1000,1,1,4,3,2,0,1,5,0,250.0,test,4,H+
640.298128128,4,1000,1,1,4,3,2,0,1,5,0,250.0,test,4,H+
544.126987457,0,1000,2,1,4,3,2,0,1,5,0,250.0,test,0,H+
928.424119949,2,1000,3,1,4,3,2,0,1,5,0,250.0,test,2,H+
672.348976135,3,1000,0,1,4,3,2,0,1,5,0,250.0,test,3,H+
656.342029572,5,1000,4,1,4,3,2,0,1,5,0,250.0,test,5,H+
672.32298851,1,1000,5,1,4,3,2,0,1,5,0,250.0,test,1,H+
432.309150696,1,1000,5,1,4,3,2,0,1,5,0,250.0,test,1,H+
512.386083603,5,1000,4,1,4,3,2,0,1,5,0,250.0,test,5,H+
736.475944519,2,1000,3,1,4,3,2,0,1,5,0,250.0,test,2,H+
576.416969299,0,1000,2,0,4,3,2,0,1,5,0,250.0,test,4,H+
528.873920441,5,1000,4,1,4,3,2,0,1,5,0,250.0,test,5,H+
640.185117722,1,1000,5,1,4,3,2,0,1,5,0,250.0,test,1,H+
592.472076416,5,1000,4,1,4,3,2,0,1,5,0,250.0,test,5,H+
672.278165817,1,1000,5,1,4,3,2,0,1,5,0,250.0,test,1,H+
736.494064331,0,1000,2,1,4,3,2,0,1,5,0,250.0,test,0,H+
576.431035995,5,1000,4,1,4,3,2,0,1,5,0,250.0,test,5,H+
560.470104218,5,1000,4,1,4,3,2,0,1,5,0,250.0,test,5,H+
560.435056686,4,1000,1,1,4,3,2,0,1,5,0,250.0,test,4,H+
688.522100449,1,1000,5,1,4,3,2,0,1,5,0,250.0,test,1,H+
848.44994545,1,1000,5,1,4,3,2,0,1,5,0,250.0,test,1,H+
560.429811478,1,1000,5,1,4,3,2,0,1,5,0,250.0,test,1,H+
512.413024902,2,1000,3,1,4,3,2,0,1,5,0,250.0,test,2,H+
512.418031693,2,1000,3,1,4,3,2,0,1,5,0,250.0,test,2,H+
592.419862747,0,1000,2,0,4,3,2,0,1,5,0,250.0,test,4,H+
864.326953888,3,1000,0,1,4,3,2,0,1,5,0,250.0,test,3,H+
544.450998306,5,1000,4,1,4,3,2,0,1,5,0,250.0,test,5,H+
816.422224045,2,1000,3,1,4,3,2,0,1,5,0,250.0,test,2,H+
480.082988739,2,1000,3,1,4,3,2,0,1,5,0,250.0,test,2,H+
608.433008194,5,1000,4,1,4,3,2,0,1,5,0,250.0,test,5,H+
576.352119446,3,1000,0,1,4,3,2,0,1,5,0,250.0,test,3,H+
432.508945465,4,1000,1,1,4,3,2,0,1,5,0,250.0,test,4,H+
464.350938797,4,1000,1,1,4,3,2,0,1,5,0,250.0,test,4,H+
976.515054703,2,1000,3,1,4,3,2,0,1,5,0,250.0,test,2,H+
608.412027359,5,1000,4,1,4,3,2,0,1,5,0,250.0,test,5,H+
832.213878632,2,1000,3,1,4,3,2,0,1,5,0,250.0,test,2,H+
448.436975479,1,1000,5,1,4,3,2,0,1,5,0,250.0,test,1,H+
688.424110413,3,1000,0,1,4,3,2,0,1,5,0,250.0,test,3,H+
544.365882874,3,1000,0,1,4,3,2,0,1,5,0,250.0,test,3,H+
624.369859695,4,1000,1,1,4,3,2,0,1,5,0,250.0,test,4,H+
656.361103058,3,1000,0,1,4,3,2,0,1,5,0,250.0,test,3,H+
400.39396286,0,1000,2,1,4,3,2,0,1,5,0,250.0,test,0,H+
688.469171524,1,1000,5,1,4,3,2,0,1,5,0,250.0,test,1,H+
704.450845718,0,1000,2,0,4,3,2,0,1,5,0,250.0,test,4,H+
624.310970306,3,1000,0,1,4,3,2,0,1,5,0,250.0,test,3,H+
464.440107346,3,1000,0,1,4,3,2,0,1,5,0,250.0,test,3,H+
464.385986328,0,1000,2,0,4,3,2,0,1,5,0,250.0,test,3,H+
495.970010757,0,1000,2,1,4,3,2,0,1,5,0,250.0,test,0,H+
560.322999954,5,1000,4,1,4,3,2,0,1,5,0,250.0,test,5,H+
592.411994934,3,1000,0,1,4,3,2,0,1,5,0,250.0,test,3,H+
976.43494606,1,1000,5,1,4,3,2,0,1,5,0,250.0,test,1,H+
736.378908157,4,1000,1,1,4,3,2,0,1,5,0,250.0,test,4,H+
784.306049347,2,1000,3,1,4,3,2,0,1,5,0,250.0,test,2,H+
592.427015305,5,1000,4,1,4,3,2,0,1,5,0,250.0,test,5,H+
656.500816345,2,1000,3,1,4,3,2,0,1,5,0,250.0,test,2,H+
496.423959732,5,1000,4,1,4,3,2,0,1,5,0,250.0,test,5,H+
816.192865372,1,1000,5,1,4,3,2,0,1,5,0,250.0,test,1,H+
656.467914581,2,1000,3,1,4,3,2,0,1,5,0,250.0,test,2,H+
592.508077621,5,1000,4,1,4,3,2,0,1,5,0,250.0,test,5,H+
624.476909637,1,1000,5,1,4,3,2,0,1,5,0,250.0,test,1,H+
576.62987709,0,1000,2,1,4,3,2,0,1,5,0,250.0,test,0,H+
656.357049942,0,1000,2,1,4,3,2,0,1,5,0,250.0,test,0,H+
672.344923019,2,1000,3,1,4,3,2,0,1,5,0,250.0,test,2,H+
720.495939255,0,1000,2,0,4,3,2,0,1,5,0,250.0,test,4,H+
576.40504837,4,1000,1,1,4,3,2,0,1,5,0,250.0,test,4,H+
560.421943665,0,1000,2,1,4,3,2,0,1,5,0,250.0,test,0,H+
704.473972321,2,1000,3,1,4,3,2,0,1,5,0,250.0,test,2,H+
560.388803482,5,1000,4,1,4,3,2,0,1,5,0,250.0,test,5,H+
656.150102615,5,1000,4,1,4,3,2,0,1,5,0,250.0,test,5,H+
736.441135406,1,1000,5,1,4,3,2,0,1,5,0,250.0,test,1,H+
608.417034149,4,1000,1,1,4,3,2,0,1,5,0,250.0,test,4,H+
592.411994934,5,1000,4,1,4,3,2,0,1,5,0,250.0,test,5,H+
768.303871155,1,1000,5,1,4,3,2,0,1,5,0,250.0,test,1,H+
432.363033295,2,1000,3,1,4,3,2,0,1,5,0,250.0,test,2,H+
511.590957642,5,1000,4,1,4,3,2,0,1,5,0,250.0,test,5,H+
688.310146332,0,1000,2,0,4,3,2,0,1,5,0,250.0,test,4,H+
544.034004211,5,1000,4,1,4,3,2,0,1,5,0,250.0,test,5,H+
576.211214066,1,1000,5,1,4,3,2,0,1,5,0,250.0,test,1,H+
688.822031021,2,1000,3,1,4,3,2,0,1,5,0,250.0,test,2,H+
528.810024261,4,1000,1,1,4,3,2,0,1,5,0,250.0,test,4,H+
593.441009521,5,1000,4,1,4,3,2,0,1,5,0,250.0,test,5,H+
672.787189484,2,1000,3,1,4,3,2,0,1,5,0,250.0,test,2,H+
864.100933075,3,1000,0,1,4,3,2,0,1,5,0,250.0,test,3,H+
544.162034988,1,1000,5,1,4,3,2,0,1,5,0,250.0,test,1,H+
576.782941818,5,1000,4,1,4,3,2,0,1,5,0,250.0,test,5,H+
528.244972229,1,1000,5,0,4,3,2,0,1,5,0,250.0,test,0,H+
656.600952148,0,1000,2,1,4,3,2,0,1,5,0,250.0,test,0,H+
384.294986725,0,1000,2,1,4,3,2,0,1,5,0,250.0,test,0,H+
559.509992599,1,1000,5,1,4,3,2,0,1,5,0,250.0,test,1,H+
656.332015991,2,1000,3,0,4,3,2,0,1,5,0,250.0,test,1,H+
640.764951706,3,1000,0,1,4,3,2,0,1,5,0,250.0,test,3,H+
527.940988541,3,1000,0,1,4,3,2,0,1,5,0,250.0,test,3,H+
432.791948318,3,1000,0,1,4,3,2,0,1,5,0,250.0,test,3,H+
512.732982635,4,1000,1,1,4,3,2,0,1,5,0,250.0,test,4,H+
576.716899872,1,1000,5,0,4,3,2,0,1,5,0,250.0,test,2,H+
704.720973969,2,1000,3,1,4,3,2,0,1,5,0,250.0,test,2,H+
400.769948959,2,1000,3,1,4,3,2,0,1,5,0,250.0,test,2,H+
560.695171356,4,1000,1,1,4,3,2,0,1,5,0,250.0,test,4,H+
559.797048569,5,1000,4,1,4,3,2,0,1,5,0,250.0,test,5,H+
752.788066864,3,1000,0,1,4,3,2,0,1,5,0,250.0,test,3,H+
496.768951416,3,1000,0,1,4,3,2,0,1,5,0,250.0,test,3,H+
512.773036957,3,1000,0,1,4,3,2,0,1,5,0,250.0,test,3,H+
624.763965607,5,1000,4,1,4,3,2,0,1,5,0,250.0,test,5,H+
512.0408535,2,1000,3,0,4,3,2,0,1,5,0,250.0,test,3,H+
592.247962952,3,1000,0,1,4,3,2,0,1,5,0,250.0,test,3,H+
560.423135757,1,1000,5,1,4,3,2,0,1,5,0,250.0,test,1,H+
656.457185745,1,1000,5,1,4,3,2,0,1,5,0,250.0,test,1,H+
544.413805008,1,1000,5,1,4,3,2,0,1,5,0,250.0,test,1,H+
704.437017441,2,1000,3,1,4,3,2,0,1,5,0,250.0,test,2,H+
784.414052963,3,1000,0,1,4,3,2,0,1,5,0,250.0,test,3,H+
544.435977936,2,1000,3,0,4,3,2,0,1,5,0,250.0,test,1,H+
672.350883484,4,1000,1,1,4,3,2,0,1,5,0,250.0,test,4,H+
704.417943954,3,1000,0,1,4,3,2,0,1,5,0,250.0,test,3,H+
560.382843018,5,1000,4,1,4,3,2,0,1,5,0,250.0,test,5,H+
528.161048889,4,1000,1,1,4,3,2,0,1,5,0,250.0,test,4,H+
672.71399498,0,1000,2,1,4,3,2,0,1,5,0,250.0,test,0,H+
688.472032547,2,1000,3,1,4,3,2,0,1,5,0,250.0,test,2,H+
640.370130539,0,1000,2,1,4,3,2,0,1,5,0,250.0,test,0,H+
592.298984528,3,1000,0,0,4,3,2,0,1,5,0,250.0,test,2,H+
592.242002487,3,1000,0,1,4,3,2,0,1,5,0,250.0,test,3,H+
624.120950699,4,1000,1,1,4,3,2,0,1,5,0,250.0,test,4,H+
608.407020569,5,1000,4,1,4,3,2,0,1,5,0,250.0,test,5,H+
720.447063446,0,1000,2,1,4,3,2,0,1,5,0,250.0,test,0,H+
640.403032303,4,1000,1,1,4,3,2,0,1,5,0,250.0,test,4,H+
544.336080551,4,1000,1,1,4,3,2,0,1,5,0,250.0,test,4,H+
688.419103622,2,1000,3,1,4,3,2,0,1,5,0,250.0,test,2,H+
416.443109512,1,1000,5,1,4,3,2,0,1,5,0,250.0,test,1,H+
464.289903641,2,1000,3,1,4,3,2,0,1,5,0,250.0,test,2,H+
416.433811188,3,1000,0,1,4,3,2,0,1,5,0,250.0,test,3,H+
480.669021606,3,1000,0,1,4,3,2,0,1,5,0,250.0,test,3,H+
608.308792114,0,1000,2,1,4,3,2,0,1,5,0,250.0,test,0,H+
672.471046448,3,1000,0,1,4,3,2,0,1,5,0,250.0,test,3,H+
512.470006943,4,1000,1,1,4,3,2,0,1,5,0,250.0,test,4,H+
512.349128723,3,1000,0,1,4,3,2,0,1,5,0,250.0,test,3,H+
688.266038895,2,1000,3,1,4,3,2,0,1,5,0,250.0,test,2,H+
560.435771942,5,1000,4,1,4,3,2,0,1,5,0,250.0,test,5,H+
656.34894371,2,1000,3,1,4,3,2,0,1,5,0,250.0,test,2,H+
432.368040085,2,1000,3,1,4,3,2,0,1,5,0,250.0,test,2,H+
544.338941574,3,1000,0,1,4,3,2,0,1,5,0,250.0,test,3,H+
511.893033981,0,1000,2,1,4,3,2,0,1,5,0,250.0,test,0,H+
607.782840729,2,1000,3,1,4,3,2,0,1,5,0,250.0,test,2,H+
607.835769653,0,1000,2,1,4,3,2,0,1,5,0,250.0,test,0,H+
559.767007828,4,1000,1,0,4,3,2,0,1,5,0,250.0,test,5,H+
479.867935181,3,1000,0,0,4,3,2,0,1,5,0,250.0,test,0,H+
592.113018036,4,1000,1,1,4,3,2,0,1,5,0,250.0,test,4,H+
896.125078201,2,1000,3,1,4,3,2,0,1,5,0,250.0,test,2,H+
608.016014099,4,1000,1,1,4,3,2,0,1,5,0,250.0,test,4,H+
624.658107758,3,1000,0,1,4,3,2,0,1,5,0,250.0,test,3,H+
832.64708519,2,1000,3,1,4,3,2,0,1,5,0,250.0,test,2,H+
912.367105484,1,1000,5,1,4,3,2,0,1,5,0,250.0,test,1,H+
720.171928406,0,1000,2,1,4,3,2,0,1,5,0,250.0,test,0,H+
688.15112114,1,1000,5,1,4,3,2,0,1,5,0,250.0,test,1,H+
639.955043793,4,1000,1,1,4,3,2,0,1,5,0,250.0,test,4,H+
591.418981552,4,1000,1,1,4,3,2,0,1,5,0,250.0,test,4,H+
527.845144272,5,1000,4,1,4,3,2,0,1,5,0,250.0,test,5,H+
543.025016785,5,1000,4,1,4,3,2,0,1,5,0,250.0,test,5,H+
368.186950684,3,1000,0,1,4,3,2,0,1,5,0,250.0,test,3,H+
1008.26692581,2,1000,3,1,4,3,2,0,1,5,0,250.0,test,2,H+
624.379873276,3,1000,0,1,4,3,2,0,1,5,0,250.0,test,3,H+
624.411821365,1,1000,5,1,4,3,2,0,1,5,0,250.0,test,1,H+
464.457988739,5,1000,4,0,4,3,2,0,1,5,0,250.0,test,2,H+
736.394882202,2,1000,3,1,4,3,2,0,1,5,0,250.0,test,2,H+
736.490011215,3,1000,0,1,4,3,2,0,1,5,0,250.0,test,3,H+
512.072086334,3,1000,0,1,4,3,2,0,1,5,0,250.0,test,3,H+
768.468141556,2,1000,3,1,4,3,2,0,1,5,0,250.0,test,2,H+
768.299102783,0,1000,2,1,4,3,2,0,1,5,0,250.0,test,0,H+
720.377206802,3,1000,0,1,4,3,2,0,1,5,0,250.0,test,3,H+
560.277938843,4,1000,1,1,4,3,2,0,1,5,0,250.0,test,4,H+
624.493122101,3,1000,0,1,4,3,2,0,1,5,0,250.0,test,3,H+
560.292005539,5,1000,4,1,4,3,2,0,1,5,0,250.0,test,5,H+
640.49911499,0,1000,2,1,4,3,2,0,1,5,0,250.0,test,0,H+
1280.45701981,5,1000,4,1,4,3,2,0,1,5,0,250.0,test,5,H+
656.435012817,2,1000,3,1,4,3,2,0,1,5,0,250.0,test,2,H+
640.457868576,4,1000,1,1,4,3,2,0,1,5,0,250.0,test,4,H+
560.304880142,5,1000,4,1,4,3,2,0,1,5,0,250.0,test,5,H+
704.107999802,1,1000,5,1,4,3,2,0,1,5,0,250.0,test,1,H+
608.446836472,4,1000,1,1,4,3,2,0,1,5,0,250.0,test,4,H+
688.373088837,3,1000,0,1,4,3,2,0,1,5,0,250.0,test,3,H+
912.463903427,0,1000,2,1,4,3,2,0,1,5,0,250.0,test,0,H+
672.410011292,0,1000,2,1,4,3,2,0,1,5,0,250.0,test,0,H+
656.02016449,0,1000,2,1,4,3,2,0,1,5,0,250.0,test,0,H+
512.38489151,4,1000,1,1,4,3,2,0,1,5,0,250.0,test,4,H+
496.26994133,5,1000,4,1,4,3,2,0,1,5,0,250.0,test,5,H+
544.301986694,3,1000,0,1,4,3,2,0,1,5,0,250.0,test,3,H+
576.272964478,1,1000,5,1,4,3,2,0,1,5,0,250.0,test,1,H+
672.4588871,0,1000,2,1,4,3,2,0,1,5,0,250.0,test,0,H+
496.450901031,4,1000,1,1,4,3,2,0,1,5,0,250.0,test,4,H+
433.162927628,0,1000,2,0,4,3,2,0,1,5,0,250.0,test,4,H+
784.352064133,1,1000,5,1,4,3,2,0,1,5,0,250.0,test,1,H+
576.070070267,3,1000,0,1,4,3,2,0,1,5,0,250.0,test,3,H+
528.434038162,4,1000,1,1,4,3,2,0,1,5,0,250.0,test,4,H+
592.086076736,2,1000,3,0,4,3,2,0,1,5,0,250.0,test,1,H+
992.392063141,5,1000,4,1,4,3,2,0,1,5,0,250.0,test,5,H+
848.476886749,2,1000,3,1,4,3,2,0,1,5,0,250.0,test,2,H+
624.053001404,0,1000,2,1,4,3,2,0,1,5,0,250.0,test,0,H+
624.50003624,3,1000,0,1,4,3,2,0,1,5,0,250.0,test,3,H+
608.160972595,4,1000,1,1,4,3,2,0,1,5,0,250.0,test,4,H+
544.341087341,3,1000,0,1,4,3,2,0,1,5,0,250.0,test,3,H+
464.242935181,5,1000,4,1,4,3,2,0,1,5,0,250.0,test,5,H+
624.502182007,4,1000,1,1,4,3,2,0,1,5,0,250.0,test,4,H+
624.064922333,3,1000,0,1,4,3,2,0,1,5,0,250.0,test,3,H+
592.443943024,5,1000,4,0,4,3,2,0,1,5,0,250.0,test,3,H+
704.252958298,2,1000,3,1,4,3,2,0,1,5,0,250.0,test,2,H+
688.16614151,1,1000,5,1,4,3,2,0,1,5,0,250.0,test,1,H+
736.232042313,0,1000,2,1,4,3,2,0,1,5,0,250.0,test,0,H+
992.400884628,2,1000,3,1,4,3,2,0,1,5,0,250.0,test,2,H+
624.260902405,4,1000,1,1,4,3,2,0,1,5,0,250.0,test,4,H+
624.403953552,3,1000,0,1,4,3,2,0,1,5,0,250.0,test,3,H+
656.466960907,1,1000,5,0,4,3,2,0,1,5,0,250.0,test,0,H+
736.243963242,3,1000,0,1,4,3,2,0,1,5,0,250.0,test,3,H+
672.254800797,1,1000,5,0,4,3,2,0,1,5,0,250.0,test,0,H+
544.330120087,0,1000,2,1,4,3,2,0,1,5,0,250.0,test,0,H+
432.414054871,2,1000,3,1,4,3,2,0,1,5,0,250.0,test,2,H+
576.453924179,5,1000,4,1,4,3,2,0,1,5,0,250.0,test,5,H+
624.51505661,4,1000,1,1,4,3,2,0,1,5,0,250.0,test,4,H+
592.436075211,1,1000,5,1,4,3,2,0,1,5,0,250.0,test,1,H+
528.429985046,2,1000,3,1,4,3,2,0,1,5,0,250.0,test,2,H+
496.419906616,1,1000,5,1,4,3,2,0,1,5,0,250.0,test,1,H+
560.314893723,0,1000,2,1,4,3,2,0,1,5,0,250.0,test,0,H+
512.501001358,4,1000,1,1,4,3,2,0,1,5,0,250.0,test,4,H+
560.340881348,5,1000,4,1,4,3,2,0,1,5,0,250.0,test,5,H+
656.50510788,0,1000,2,1,4,3,2,0,1,5,0,250.0,test,0,H+
512.225866318,4,1000,1,1,4,3,2,0,1,5,0,250.0,test,4,H+
432.769060135,0,1000,2,1,4,3,2,0,1,5,0,250.0,test,0,H+
687.91103363,4,1000,1,1,4,3,2,0,1,5,0,250.0,test,4,H+
416.63312912,0,1000,2,1,4,3,2,0,1,5,0,250.0,test,0,H+
559.810876846,1,1000,5,1,4,3,2,0,1,5,0,250.0,test,1,H+
543.887853622,4,1000,1,1,4,3,2,0,1,5,0,250.0,test,4,H+
624.794960022,0,1000,2,1,4,3,2,0,1,5,0,250.0,test,0,H+
687.659025192,5,1000,4,1,4,3,2,0,1,5,0,250.0,test,5,H+
