RT,correct_response,ms-prestimblank,curstim,correct,SRmap_1,SRmap_0,SRmap_3,SRmap_2,SRmap_5,SRmap_4,ms-precue,ntrials,type,response,condition
3547.342062,5,1000,4,1,1,0,4,2,3,5,0,250.0,train,5,H+
3354.32291031,1,1000,1,1,1,0,4,2,3,5,0,250.0,train,1,H+
1626.40810013,1,1000,1,1,1,0,4,2,3,5,0,250.0,train,1,H+
1722.6729393,3,1000,5,1,1,0,4,2,3,5,0,250.0,train,3,H+
1867.74992943,5,1000,4,1,1,0,4,2,3,5,0,250.0,train,5,H+
1194.37599182,3,1000,5,1,1,0,4,2,3,5,0,250.0,train,3,H+
1179.72898483,0,1000,0,1,1,0,4,2,3,5,0,250.0,train,0,H+
1674.32999611,5,1000,4,1,1,0,4,2,3,5,0,250.0,train,5,H+
1898.36716652,5,1000,4,1,1,0,4,2,3,5,0,250.0,train,5,H+
1450.29020309,4,1000,3,1,1,0,4,2,3,5,0,250.0,train,4,H+
1098.34003448,4,1000,3,1,1,0,4,2,3,5,0,250.0,train,4,H+
1018.27287674,1,1000,1,1,1,0,4,2,3,5,0,250.0,train,1,H+
650.353193283,1,1000,1,1,1,0,4,2,3,5,0,250.0,train,1,H+
1099.79104996,2,1000,2,1,1,0,4,2,3,5,0,250.0,train,2,H+
890.321016312,0,1000,0,1,1,0,4,2,3,5,0,250.0,train,0,H+
1306.38408661,4,1000,3,1,1,0,4,2,3,5,0,250.0,train,4,H+
1211.83204651,2,1000,2,1,1,0,4,2,3,5,0,250.0,train,2,H+
810.341119766,3,1000,5,1,1,0,4,2,3,5,0,250.0,train,3,H+
825.881004333,1,1000,1,1,1,0,4,2,3,5,0,250.0,train,1,H+
938.407897949,2,1000,2,1,1,0,4,2,3,5,0,250.0,train,2,H+
1498.37994576,5,1000,4,1,1,0,4,2,3,5,0,250.0,train,5,H+
714.296102524,4,1000,3,1,1,0,4,2,3,5,0,250.0,train,4,H+
826.994895935,2,1000,2,1,1,0,4,2,3,5,0,250.0,train,2,H+
698.330879211,1,1000,1,1,1,0,4,2,3,5,0,250.0,train,1,H+
1355.7870388,4,1000,3,1,1,0,4,2,3,5,0,250.0,train,4,H+
923.089027405,0,1000,0,1,1,0,4,2,3,5,0,250.0,train,0,H+
2106.42004013,3,1000,5,1,1,0,4,2,3,5,0,250.0,train,3,H+
1306.35595322,5,1000,4,1,1,0,4,2,3,5,0,250.0,train,5,H+
858.531951904,1,1000,1,1,1,0,4,2,3,5,0,250.0,train,1,H+
826.434135437,1,1000,1,1,1,0,4,2,3,5,0,250.0,train,1,H+
874.271154404,4,1000,3,1,1,0,4,2,3,5,0,250.0,train,4,H+
571.807861328,5,1000,4,1,1,0,4,2,3,5,0,250.0,train,5,H+
555.794000626,4,1000,3,1,1,0,4,2,3,5,0,250.0,train,4,H+
715.008020401,3,1000,5,1,1,0,4,2,3,5,0,250.0,train,3,H+
1354.39801216,2,1000,2,1,1,0,4,2,3,5,0,250.0,train,2,H+
971.67301178,3,1000,5,1,1,0,4,2,3,5,0,250.0,train,3,H+
651.777982712,3,1000,5,1,1,0,4,2,3,5,0,250.0,train,3,H+
794.364929199,1,1000,1,1,1,0,4,2,3,5,0,250.0,train,1,H+
602.355957031,5,1000,4,0,1,0,4,2,3,5,0,250.0,train,0,H+
778.37896347,1,1000,1,1,1,0,4,2,3,5,0,250.0,train,1,H+
1210.39795876,2,1000,2,1,1,0,4,2,3,5,0,250.0,train,2,H+
730.360031128,1,1000,1,1,1,0,4,2,3,5,0,250.0,train,1,H+
443.797826767,1,1000,1,1,1,0,4,2,3,5,0,250.0,train,1,H+
1163.09285164,2,1000,2,1,1,0,4,2,3,5,0,250.0,train,2,H+
811.815023422,4,1000,3,1,1,0,4,2,3,5,0,250.0,train,4,H+
746.387958527,3,1000,5,1,1,0,4,2,3,5,0,250.0,train,3,H+
571.022033691,3,1000,5,1,1,0,4,2,3,5,0,250.0,train,3,H+
890.457868576,1,1000,1,1,1,0,4,2,3,5,0,250.0,train,1,H+
826.361894608,5,1000,4,1,1,0,4,2,3,5,0,250.0,train,5,H+
842.443943024,1,1000,1,1,1,0,4,2,3,5,0,250.0,train,1,H+
570.399999619,1,1000,1,1,1,0,4,2,3,5,0,250.0,train,1,H+
731.123924255,3,1000,5,1,1,0,4,2,3,5,0,250.0,train,3,H+
682.424068451,2,1000,2,0,1,0,4,2,3,5,0,250.0,train,1,H+
1466.36295319,1,1000,1,1,1,0,4,2,3,5,0,250.0,train,1,H+
682.410955429,5,1000,4,1,1,0,4,2,3,5,0,250.0,train,5,H+
475.81911087,5,1000,4,1,1,0,4,2,3,5,0,250.0,train,5,H+
859.796047211,0,1000,0,1,1,0,4,2,3,5,0,250.0,train,0,H+
539.788007736,0,1000,0,1,1,0,4,2,3,5,0,250.0,train,0,H+
714.308023453,0,1000,0,1,1,0,4,2,3,5,0,250.0,train,0,H+
778.438091278,0,1000,0,1,1,0,4,2,3,5,0,250.0,train,0,H+
779.078960419,5,1000,4,1,1,0,4,2,3,5,0,250.0,train,5,H+
826.258182526,2,1000,2,1,1,0,4,2,3,5,0,250.0,train,2,H+
458.238840103,2,1000,2,1,1,0,4,2,3,5,0,250.0,train,2,H+
410.259962082,2,1000,2,1,1,0,4,2,3,5,0,250.0,train,2,H+
634.250879288,3,1000,5,1,1,0,4,2,3,5,0,250.0,train,3,H+
426.342010498,3,1000,5,1,1,0,4,2,3,5,0,250.0,train,3,H+
538.259029388,3,1000,5,1,1,0,4,2,3,5,0,250.0,train,3,H+
811.058044434,2,1000,2,0,1,0,4,2,3,5,0,250.0,train,1,H+
603.741884232,3,1000,5,1,1,0,4,2,3,5,0,250.0,train,3,H+
987.828969955,0,1000,0,1,1,0,4,2,3,5,0,250.0,train,0,H+
522.369861603,3,1000,5,1,1,0,4,2,3,5,0,250.0,train,3,H+
634.373188019,0,1000,0,1,1,0,4,2,3,5,0,250.0,train,0,H+
874.358177185,4,1000,3,1,1,0,4,2,3,5,0,250.0,train,4,H+
811.819076538,0,1000,0,1,1,0,4,2,3,5,0,250.0,train,0,H+
666.306018829,4,1000,3,1,1,0,4,2,3,5,0,250.0,train,4,H+
617.062091827,4,1000,3,1,1,0,4,2,3,5,0,250.0,train,4,H+
874.38583374,1,1000,1,1,1,0,4,2,3,5,0,250.0,train,1,H+
394.353866577,1,1000,1,1,1,0,4,2,3,5,0,250.0,train,1,H+
682.381868362,4,1000,3,1,1,0,4,2,3,5,0,250.0,train,4,H+
794.34800148,1,1000,1,1,1,0,4,2,3,5,0,250.0,train,1,H+
618.376016617,0,1000,0,1,1,0,4,2,3,5,0,250.0,train,0,H+
570.402860641,3,1000,5,1,1,0,4,2,3,5,0,250.0,train,3,H+
442.283153534,0,1000,0,0,1,0,4,2,3,5,0,250.0,train,3,H+
538.240909576,0,1000,0,1,1,0,4,2,3,5,0,250.0,train,0,H+
587.762832642,5,1000,4,1,1,0,4,2,3,5,0,250.0,train,5,H+
731.719017029,3,1000,5,1,1,0,4,2,3,5,0,250.0,train,3,H+
570.347070694,0,1000,0,1,1,0,4,2,3,5,0,250.0,train,0,H+
651.028871536,4,1000,3,1,1,0,4,2,3,5,0,250.0,train,4,H+
954.375982285,0,1000,0,1,1,0,4,2,3,5,0,250.0,train,0,H+
618.355035782,0,1000,0,1,1,0,4,2,3,5,0,250.0,train,0,H+
570.335865021,1,1000,1,1,1,0,4,2,3,5,0,250.0,train,1,H+
618.354797363,3,1000,5,1,1,0,4,2,3,5,0,250.0,train,3,H+
666.369915009,0,1000,0,1,1,0,4,2,3,5,0,250.0,train,0,H+
634.314060211,5,1000,4,1,1,0,4,2,3,5,0,250.0,train,5,H+
796.258926392,3,1000,5,1,1,0,4,2,3,5,0,250.0,train,3,H+
475.833177567,3,1000,5,1,1,0,4,2,3,5,0,250.0,train,3,H+
666.373968124,2,1000,2,0,1,0,4,2,3,5,0,250.0,train,1,H+
714.360952377,0,1000,0,1,1,0,4,2,3,5,0,250.0,train,0,H+
522.958040237,5,1000,4,1,1,0,4,2,3,5,0,250.0,train,5,H+
618.273973465,0,1000,0,1,1,0,4,2,3,5,0,250.0,train,0,H+
923.194169998,4,1000,3,1,1,0,4,2,3,5,0,250.0,train,4,H+
618.402957916,0,1000,0,1,1,0,4,2,3,5,0,250.0,train,0,H+
634.379863739,1,1000,1,1,1,0,4,2,3,5,0,250.0,train,1,H+
1018.40209961,4,1000,3,1,1,0,4,2,3,5,0,250.0,train,4,H+
778.382062912,3,1000,5,1,1,0,4,2,3,5,0,250.0,train,3,H+
394.129037857,3,1000,5,1,1,0,4,2,3,5,0,250.0,train,3,H+
634.354114532,2,1000,2,0,1,0,4,2,3,5,0,250.0,train,1,H+
938.371896744,4,1000,3,1,1,0,4,2,3,5,0,250.0,train,4,H+
810.343027115,4,1000,3,1,1,0,4,2,3,5,0,250.0,train,4,H+
586.443185806,5,1000,4,1,1,0,4,2,3,5,0,250.0,train,5,H+
746.273040771,3,1000,5,1,1,0,4,2,3,5,0,250.0,train,3,H+
857.055902481,2,1000,2,1,1,0,4,2,3,5,0,250.0,train,2,H+
906.378984451,3,1000,5,1,1,0,4,2,3,5,0,250.0,train,3,H+
491.013050079,3,1000,5,1,1,0,4,2,3,5,0,250.0,train,3,H+
794.99578476,1,1000,1,1,1,0,4,2,3,5,0,250.0,train,1,H+
922.404050827,2,1000,2,1,1,0,4,2,3,5,0,250.0,train,2,H+
1131.77394867,0,1000,0,1,1,0,4,2,3,5,0,250.0,train,0,H+
523.808956146,5,1000,4,1,1,0,4,2,3,5,0,250.0,train,5,H+
890.918970108,2,1000,2,1,1,0,4,2,3,5,0,250.0,train,2,H+
715.548992157,1,1000,1,1,1,0,4,2,3,5,0,250.0,train,1,H+
539.623975754,0,1000,0,1,1,0,4,2,3,5,0,250.0,train,0,H+
427.001953125,5,1000,4,1,1,0,4,2,3,5,0,250.0,train,5,H+
714.282989502,1,1000,1,1,1,0,4,2,3,5,0,250.0,train,1,H+
1002.37202644,3,1000,5,1,1,0,4,2,3,5,0,250.0,train,3,H+
476.233005524,3,1000,5,1,1,0,4,2,3,5,0,250.0,train,3,H+
380.382061005,3,1000,5,1,1,0,4,2,3,5,0,250.0,train,3,H+
698.328018188,2,1000,2,1,1,0,4,2,3,5,0,250.0,train,2,H+
554.402828217,1,1000,1,1,1,0,4,2,3,5,0,250.0,train,1,H+
618.964910507,0,1000,0,1,1,0,4,2,3,5,0,250.0,train,0,H+
410.294055939,3,1000,5,1,1,0,4,2,3,5,0,250.0,train,3,H+
682.979822159,1,1000,1,1,1,0,4,2,3,5,0,250.0,train,1,H+
362.38694191,1,1000,1,1,1,0,4,2,3,5,0,250.0,train,1,H+
890.171051025,4,1000,3,1,1,0,4,2,3,5,0,250.0,train,4,H+
651.053905487,3,1000,5,1,1,0,4,2,3,5,0,250.0,train,3,H+
650.447130203,5,1000,4,1,1,0,4,2,3,5,0,250.0,train,5,H+
538.310050964,5,1000,4,1,1,0,4,2,3,5,0,250.0,train,5,H+
714.306116104,0,1000,0,1,1,0,4,2,3,5,0,250.0,train,0,H+
842.339038849,2,1000,2,1,1,0,4,2,3,5,0,250.0,train,2,H+
570.402145386,5,1000,4,1,1,0,4,2,3,5,0,250.0,train,5,H+
778.433084488,4,1000,3,1,1,0,4,2,3,5,0,250.0,train,4,H+
554.317951202,5,1000,4,1,1,0,4,2,3,5,0,250.0,train,5,H+
762.304067612,2,1000,2,1,1,0,4,2,3,5,0,250.0,train,2,H+
570.342063904,5,1000,4,1,1,0,4,2,3,5,0,250.0,train,5,H+
731.000185013,1,1000,1,1,1,0,4,2,3,5,0,250.0,train,1,H+
651.730060577,0,1000,0,1,1,0,4,2,3,5,0,250.0,train,0,H+
970.332145691,3,1000,5,1,1,0,4,2,3,5,0,250.0,train,3,H+
507.748126984,4,1000,3,1,1,0,4,2,3,5,0,250.0,train,4,H+
506.307125092,3,1000,5,1,1,0,4,2,3,5,0,250.0,train,3,H+
843.84393692,2,1000,2,1,1,0,4,2,3,5,0,250.0,train,2,H+
586.417913437,3,1000,5,1,1,0,4,2,3,5,0,250.0,train,3,H+
570.333003998,1,1000,1,1,1,0,4,2,3,5,0,250.0,train,1,H+
490.296125412,3,1000,5,1,1,0,4,2,3,5,0,250.0,train,3,H+
554.337024689,0,1000,0,1,1,0,4,2,3,5,0,250.0,train,0,H+
874.413013458,2,1000,2,1,1,0,4,2,3,5,0,250.0,train,2,H+
922.399044037,4,1000,3,1,1,0,4,2,3,5,0,250.0,train,4,H+
475.811004639,4,1000,3,1,1,0,4,2,3,5,0,250.0,train,4,H+
778.405189514,2,1000,2,1,1,0,4,2,3,5,0,250.0,train,2,H+
571.82097435,3,1000,5,1,1,0,4,2,3,5,0,250.0,train,3,H+
571.561098099,1,1000,1,1,1,0,4,2,3,5,0,250.0,train,1,H+
570.353984833,2,1000,2,1,1,0,4,2,3,5,0,250.0,train,2,H+
811.832904816,1,1000,1,1,1,0,4,2,3,5,0,250.0,train,1,H+
747.802019119,0,1000,0,1,1,0,4,2,3,5,0,250.0,train,0,H+
747.013092041,1,1000,1,1,1,0,4,2,3,5,0,250.0,train,1,H+
538.358211517,2,1000,2,1,1,0,4,2,3,5,0,250.0,train,2,H+
475.76212883,3,1000,5,1,1,0,4,2,3,5,0,250.0,train,3,H+
1130.45907021,1,1000,1,1,1,0,4,2,3,5,0,250.0,train,1,H+
874.467849731,4,1000,3,1,1,0,4,2,3,5,0,250.0,train,4,H+
650.387048721,3,1000,5,1,1,0,4,2,3,5,0,250.0,train,3,H+
923.794031143,5,1000,4,1,1,0,4,2,3,5,0,250.0,train,5,H+
730.414152145,1,1000,1,1,1,0,4,2,3,5,0,250.0,train,1,H+
394.42896843,1,1000,1,1,1,0,4,2,3,5,0,250.0,train,1,H+
938.409090042,0,1000,0,1,1,0,4,2,3,5,0,250.0,train,0,H+
587.068080902,3,1000,5,1,1,0,4,2,3,5,0,250.0,train,3,H+
634.341955185,0,1000,0,1,1,0,4,2,3,5,0,250.0,train,0,H+
475.388050079,5,1000,4,1,1,0,4,2,3,5,0,250.0,train,5,H+
507.750034332,1,1000,1,1,1,0,4,2,3,5,0,250.0,train,1,H+
538.30909729,4,1000,3,1,1,0,4,2,3,5,0,250.0,train,4,H+
539.808034897,1,1000,1,1,1,0,4,2,3,5,0,250.0,train,1,H+
459.781169891,2,1000,2,0,1,0,4,2,3,5,0,250.0,train,1,H+
571.74706459,3,1000,5,1,1,0,4,2,3,5,0,250.0,train,3,H+
538.341999054,0,1000,0,1,1,0,4,2,3,5,0,250.0,train,0,H+
731.298923492,4,1000,3,1,1,0,4,2,3,5,0,250.0,train,4,H+
586.343050003,1,1000,1,1,1,0,4,2,3,5,0,250.0,train,1,H+
442.294120789,5,1000,4,1,1,0,4,2,3,5,0,250.0,train,5,H+
587.032794952,0,1000,0,1,1,0,4,2,3,5,0,250.0,train,0,H+
538.387775421,3,1000,5,1,1,0,4,2,3,5,0,250.0,train,3,H+
394.412994385,3,1000,5,1,1,0,4,2,3,5,0,250.0,train,3,H+
491.784095764,5,1000,4,1,1,0,4,2,3,5,0,250.0,train,5,H+
635.806083679,2,1000,2,1,1,0,4,2,3,5,0,250.0,train,2,H+
634.393930435,0,1000,0,1,1,0,4,2,3,5,0,250.0,train,0,H+
635.743141174,1,1000,1,1,1,0,4,2,3,5,0,250.0,train,1,H+
458.355903625,2,1000,2,1,1,0,4,2,3,5,0,250.0,train,2,H+
491.7781353,4,1000,3,1,1,0,4,2,3,5,0,250.0,train,4,H+
650.365114212,1,1000,1,1,1,0,4,2,3,5,0,250.0,train,1,H+
538.264036179,0,1000,0,1,1,0,4,2,3,5,0,250.0,train,0,H+
555.721998215,2,1000,2,1,1,0,4,2,3,5,0,250.0,train,2,H+
586.467981339,1,1000,1,1,1,0,4,2,3,5,0,250.0,train,1,H+
538.315057755,5,1000,4,1,1,0,4,2,3,5,0,250.0,train,5,H+
618.417978287,0,1000,0,1,1,0,4,2,3,5,0,250.0,train,0,H+
539.408922195,5,1000,4,1,1,0,4,2,3,5,0,250.0,train,5,H+
698.320865631,4,1000,3,1,1,0,4,2,3,5,0,250.0,train,4,H+
394.368886948,4,1000,3,1,1,0,4,2,3,5,0,250.0,train,4,H+
378.434896469,3,1000,5,1,1,0,4,2,3,5,0,250.0,train,3,H+
570.370912552,4,1000,3,1,1,0,4,2,3,5,0,250.0,train,4,H+
459.836959839,4,1000,3,1,1,0,4,2,3,5,0,250.0,train,4,H+
362.39695549,4,1000,3,1,1,0,4,2,3,5,0,250.0,train,4,H+
507.859945297,0,1000,0,1,1,0,4,2,3,5,0,250.0,train,0,H+
507.699966431,5,1000,4,1,1,0,4,2,3,5,0,250.0,train,5,H+
523.816823959,0,1000,0,1,1,0,4,2,3,5,0,250.0,train,0,H+
634.980201721,1,1000,1,1,1,0,4,2,3,5,0,250.0,train,1,H+
459.844112396,5,1000,4,1,1,0,4,2,3,5,0,250.0,train,5,H+
587.795972824,3,1000,5,1,1,0,4,2,3,5,0,250.0,train,3,H+
523.795127869,0,1000,0,1,1,0,4,2,3,5,0,250.0,train,0,H+
794.282913208,2,1000,2,1,1,0,4,2,3,5,0,250.0,train,2,H+
539.578199387,4,1000,3,1,1,0,4,2,3,5,0,250.0,train,4,H+
586.38381958,5,1000,4,1,1,0,4,2,3,5,0,250.0,train,5,H+
394.323825836,5,1000,4,1,1,0,4,2,3,5,0,250.0,train,5,H+
650.367975235,3,1000,5,1,1,0,4,2,3,5,0,250.0,train,3,H+
522.250890732,5,1000,4,1,1,0,4,2,3,5,0,250.0,train,5,H+
699.766874313,0,1000,0,1,1,0,4,2,3,5,0,250.0,train,0,H+
507.806062698,5,1000,4,1,1,0,4,2,3,5,0,250.0,train,5,H+
1386.43598557,2,1000,2,1,1,0,4,2,3,5,0,250.0,train,2,H+
491.838932037,5,1000,4,1,1,0,4,2,3,5,0,250.0,train,5,H+
379.769086838,5,1000,4,1,1,0,4,2,3,5,0,250.0,train,5,H+
570.320129395,3,1000,5,1,1,0,4,2,3,5,0,250.0,train,3,H+
587.826967239,2,1000,2,1,1,0,4,2,3,5,0,250.0,train,2,H+
491.770029068,3,1000,5,1,1,0,4,2,3,5,0,250.0,train,3,H+
538.360834122,4,1000,3,1,1,0,4,2,3,5,0,250.0,train,4,H+
554.378032684,0,1000,0,1,1,0,4,2,3,5,0,250.0,train,0,H+
584.149122238,2,1000,2,1,1,0,4,2,3,5,0,250.0,train,2,H+
506.270885468,5,1000,4,1,1,0,4,2,3,5,0,250.0,train,5,H+
522.357940674,5,1000,4,1,1,0,4,2,3,5,0,250.0,train,5,H+
810.338973999,2,1000,2,1,1,0,4,2,3,5,0,250.0,train,2,H+
602.346897125,0,1000,0,1,1,0,4,2,3,5,0,250.0,train,0,H+
458.942890167,5,1000,4,1,1,0,4,2,3,5,0,250.0,train,5,H+
554.374933243,3,1000,5,1,1,0,4,2,3,5,0,250.0,train,3,H+
459.107160568,5,1000,4,1,1,0,4,2,3,5,0,250.0,train,5,H+
410.387992859,5,1000,4,1,1,0,4,2,3,5,0,250.0,train,5,H+
682.369947433,2,1000,2,0,1,0,4,2,3,5,0,250.0,train,1,H+
523.843050003,3,1000,5,1,1,0,4,2,3,5,0,250.0,train,3,H+
362.357854843,4,1000,3,0,1,0,4,2,3,5,0,250.0,train,3,H+
762.340068817,1,1000,1,1,1,0,4,2,3,5,0,250.0,train,1,H+
746.290206909,3,1000,5,1,1,0,4,2,3,5,0,250.0,train,3,H+
363.764047623,4,1000,3,1,1,0,4,2,3,5,0,250.0,train,4,H+
507.639884949,5,1000,4,1,1,0,4,2,3,5,0,250.0,train,5,H+
459.664106369,5,1000,4,1,1,0,4,2,3,5,0,250.0,train,5,H+
378.112077713,5,1000,4,1,1,0,4,2,3,5,0,250.0,train,5,H+
410.27712822,5,1000,4,1,1,0,4,2,3,5,0,250.0,train,5,H+
698.99392128,1,1000,1,1,1,0,4,2,3,5,0,250.0,train,1,H+
570.21188736,3,1000,5,1,1,0,4,2,3,5,0,250.0,train,3,H+
1017.67897606,4,1000,3,1,1,0,4,2,3,5,0,250.0,test,4,H+
698.911905289,1,1000,1,1,1,0,4,2,3,5,0,250.0,test,1,H+
618.276119232,0,1000,0,1,1,0,4,2,3,5,0,250.0,test,0,H+
507.730960846,5,1000,4,1,1,0,4,2,3,5,0,250.0,test,5,H+
587.723970413,3,1000,5,1,1,0,4,2,3,5,0,250.0,test,3,H+
475.79407692,5,1000,4,1,1,0,4,2,3,5,0,250.0,test,5,H+
554.368019104,1,1000,1,1,1,0,4,2,3,5,0,250.0,test,1,H+
617.461919785,4,1000,3,1,1,0,4,2,3,5,0,250.0,test,4,H+
426.454782486,3,1000,5,1,1,0,4,2,3,5,0,250.0,test,3,H+
810.355186462,2,1000,2,1,1,0,4,2,3,5,0,250.0,test,2,H+
507.065057755,0,1000,0,1,1,0,4,2,3,5,0,250.0,test,0,H+
538.251876831,0,1000,0,1,1,0,4,2,3,5,0,250.0,test,0,H+
617.159843445,3,1000,5,1,1,0,4,2,3,5,0,250.0,test,3,H+
522.973060608,4,1000,3,1,1,0,4,2,3,5,0,250.0,test,4,H+
730.428934097,2,1000,2,1,1,0,4,2,3,5,0,250.0,test,2,H+
522.359848022,0,1000,0,1,1,0,4,2,3,5,0,250.0,test,0,H+
410.269975662,0,1000,0,1,1,0,4,2,3,5,0,250.0,test,0,H+
554.338932037,4,1000,3,1,1,0,4,2,3,5,0,250.0,test,4,H+
763.832092285,1,1000,1,1,1,0,4,2,3,5,0,250.0,test,1,H+
538.370132446,1,1000,1,1,1,0,4,2,3,5,0,250.0,test,1,H+
667.819023132,2,1000,2,1,1,0,4,2,3,5,0,250.0,test,2,H+
491.755008698,2,1000,2,1,1,0,4,2,3,5,0,250.0,test,2,H+
571.827888489,5,1000,4,1,1,0,4,2,3,5,0,250.0,test,5,H+
441.077947617,5,1000,4,1,1,0,4,2,3,5,0,250.0,test,5,H+
795.860052109,2,1000,2,1,1,0,4,2,3,5,0,250.0,test,2,H+
475.052118301,5,1000,4,1,1,0,4,2,3,5,0,250.0,test,5,H+
571.619033813,4,1000,3,1,1,0,4,2,3,5,0,250.0,test,4,H+
379.052877426,3,1000,5,1,1,0,4,2,3,5,0,250.0,test,3,H+
570.298910141,1,1000,1,1,1,0,4,2,3,5,0,250.0,test,1,H+
491.096973419,1,1000,1,1,1,0,4,2,3,5,0,250.0,test,1,H+
634.33098793,1,1000,1,1,1,0,4,2,3,5,0,250.0,test,1,H+
442.373991013,5,1000,4,0,1,0,4,2,3,5,0,250.0,test,0,H+
683.787822723,4,1000,3,1,1,0,4,2,3,5,0,250.0,test,4,H+
523.748874664,5,1000,4,1,1,0,4,2,3,5,0,250.0,test,5,H+
522.348880768,3,1000,5,1,1,0,4,2,3,5,0,250.0,test,3,H+
571.748971939,0,1000,0,1,1,0,4,2,3,5,0,250.0,test,0,H+
459.777116776,2,1000,2,0,1,0,4,2,3,5,0,250.0,test,1,H+
474.307775497,1,1000,1,1,1,0,4,2,3,5,0,250.0,test,1,H+
522.317886353,1,1000,1,1,1,0,4,2,3,5,0,250.0,test,1,H+
555.803060532,5,1000,4,1,1,0,4,2,3,5,0,250.0,test,5,H+
570.439100266,4,1000,3,1,1,0,4,2,3,5,0,250.0,test,4,H+
554.300069809,1,1000,1,1,1,0,4,2,3,5,0,250.0,test,1,H+
1002.41994858,1,1000,1,1,1,0,4,2,3,5,0,250.0,test,1,H+
586.339950562,3,1000,5,1,1,0,4,2,3,5,0,250.0,test,3,H+
458.378076553,4,1000,3,1,1,0,4,2,3,5,0,250.0,test,4,H+
442.364931107,4,1000,3,1,1,0,4,2,3,5,0,250.0,test,4,H+
506.422042847,5,1000,4,1,1,0,4,2,3,5,0,250.0,test,5,H+
906.405925751,4,1000,3,1,1,0,4,2,3,5,0,250.0,test,4,H+
410.336971283,0,1000,0,0,1,0,4,2,3,5,0,250.0,test,3,H+
666.664123535,2,1000,2,1,1,0,4,2,3,5,0,250.0,test,2,H+
602.334022522,1,1000,1,1,1,0,4,2,3,5,0,250.0,test,1,H+
490.345954895,4,1000,3,1,1,0,4,2,3,5,0,250.0,test,4,H+
506.278991699,4,1000,3,1,1,0,4,2,3,5,0,250.0,test,4,H+
491.797924042,0,1000,0,1,1,0,4,2,3,5,0,250.0,test,0,H+
443.806886673,5,1000,4,1,1,0,4,2,3,5,0,250.0,test,5,H+
587.799072266,3,1000,5,0,1,0,4,2,3,5,0,250.0,test,4,H+
683.040142059,2,1000,2,1,1,0,4,2,3,5,0,250.0,test,2,H+
522.375106812,1,1000,1,1,1,0,4,2,3,5,0,250.0,test,1,H+
538.269042969,5,1000,4,1,1,0,4,2,3,5,0,250.0,test,5,H+
538.323879242,1,1000,1,1,1,0,4,2,3,5,0,250.0,test,1,H+
666.240930557,3,1000,5,1,1,0,4,2,3,5,0,250.0,test,3,H+
523.015975952,5,1000,4,1,1,0,4,2,3,5,0,250.0,test,5,H+
538.329124451,1,1000,1,1,1,0,4,2,3,5,0,250.0,test,1,H+
585.960149765,0,1000,0,1,1,0,4,2,3,5,0,250.0,test,0,H+
586.274862289,0,1000,0,1,1,0,4,2,3,5,0,250.0,test,0,H+
554.398059845,5,1000,4,1,1,0,4,2,3,5,0,250.0,test,5,H+
538.413047791,2,1000,2,1,1,0,4,2,3,5,0,250.0,test,2,H+
474.370956421,1,1000,1,1,1,0,4,2,3,5,0,250.0,test,1,H+
634.207010269,0,1000,0,1,1,0,4,2,3,5,0,250.0,test,0,H+
666.405916214,3,1000,5,1,1,0,4,2,3,5,0,250.0,test,3,H+
554.357051849,0,1000,0,1,1,0,4,2,3,5,0,250.0,test,0,H+
538.377046585,5,1000,4,1,1,0,4,2,3,5,0,250.0,test,5,H+
330.34992218,5,1000,4,1,1,0,4,2,3,5,0,250.0,test,5,H+
538.389921188,3,1000,5,1,1,0,4,2,3,5,0,250.0,test,3,H+
826.354026794,2,1000,2,1,1,0,4,2,3,5,0,250.0,test,2,H+
714.370965958,4,1000,3,1,1,0,4,2,3,5,0,250.0,test,4,H+
491.040945053,0,1000,0,1,1,0,4,2,3,5,0,250.0,test,0,H+
490.351915359,0,1000,0,1,1,0,4,2,3,5,0,250.0,test,0,H+
506.358861923,3,1000,5,1,1,0,4,2,3,5,0,250.0,test,3,H+
650.505065918,4,1000,3,1,1,0,4,2,3,5,0,250.0,test,4,H+
506.38794899,0,1000,0,1,1,0,4,2,3,5,0,250.0,test,0,H+
474.349021912,0,1000,0,1,1,0,4,2,3,5,0,250.0,test,0,H+
489.066839218,0,1000,0,1,1,0,4,2,3,5,0,250.0,test,0,H+
586.92407608,5,1000,4,1,1,0,4,2,3,5,0,250.0,test,5,H+
667.773008347,1,1000,1,1,1,0,4,2,3,5,0,250.0,test,1,H+
475.831031799,1,1000,1,1,1,0,4,2,3,5,0,250.0,test,1,H+
395.750045776,1,1000,1,1,1,0,4,2,3,5,0,250.0,test,1,H+
522.356987,3,1000,5,1,1,0,4,2,3,5,0,250.0,test,3,H+
474.419116974,4,1000,3,1,1,0,4,2,3,5,0,250.0,test,4,H+
522.296905518,0,1000,0,1,1,0,4,2,3,5,0,250.0,test,0,H+
458.312988281,1,1000,1,1,1,0,4,2,3,5,0,250.0,test,1,H+
507.616043091,3,1000,5,1,1,0,4,2,3,5,0,250.0,test,3,H+
538.282871246,5,1000,4,1,1,0,4,2,3,5,0,250.0,test,5,H+
682.299852371,5,1000,4,1,1,0,4,2,3,5,0,250.0,test,5,H+
490.215063095,1,1000,1,1,1,0,4,2,3,5,0,250.0,test,1,H+
443.805932999,5,1000,4,1,1,0,4,2,3,5,0,250.0,test,5,H+
570.287227631,0,1000,0,1,1,0,4,2,3,5,0,250.0,test,0,H+
619.855880737,2,1000,2,1,1,0,4,2,3,5,0,250.0,test,2,H+
634.276866913,1,1000,1,1,1,0,4,2,3,5,0,250.0,test,1,H+
794.435977936,4,1000,3,1,1,0,4,2,3,5,0,250.0,test,4,H+
538.39302063,5,1000,4,1,1,0,4,2,3,5,0,250.0,test,5,H+
427.738904953,5,1000,4,1,1,0,4,2,3,5,0,250.0,test,5,H+
571.793079376,1,1000,1,1,1,0,4,2,3,5,0,250.0,test,1,H+
571.86293602,5,1000,4,1,1,0,4,2,3,5,0,250.0,test,5,H+
730.375051498,4,1000,3,1,1,0,4,2,3,5,0,250.0,test,4,H+
730.454921722,2,1000,2,1,1,0,4,2,3,5,0,250.0,test,2,H+
619.225025177,5,1000,4,1,1,0,4,2,3,5,0,250.0,test,5,H+
698.992013931,4,1000,3,1,1,0,4,2,3,5,0,250.0,test,4,H+
586.385011673,1,1000,1,1,1,0,4,2,3,5,0,250.0,test,1,H+
571.875095367,0,1000,0,1,1,0,4,2,3,5,0,250.0,test,0,H+
587.164163589,3,1000,5,1,1,0,4,2,3,5,0,250.0,test,3,H+
586.379051208,3,1000,5,1,1,0,4,2,3,5,0,250.0,test,3,H+
442.392110825,3,1000,5,1,1,0,4,2,3,5,0,250.0,test,3,H+
522.364854813,5,1000,4,1,1,0,4,2,3,5,0,250.0,test,5,H+
330.358028412,5,1000,4,1,1,0,4,2,3,5,0,250.0,test,5,H+
506.220817566,1,1000,1,1,1,0,4,2,3,5,0,250.0,test,1,H+
378.327846527,2,1000,2,0,1,0,4,2,3,5,0,250.0,test,1,H+
507.738113403,4,1000,3,0,1,0,4,2,3,5,0,250.0,test,3,H+
618.317127228,2,1000,2,1,1,0,4,2,3,5,0,250.0,test,2,H+
698.33612442,5,1000,4,1,1,0,4,2,3,5,0,250.0,test,5,H+
603.770971298,2,1000,2,1,1,0,4,2,3,5,0,250.0,test,2,H+
762.380838394,3,1000,5,1,1,0,4,2,3,5,0,250.0,test,3,H+
395.745992661,3,1000,5,1,1,0,4,2,3,5,0,250.0,test,3,H+
635.648012161,1,1000,1,1,1,0,4,2,3,5,0,250.0,test,1,H+
633.102893829,3,1000,5,1,1,0,4,2,3,5,0,250.0,test,3,H+
441.093206406,0,1000,0,1,1,0,4,2,3,5,0,250.0,test,0,H+
522.302865982,1,1000,1,1,1,0,4,2,3,5,0,250.0,test,1,H+
794.243097305,4,1000,3,1,1,0,4,2,3,5,0,250.0,test,4,H+
538.341999054,1,1000,1,1,1,0,4,2,3,5,0,250.0,test,1,H+
618.386030197,2,1000,2,1,1,0,4,2,3,5,0,250.0,test,2,H+
571.818828583,4,1000,3,1,1,0,4,2,3,5,0,250.0,test,4,H+
538.34104538,4,1000,3,1,1,0,4,2,3,5,0,250.0,test,4,H+
507.826805115,5,1000,4,1,1,0,4,2,3,5,0,250.0,test,5,H+
490.865945816,4,1000,3,1,1,0,4,2,3,5,0,250.0,test,4,H+
523.822069168,1,1000,1,1,1,0,4,2,3,5,0,250.0,test,1,H+
570.371866226,5,1000,4,1,1,0,4,2,3,5,0,250.0,test,5,H+
603.86800766,3,1000,5,1,1,0,4,2,3,5,0,250.0,test,3,H+
731.019020081,2,1000,2,1,1,0,4,2,3,5,0,250.0,test,2,H+
714.407920837,3,1000,5,1,1,0,4,2,3,5,0,250.0,test,3,H+
523.102998734,3,1000,5,1,1,0,4,2,3,5,0,250.0,test,3,H+
346.379995346,4,1000,3,1,1,0,4,2,3,5,0,250.0,test,4,H+
426.332950592,5,1000,4,1,1,0,4,2,3,5,0,250.0,test,5,H+
394.378900528,1,1000,1,1,1,0,4,2,3,5,0,250.0,test,1,H+
555.098056793,5,1000,4,1,1,0,4,2,3,5,0,250.0,test,5,H+
426.31816864,4,1000,3,1,1,0,4,2,3,5,0,250.0,test,4,H+
554.331064224,1,1000,1,1,1,0,4,2,3,5,0,250.0,test,1,H+
554.383993149,3,1000,5,1,1,0,4,2,3,5,0,250.0,test,3,H+
442.260980606,4,1000,3,1,1,0,4,2,3,5,0,250.0,test,4,H+
490.339994431,4,1000,3,1,1,0,4,2,3,5,0,250.0,test,4,H+
378.306150436,5,1000,4,1,1,0,4,2,3,5,0,250.0,test,5,H+
522.342920303,3,1000,5,1,1,0,4,2,3,5,0,250.0,test,3,H+
378.561019897,2,1000,2,0,1,0,4,2,3,5,0,250.0,test,1,H+
507.814884186,5,1000,4,1,1,0,4,2,3,5,0,250.0,test,5,H+
507.827043533,1,1000,1,1,1,0,4,2,3,5,0,250.0,test,1,H+
491.791009903,5,1000,4,1,1,0,4,2,3,5,0,250.0,test,5,H+
635.783910751,4,1000,3,1,1,0,4,2,3,5,0,250.0,test,4,H+
411.762952805,4,1000,3,1,1,0,4,2,3,5,0,250.0,test,4,H+
539.636135101,0,1000,0,1,1,0,4,2,3,5,0,250.0,test,0,H+
474.28393364,5,1000,4,1,1,0,4,2,3,5,0,250.0,test,5,H+
331.605911255,5,1000,4,1,1,0,4,2,3,5,0,250.0,test,5,H+
601.865053177,3,1000,5,1,1,0,4,2,3,5,0,250.0,test,3,H+
666.33105278,4,1000,3,1,1,0,4,2,3,5,0,250.0,test,4,H+
538.324832916,3,1000,5,1,1,0,4,2,3,5,0,250.0,test,3,H+
490.542888641,3,1000,5,0,1,0,4,2,3,5,0,250.0,test,4,H+
458.344936371,4,1000,3,1,1,0,4,2,3,5,0,250.0,test,4,H+
379.814147949,3,1000,5,1,1,0,4,2,3,5,0,250.0,test,3,H+
714.463949203,2,1000,2,1,1,0,4,2,3,5,0,250.0,test,2,H+
619.832992554,0,1000,0,1,1,0,4,2,3,5,0,250.0,test,0,H+
475.786924362,1,1000,1,1,1,0,4,2,3,5,0,250.0,test,1,H+
443.153858185,1,1000,1,1,1,0,4,2,3,5,0,250.0,test,1,H+
490.373134613,1,1000,1,1,1,0,4,2,3,5,0,250.0,test,1,H+
570.961952209,2,1000,2,1,1,0,4,2,3,5,0,250.0,test,2,H+
651.834011078,1,1000,1,1,1,0,4,2,3,5,0,250.0,test,1,H+
730.293989182,3,1000,5,1,1,0,4,2,3,5,0,250.0,test,3,H+
586.381912231,1,1000,1,1,1,0,4,2,3,5,0,250.0,test,1,H+
617.890834808,3,1000,5,1,1,0,4,2,3,5,0,250.0,test,3,H+
490.448951721,4,1000,3,1,1,0,4,2,3,5,0,250.0,test,4,H+
394.352912903,5,1000,4,1,1,0,4,2,3,5,0,250.0,test,5,H+
586.349964142,1,1000,1,1,1,0,4,2,3,5,0,250.0,test,1,H+
538.243055344,3,1000,5,1,1,0,4,2,3,5,0,250.0,test,3,H+
458.449840546,1,1000,1,1,1,0,4,2,3,5,0,250.0,test,1,H+
458.457946777,0,1000,0,1,1,0,4,2,3,5,0,250.0,test,0,H+
394.494056702,3,1000,5,0,1,0,4,2,3,5,0,250.0,test,1,H+
602.334976196,2,1000,2,1,1,0,4,2,3,5,0,250.0,test,2,H+
555.812835693,0,1000,0,1,1,0,4,2,3,5,0,250.0,test,0,H+
491.088151932,5,1000,4,1,1,0,4,2,3,5,0,250.0,test,5,H+
666.195869446,1,1000,1,1,1,0,4,2,3,5,0,250.0,test,1,H+
411.04722023,4,1000,3,1,1,0,4,2,3,5,0,250.0,test,4,H+
570.228099823,5,1000,4,1,1,0,4,2,3,5,0,250.0,test,5,H+
523.042917252,1,1000,1,1,1,0,4,2,3,5,0,250.0,test,1,H+
475.696086884,1,1000,1,1,1,0,4,2,3,5,0,250.0,test,1,H+
459.061861038,3,1000,5,0,1,0,4,2,3,5,0,250.0,test,4,H+
571.724891663,4,1000,3,1,1,0,4,2,3,5,0,250.0,test,4,H+
842.300891876,1,1000,1,1,1,0,4,2,3,5,0,250.0,test,1,H+
459.137201309,1,1000,1,1,1,0,4,2,3,5,0,250.0,test,1,H+
570.374011993,3,1000,5,1,1,0,4,2,3,5,0,250.0,test,3,H+
554.428815842,2,1000,2,1,1,0,4,2,3,5,0,250.0,test,2,H+
458.368062973,5,1000,4,1,1,0,4,2,3,5,0,250.0,test,5,H+
411.807060242,5,1000,4,1,1,0,4,2,3,5,0,250.0,test,5,H+
459.841012955,3,1000,5,1,1,0,4,2,3,5,0,250.0,test,3,H+
362.402915955,4,1000,3,1,1,0,4,2,3,5,0,250.0,test,4,H+
619.75812912,0,1000,0,1,1,0,4,2,3,5,0,250.0,test,0,H+
521.147012711,5,1000,4,1,1,0,4,2,3,5,0,250.0,test,5,H+
634.46521759,0,1000,0,1,1,0,4,2,3,5,0,250.0,test,0,H+
410.383939743,1,1000,1,1,1,0,4,2,3,5,0,250.0,test,1,H+
506.371021271,3,1000,5,1,1,0,4,2,3,5,0,250.0,test,3,H+
346.405029297,4,1000,3,1,1,0,4,2,3,5,0,250.0,test,4,H+
475.742101669,3,1000,5,1,1,0,4,2,3,5,0,250.0,test,3,H+
715.731143951,5,1000,4,1,1,0,4,2,3,5,0,250.0,test,5,H+
521.045923233,1,1000,1,1,1,0,4,2,3,5,0,250.0,test,1,H+
618.430137634,4,1000,3,1,1,0,4,2,3,5,0,250.0,test,4,H+
602.381944656,3,1000,5,1,1,0,4,2,3,5,0,250.0,test,3,H+
506.399154663,0,1000,0,1,1,0,4,2,3,5,0,250.0,test,0,H+
474.375009537,2,1000,2,0,1,0,4,2,3,5,0,250.0,test,1,H+
410.290002823,2,1000,2,1,1,0,4,2,3,5,0,250.0,test,2,H+
569.068908691,0,1000,0,1,1,0,4,2,3,5,0,250.0,test,0,H+
522.27306366,4,1000,3,1,1,0,4,2,3,5,0,250.0,test,4,H+
538.425922394,0,1000,0,1,1,0,4,2,3,5,0,250.0,test,0,H+
570.425033569,4,1000,3,1,1,0,4,2,3,5,0,250.0,test,4,H+
507.848978043,3,1000,5,1,1,0,4,2,3,5,0,250.0,test,3,H+
522.98784256,4,1000,3,1,1,0,4,2,3,5,0,250.0,test,4,H+
539.800167084,5,1000,4,1,1,0,4,2,3,5,0,250.0,test,5,H+
395.679950714,5,1000,4,1,1,0,4,2,3,5,0,250.0,test,5,H+
571.817874908,2,1000,2,0,1,0,4,2,3,5,0,250.0,test,1,H+
538.300037384,3,1000,5,1,1,0,4,2,3,5,0,250.0,test,3,H+
555.558204651,1,1000,1,1,1,0,4,2,3,5,0,250.0,test,1,H+
523.617982864,4,1000,3,1,1,0,4,2,3,5,0,250.0,test,4,H+
522.288799286,0,1000,0,1,1,0,4,2,3,5,0,250.0,test,0,H+
474.385023117,2,1000,2,1,1,0,4,2,3,5,0,250.0,test,2,H+
714.465856552,4,1000,3,1,1,0,4,2,3,5,0,250.0,test,4,H+
315.691947937,4,1000,3,1,1,0,4,2,3,5,0,250.0,test,4,H+
667.849063873,2,1000,2,1,1,0,4,2,3,5,0,250.0,test,2,H+
458.378076553,1,1000,1,1,1,0,4,2,3,5,0,250.0,test,1,H+
586.407899857,3,1000,5,1,1,0,4,2,3,5,0,250.0,test,3,H+
491.00279808,5,1000,4,1,1,0,4,2,3,5,0,250.0,test,5,H+
458.362817764,4,1000,3,1,1,0,4,2,3,5,0,250.0,test,4,H+
522.941112518,5,1000,4,1,1,0,4,2,3,5,0,250.0,test,5,H+
490.472078323,1,1000,1,1,1,0,4,2,3,5,0,250.0,test,1,H+
554.262876511,3,1000,5,1,1,0,4,2,3,5,0,250.0,test,3,H+
554.383039474,4,1000,3,1,1,0,4,2,3,5,0,250.0,test,4,H+
522.998809814,1,1000,1,1,1,0,4,2,3,5,0,250.0,test,1,H+
618.447065353,0,1000,0,1,1,0,4,2,3,5,0,250.0,test,0,H+
538.264989853,2,1000,2,1,1,0,4,2,3,5,0,250.0,test,2,H+
490.368843079,0,1000,0,1,1,0,4,2,3,5,0,250.0,test,0,H+
570.384025574,3,1000,5,1,1,0,4,2,3,5,0,250.0,test,3,H+
554.395198822,1,1000,1,1,1,0,4,2,3,5,0,250.0,test,1,H+
506.333112717,0,1000,0,1,1,0,4,2,3,5,0,250.0,test,0,H+
474.370002747,1,1000,1,1,1,0,4,2,3,5,0,250.0,test,1,H+
490.336179733,1,1000,1,1,1,0,4,2,3,5,0,250.0,test,1,H+
538.397789001,3,1000,5,1,1,0,4,2,3,5,0,250.0,test,3,H+
