RT,correct_response,ms-prestimblank,curstim,correct,SRmap_1,SRmap_0,SRmap_3,SRmap_2,SRmap_5,SRmap_4,ms-precue,ntrials,type,response,condition
12247.3008633,4,600,3,0,5,3,4,2,1,0,400,250.0,train,2,E-
2775.45595169,1,600,5,1,5,3,4,2,1,0,400,250.0,train,1,E-
3639.71710205,2,600,2,1,5,3,4,2,1,0,400,250.0,train,2,E-
2553.40385437,1,600,5,1,5,3,4,2,1,0,400,250.0,train,1,E-
3399.69182014,5,600,1,1,5,3,4,2,1,0,400,250.0,train,5,E-
2327.81815529,5,600,1,1,5,3,4,2,1,0,400,250.0,train,5,E-
3159.82699394,3,600,0,1,5,3,4,2,1,0,400,250.0,train,3,E-
2903.86390686,1,600,5,1,5,3,4,2,1,0,400,250.0,train,1,E-
3223.87909889,0,600,4,1,5,3,4,2,1,0,400,250.0,train,0,E-
2343.78314018,3,600,0,1,5,3,4,2,1,0,400,250.0,train,3,E-
1351.88388824,3,600,0,1,5,3,4,2,1,0,400,250.0,train,3,E-
1959.97977257,1,600,5,1,5,3,4,2,1,0,400,250.0,train,1,E-
1175.96292496,3,600,0,1,5,3,4,2,1,0,400,250.0,train,3,E-
375.859975815,2,600,2,0,5,3,4,2,1,0,400,250.0,train,1,E-
2217.28801727,0,600,4,1,5,3,4,2,1,0,400,250.0,train,0,E-
2215.82984924,3,600,0,1,5,3,4,2,1,0,400,250.0,train,3,E-
1367.8958416,0,600,4,1,5,3,4,2,1,0,400,250.0,train,0,E-
1607.80310631,4,600,3,0,5,3,4,2,1,0,400,250.0,train,5,E-
1431.81204796,4,600,3,1,5,3,4,2,1,0,400,250.0,train,4,E-
888.55099678,5,600,1,1,5,3,4,2,1,0,400,250.0,train,5,E-
1047.67799377,1,600,5,0,5,3,4,2,1,0,400,250.0,train,0,E-
1879.78792191,0,600,4,1,5,3,4,2,1,0,400,250.0,train,0,E-
1863.69800568,4,600,3,1,5,3,4,2,1,0,400,250.0,train,4,E-
1385.21504402,2,600,2,0,5,3,4,2,1,0,400,250.0,train,1,E-
1927.85286903,3,600,0,1,5,3,4,2,1,0,400,250.0,train,3,E-
359.77602005,4,600,3,1,5,3,4,2,1,0,400,250.0,train,4,E-
759.768009186,1,600,5,1,5,3,4,2,1,0,400,250.0,train,1,E-
152.416944504,1,600,5,1,5,3,4,2,1,0,400,250.0,train,1,E-
153.036117554,0,600,4,1,5,3,4,2,1,0,400,250.0,train,0,E-
967.978000641,2,600,2,1,5,3,4,2,1,0,400,250.0,train,2,E-
551.956176758,5,600,1,1,5,3,4,2,1,0,400,250.0,train,5,E-
216.570138931,1,600,5,1,5,3,4,2,1,0,400,250.0,train,1,E-
135.905981064,0,600,4,1,5,3,4,2,1,0,400,250.0,train,0,E-
103.619813919,1,600,5,1,5,3,4,2,1,0,400,250.0,train,1,E-
376.54209137,4,600,3,1,5,3,4,2,1,0,400,250.0,train,4,E-
183.726072311,1,600,5,1,5,3,4,2,1,0,400,250.0,train,1,E-
231.742143631,1,600,5,1,5,3,4,2,1,0,400,250.0,train,1,E-
217.204093933,4,600,3,1,5,3,4,2,1,0,400,250.0,train,4,E-
183.724164963,4,600,3,1,5,3,4,2,1,0,400,250.0,train,4,E-
199.659109116,1,600,5,1,5,3,4,2,1,0,400,250.0,train,1,E-
249.179840088,1,600,5,1,5,3,4,2,1,0,400,250.0,train,1,E-
487.686872482,5,600,1,1,5,3,4,2,1,0,400,250.0,train,5,E-
135.607004166,0,600,4,1,5,3,4,2,1,0,400,250.0,train,0,E-
231.605052948,4,600,3,1,5,3,4,2,1,0,400,250.0,train,4,E-
119.61889267,4,600,3,1,5,3,4,2,1,0,400,250.0,train,4,E-
297.399044037,3,600,0,1,5,3,4,2,1,0,400,250.0,train,3,E-
585.207939148,4,600,3,1,5,3,4,2,1,0,400,250.0,train,4,E-
71.662902832,4,600,3,1,5,3,4,2,1,0,400,250.0,train,4,E-
121.185064316,1,600,5,1,5,3,4,2,1,0,400,250.0,train,1,E-
135.654211044,4,600,3,1,5,3,4,2,1,0,400,250.0,train,4,E-
343.257904053,0,600,4,1,5,3,4,2,1,0,400,250.0,train,0,E-
105.232954025,5,600,1,1,5,3,4,2,1,0,400,250.0,train,5,E-
71.722984314,1,600,5,1,5,3,4,2,1,0,400,250.0,train,1,E-
150.478124619,5,600,1,1,5,3,4,2,1,0,400,250.0,train,5,E-
215.638875961,1,600,5,1,5,3,4,2,1,0,400,250.0,train,1,E-
151.738882065,5,600,1,1,5,3,4,2,1,0,400,250.0,train,5,E-
57.1129322052,1,600,5,1,5,3,4,2,1,0,400,250.0,train,1,E-
135.69188118,4,600,3,0,5,3,4,2,1,0,400,250.0,train,1,E-
263.845920563,4,600,3,1,5,3,4,2,1,0,400,250.0,train,4,E-
103.81603241,1,600,5,1,5,3,4,2,1,0,400,250.0,train,1,E-
167.798042297,5,600,1,1,5,3,4,2,1,0,400,250.0,train,5,E-
183.840990067,5,600,1,1,5,3,4,2,1,0,400,250.0,train,5,E-
103.918075562,5,600,1,1,5,3,4,2,1,0,400,250.0,train,5,E-
919.865846634,5,600,1,1,5,3,4,2,1,0,400,250.0,train,5,E-
167.901039124,4,600,3,1,5,3,4,2,1,0,400,250.0,train,4,E-
183.907032013,0,600,4,1,5,3,4,2,1,0,400,250.0,train,0,E-
583.858966827,0,600,4,1,5,3,4,2,1,0,400,250.0,train,0,E-
391.901016235,3,600,0,0,5,3,4,2,1,0,400,250.0,train,4,E-
295.835018158,0,600,4,1,5,3,4,2,1,0,400,250.0,train,0,E-
295.614957809,2,600,2,1,5,3,4,2,1,0,400,250.0,train,2,E-
119.688987732,0,600,4,1,5,3,4,2,1,0,400,250.0,train,0,E-
249.330997467,3,600,0,1,5,3,4,2,1,0,400,250.0,train,3,E-
199.73897934,0,600,4,1,5,3,4,2,1,0,400,250.0,train,0,E-
295.743942261,1,600,5,1,5,3,4,2,1,0,400,250.0,train,1,E-
7.69090652466,2,600,2,1,5,3,4,2,1,0,400,250.0,train,2,E-
231.688022614,1,600,5,1,5,3,4,2,1,0,400,250.0,train,1,E-
551.425933838,1,600,5,1,5,3,4,2,1,0,400,250.0,train,1,E-
263.623952866,5,600,1,1,5,3,4,2,1,0,400,250.0,train,5,E-
38.4609699249,1,600,5,1,5,3,4,2,1,0,400,250.0,train,1,E-
39.694070816,0,600,4,1,5,3,4,2,1,0,400,250.0,train,0,E-
183.703899384,2,600,2,1,5,3,4,2,1,0,400,250.0,train,2,E-
39.6819114685,0,600,4,1,5,3,4,2,1,0,400,250.0,train,0,E-
57.3260784149,2,600,2,1,5,3,4,2,1,0,400,250.0,train,2,E-
87.6061916351,0,600,4,1,5,3,4,2,1,0,400,250.0,train,0,E-
71.6660022736,1,600,5,1,5,3,4,2,1,0,400,250.0,train,1,E-
105.219841003,3,600,0,1,5,3,4,2,1,0,400,250.0,train,3,E-
295.732021332,5,600,1,1,5,3,4,2,1,0,400,250.0,train,5,E-
55.675983429,4,600,3,1,5,3,4,2,1,0,400,250.0,train,4,E-
153.188943863,2,600,2,0,5,3,4,2,1,0,400,250.0,train,3,E-
423.784971237,5,600,1,1,5,3,4,2,1,0,400,250.0,train,5,E-
631.850004196,3,600,0,1,5,3,4,2,1,0,400,250.0,train,3,E-
439.866065979,1,600,5,1,5,3,4,2,1,0,400,250.0,train,1,E-
55.9420585632,0,600,4,1,5,3,4,2,1,0,400,250.0,train,0,E-
343.878030777,2,600,2,1,5,3,4,2,1,0,400,250.0,train,2,E-
215.906143188,2,600,2,1,5,3,4,2,1,0,400,250.0,train,2,E-
135.704040527,2,600,2,1,5,3,4,2,1,0,400,250.0,train,2,E-
215.79003334,0,600,4,1,5,3,4,2,1,0,400,250.0,train,0,E-
295.876979828,1,600,5,1,5,3,4,2,1,0,400,250.0,train,1,E-
87.8889560699,2,600,2,1,5,3,4,2,1,0,400,250.0,train,2,E-
215.861797333,5,600,1,1,5,3,4,2,1,0,400,250.0,train,5,E-
215.688943863,4,600,3,1,5,3,4,2,1,0,400,250.0,train,4,E-
487.909078598,3,600,0,1,5,3,4,2,1,0,400,250.0,train,3,E-
55.9258460999,3,600,0,1,5,3,4,2,1,0,400,250.0,train,3,E-
168.228149414,0,600,4,1,5,3,4,2,1,0,400,250.0,train,0,E-
489.188194275,4,600,3,0,5,3,4,2,1,0,400,250.0,train,5,E-
728.698015213,2,600,2,1,5,3,4,2,1,0,400,250.0,train,2,E-
185.254096985,5,600,1,1,5,3,4,2,1,0,400,250.0,train,5,E-
1207.79681206,2,600,2,1,5,3,4,2,1,0,400,250.0,train,2,E-
265.315055847,5,600,1,1,5,3,4,2,1,0,400,250.0,train,5,E-
263.739109039,3,600,0,1,5,3,4,2,1,0,400,250.0,train,3,E-
376.67798996,5,600,1,1,5,3,4,2,1,0,400,250.0,train,5,E-
313.215017319,4,600,3,1,5,3,4,2,1,0,400,250.0,train,4,E-
23.7350463867,4,600,3,1,5,3,4,2,1,0,400,250.0,train,4,E-
199.630975723,3,600,0,1,5,3,4,2,1,0,400,250.0,train,3,E-
135.59794426,3,600,0,1,5,3,4,2,1,0,400,250.0,train,3,E-
135.665178299,0,600,4,1,5,3,4,2,1,0,400,250.0,train,0,E-
647.630929947,2,600,2,1,5,3,4,2,1,0,400,250.0,train,2,E-
135.765075684,3,600,0,1,5,3,4,2,1,0,400,250.0,train,3,E-
247.648000717,2,600,2,0,5,3,4,2,1,0,400,250.0,train,1,E-
1177.31499672,1,600,5,1,5,3,4,2,1,0,400,250.0,train,1,E-
152.48298645,1,600,5,1,5,3,4,2,1,0,400,250.0,train,1,E-
343.741178513,1,600,5,1,5,3,4,2,1,0,400,250.0,train,1,E-
647.711038589,3,600,0,1,5,3,4,2,1,0,400,250.0,train,3,E-
375.728130341,1,600,5,1,5,3,4,2,1,0,400,250.0,train,1,E-
296.499967575,2,600,2,1,5,3,4,2,1,0,400,250.0,train,2,E-
343.724966049,2,600,2,1,5,3,4,2,1,0,400,250.0,train,2,E-
72.536945343,0,600,4,1,5,3,4,2,1,0,400,250.0,train,0,E-
310.669898987,2,600,2,1,5,3,4,2,1,0,400,250.0,train,2,E-
201.118946075,5,600,1,1,5,3,4,2,1,0,400,250.0,train,5,E-
407.814979553,2,600,2,1,5,3,4,2,1,0,400,250.0,train,2,E-
983.906984329,5,600,1,1,5,3,4,2,1,0,400,250.0,train,5,E-
278.57208252,1,600,5,1,5,3,4,2,1,0,400,250.0,train,1,E-
264.585971832,4,600,3,1,5,3,4,2,1,0,400,250.0,train,4,E-
135.889053345,3,600,0,1,5,3,4,2,1,0,400,250.0,train,3,E-
279.865026474,2,600,2,1,5,3,4,2,1,0,400,250.0,train,2,E-
183.984994888,0,600,4,1,5,3,4,2,1,0,400,250.0,train,0,E-
248.165845871,5,600,1,1,5,3,4,2,1,0,400,250.0,train,5,E-
681.200027466,1,600,5,0,5,3,4,2,1,0,400,250.0,train,2,E-
871.77491188,3,600,0,1,5,3,4,2,1,0,400,250.0,train,3,E-
199.755907059,5,600,1,1,5,3,4,2,1,0,400,250.0,train,5,E-
247.802972794,5,600,1,1,5,3,4,2,1,0,400,250.0,train,5,E-
215.719938278,3,600,0,1,5,3,4,2,1,0,400,250.0,train,3,E-
167.768001556,0,600,4,1,5,3,4,2,1,0,400,250.0,train,0,E-
105.112075806,3,600,0,1,5,3,4,2,1,0,400,250.0,train,3,E-
137.120008469,3,600,0,1,5,3,4,2,1,0,400,250.0,train,3,E-
121.148109436,4,600,3,1,5,3,4,2,1,0,400,250.0,train,4,E-
71.6750621796,4,600,3,1,5,3,4,2,1,0,400,250.0,train,4,E-
87.6710414886,0,600,4,1,5,3,4,2,1,0,400,250.0,train,0,E-
103.754997253,3,600,0,1,5,3,4,2,1,0,400,250.0,train,3,E-
615.659952164,2,600,2,1,5,3,4,2,1,0,400,250.0,train,2,E-
89.3909931183,2,600,2,1,5,3,4,2,1,0,400,250.0,train,2,E-
41.2228107452,0,600,4,1,5,3,4,2,1,0,400,250.0,train,0,E-
72.4220275879,2,600,2,1,5,3,4,2,1,0,400,250.0,train,2,E-
87.6140594482,1,600,5,1,5,3,4,2,1,0,400,250.0,train,1,E-
167.841911316,2,600,2,1,5,3,4,2,1,0,400,250.0,train,2,E-
214.646816254,3,600,0,1,5,3,4,2,1,0,400,250.0,train,3,E-
201.215982437,5,600,1,1,5,3,4,2,1,0,400,250.0,train,5,E-
169.167995453,4,600,3,1,5,3,4,2,1,0,400,250.0,train,4,E-
167.734146118,1,600,5,1,5,3,4,2,1,0,400,250.0,train,1,E-
423.741102219,5,600,1,1,5,3,4,2,1,0,400,250.0,train,5,E-
119.711875916,0,600,4,1,5,3,4,2,1,0,400,250.0,train,0,E-
103.754043579,0,600,4,1,5,3,4,2,1,0,400,250.0,train,0,E-
583.71591568,0,600,4,1,5,3,4,2,1,0,400,250.0,train,0,E-
151.835918427,1,600,5,1,5,3,4,2,1,0,400,250.0,train,1,E-
105.051994324,0,600,4,1,5,3,4,2,1,0,400,250.0,train,0,E-
87.4919891357,3,600,0,0,5,3,4,2,1,0,400,250.0,train,2,E-
983.851909637,0,600,4,1,5,3,4,2,1,0,400,250.0,train,0,E-
55.8319091797,0,600,4,1,5,3,4,2,1,0,400,250.0,train,0,E-
487.838029861,0,600,4,1,5,3,4,2,1,0,400,250.0,train,0,E-
439.755916595,0,600,4,1,5,3,4,2,1,0,400,250.0,train,0,E-
343.880176544,3,600,0,1,5,3,4,2,1,0,400,250.0,train,3,E-
103.890895844,3,600,0,1,5,3,4,2,1,0,400,250.0,train,3,E-
201.17688179,5,600,1,1,5,3,4,2,1,0,400,250.0,train,5,E-
87.9471302032,5,600,1,1,5,3,4,2,1,0,400,250.0,train,5,E-
201.210021973,0,600,4,1,5,3,4,2,1,0,400,250.0,train,0,E-
57.1730136871,0,600,4,1,5,3,4,2,1,0,400,250.0,train,0,E-
488.600969315,0,600,4,1,5,3,4,2,1,0,400,250.0,train,0,E-
281.249046326,4,600,3,0,5,3,4,2,1,0,400,250.0,train,3,E-
745.026111603,2,600,2,0,5,3,4,2,1,0,400,250.0,train,3,E-
423.851966858,5,600,1,1,5,3,4,2,1,0,400,250.0,train,5,E-
119.745969772,0,600,4,1,5,3,4,2,1,0,400,250.0,train,0,E-
153.204917908,1,600,5,1,5,3,4,2,1,0,400,250.0,train,1,E-
135.870933533,5,600,1,1,5,3,4,2,1,0,400,250.0,train,5,E-
119.66586113,5,600,1,1,5,3,4,2,1,0,400,250.0,train,5,E-
151.729822159,1,600,5,1,5,3,4,2,1,0,400,250.0,train,1,E-
71.5548992157,1,600,5,1,5,3,4,2,1,0,400,250.0,train,1,E-
120.577096939,0,600,4,1,5,3,4,2,1,0,400,250.0,train,0,E-
985.459089279,4,600,3,1,5,3,4,2,1,0,400,250.0,train,4,E-
248.625040054,3,600,0,1,5,3,4,2,1,0,400,250.0,train,3,E-
151.660919189,0,600,4,1,5,3,4,2,1,0,400,250.0,train,0,E-
24.5070457458,3,600,0,1,5,3,4,2,1,0,400,250.0,train,3,E-
185.152053833,5,600,1,1,5,3,4,2,1,0,400,250.0,train,5,E-
505.242109299,2,600,2,1,5,3,4,2,1,0,400,250.0,train,2,E-
41.130065918,2,600,2,1,5,3,4,2,1,0,400,250.0,train,2,E-
88.3729457855,2,600,2,1,5,3,4,2,1,0,400,250.0,train,2,E-
583.749055862,1,600,5,1,5,3,4,2,1,0,400,250.0,train,1,E-
392.488956451,4,600,3,1,5,3,4,2,1,0,400,250.0,train,4,E-
1127.7141571,5,600,1,1,5,3,4,2,1,0,400,250.0,train,5,E-
39.7589206696,5,600,1,1,5,3,4,2,1,0,400,250.0,train,5,E-
183.874130249,4,600,3,1,5,3,4,2,1,0,400,250.0,train,4,E-
231.838941574,0,600,4,1,5,3,4,2,1,0,400,250.0,train,0,E-
679.908037186,3,600,0,1,5,3,4,2,1,0,400,250.0,train,3,E-
615.888834,2,600,2,1,5,3,4,2,1,0,400,250.0,train,2,E-
183.876991272,1,600,5,1,5,3,4,2,1,0,400,250.0,train,1,E-
279.917955399,4,600,3,1,5,3,4,2,1,0,400,250.0,train,4,E-
439.884901047,5,600,1,1,5,3,4,2,1,0,400,250.0,train,5,E-
39.8890972137,4,600,3,1,5,3,4,2,1,0,400,250.0,train,4,E-
103.907823563,4,600,3,1,5,3,4,2,1,0,400,250.0,train,4,E-
136.657953262,5,600,1,1,5,3,4,2,1,0,400,250.0,train,5,E-
295.870065689,4,600,3,1,5,3,4,2,1,0,400,250.0,train,4,E-
759.677886963,2,600,2,1,5,3,4,2,1,0,400,250.0,train,2,E-
71.6698169708,2,600,2,1,5,3,4,2,1,0,400,250.0,train,2,E-
151.220083237,4,600,3,1,5,3,4,2,1,0,400,250.0,train,4,E-
104.649066925,3,600,0,1,5,3,4,2,1,0,400,250.0,train,3,E-
201.12490654,1,600,5,1,5,3,4,2,1,0,400,250.0,train,1,E-
247.56193161,5,600,1,1,5,3,4,2,1,0,400,250.0,train,5,E-
199.422121048,3,600,0,0,5,3,4,2,1,0,400,250.0,train,2,E-
343.786001205,5,600,1,1,5,3,4,2,1,0,400,250.0,train,5,E-
215.655088425,0,600,4,1,5,3,4,2,1,0,400,250.0,train,0,E-
438.612937927,2,600,2,1,5,3,4,2,1,0,400,250.0,train,2,E-
169.196128845,5,600,1,1,5,3,4,2,1,0,400,250.0,train,5,E-
39.568901062,4,600,3,1,5,3,4,2,1,0,400,250.0,train,4,E-
169.191122055,2,600,2,1,5,3,4,2,1,0,400,250.0,train,2,E-
503.690958023,3,600,0,1,5,3,4,2,1,0,400,250.0,train,3,E-
121.889829636,4,600,3,1,5,3,4,2,1,0,400,250.0,train,4,E-
121.256828308,0,600,4,1,5,3,4,2,1,0,400,250.0,train,0,E-
311.748027802,0,600,4,1,5,3,4,2,1,0,400,250.0,train,0,E-
103.684902191,1,600,5,0,5,3,4,2,1,0,400,250.0,train,3,E-
184.437990189,5,600,1,1,5,3,4,2,1,0,400,250.0,train,5,E-
425.117969513,1,600,5,1,5,3,4,2,1,0,400,250.0,train,1,E-
23.7638950348,4,600,3,1,5,3,4,2,1,0,400,250.0,train,4,E-
247.822999954,2,600,2,1,5,3,4,2,1,0,400,250.0,train,2,E-
119.812965393,4,600,3,1,5,3,4,2,1,0,400,250.0,train,4,E-
599.807024002,2,600,2,1,5,3,4,2,1,0,400,250.0,train,2,E-
297.072887421,4,600,3,0,5,3,4,2,1,0,400,250.0,train,3,E-
311.86914444,0,600,4,1,5,3,4,2,1,0,400,250.0,train,0,E-
519.876003265,1,600,5,1,5,3,4,2,1,0,400,250.0,train,1,E-
135.915994644,2,600,2,1,5,3,4,2,1,0,400,250.0,train,2,E-
135.735988617,0,600,4,1,5,3,4,2,1,0,400,250.0,train,0,E-
185.177087784,5,600,1,1,5,3,4,2,1,0,400,250.0,train,5,E-
583.868026733,4,600,3,1,5,3,4,2,1,0,400,250.0,train,4,E-
344.652891159,0,600,4,1,5,3,4,2,1,0,400,250.0,train,0,E-
184.022903442,5,600,1,1,5,3,4,2,1,0,400,250.0,train,5,E-
8.58402252197,4,600,3,1,5,3,4,2,1,0,400,250.0,train,4,E-
167.666912079,5,600,1,1,5,3,4,2,1,0,400,250.0,train,5,E-
103.662014008,4,600,3,1,5,3,4,2,1,0,400,250.0,train,4,E-
855.674982071,3,600,0,1,5,3,4,2,1,0,400,250.0,train,3,E-
136.604070663,5,600,1,1,5,3,4,2,1,0,400,250.0,train,5,E-
151.694059372,4,600,3,1,5,3,4,2,1,0,400,250.0,train,4,E-
182.44099617,5,600,1,1,5,3,4,2,1,0,400,250.0,train,5,E-
1239.62903023,5,1000,0,1,4,5,2,0,1,3,0,250.0,test,5,E-
903.888940811,0,1000,2,1,4,5,2,0,1,3,0,250.0,test,0,E-
918.09296608,2,1000,3,0,4,5,2,0,1,3,0,250.0,test,4,E-
617.258071899,3,1000,4,1,4,5,2,0,1,3,0,250.0,test,3,E-
566.148996353,0,1000,2,1,4,5,2,0,1,3,0,250.0,test,0,E-
710.124969482,2,1000,3,0,4,5,2,0,1,3,0,250.0,test,3,E-
1127.7551651,1,1000,5,1,4,5,2,0,1,3,0,250.0,test,1,E-
535.434007645,2,1000,3,0,4,5,2,0,1,3,0,250.0,test,1,E-
631.773948669,4,1000,1,1,4,5,2,0,1,3,0,250.0,test,4,E-
1446.9909668,3,1000,4,1,4,5,2,0,1,3,0,250.0,test,3,E-
662.007808685,3,1000,4,1,4,5,2,0,1,3,0,250.0,test,3,E-
599.982023239,0,1000,2,1,4,5,2,0,1,3,0,250.0,test,0,E-
503.943920135,5,1000,0,1,4,5,2,0,1,3,0,250.0,test,5,E-
455.862998962,4,1000,1,1,4,5,2,0,1,3,0,250.0,test,4,E-
391.978025436,3,1000,4,1,4,5,2,0,1,3,0,250.0,test,3,E-
760.627985001,2,1000,3,1,4,5,2,0,1,3,0,250.0,test,2,E-
712.107896805,2,1000,3,1,4,5,2,0,1,3,0,250.0,test,2,E-
503.756999969,1,1000,5,1,4,5,2,0,1,3,0,250.0,test,1,E-
583.835124969,0,1000,2,1,4,5,2,0,1,3,0,250.0,test,0,E-
1049.07989502,3,1000,4,1,4,5,2,0,1,3,0,250.0,test,3,E-
422.165155411,4,1000,1,1,4,5,2,0,1,3,0,250.0,test,4,E-
598.150968552,2,1000,3,1,4,5,2,0,1,3,0,250.0,test,2,E-
455.646038055,0,1000,2,1,4,5,2,0,1,3,0,250.0,test,0,E-
567.703008652,2,1000,3,1,4,5,2,0,1,3,0,250.0,test,2,E-
534.167051315,4,1000,1,0,4,5,2,0,1,3,0,250.0,test,3,E-
838.521957397,3,1000,4,1,4,5,2,0,1,3,0,250.0,test,3,E-
518.066167831,0,1000,2,1,4,5,2,0,1,3,0,250.0,test,0,E-
585.166931152,0,1000,2,1,4,5,2,0,1,3,0,250.0,test,0,E-
470.031023026,1,1000,5,1,4,5,2,0,1,3,0,250.0,test,1,E-
535.161972046,2,1000,3,1,4,5,2,0,1,3,0,250.0,test,2,E-
549.859046936,5,1000,0,1,4,5,2,0,1,3,0,250.0,test,5,E-
663.172006607,2,1000,3,1,4,5,2,0,1,3,0,250.0,test,2,E-
598.103046417,4,1000,1,1,4,5,2,0,1,3,0,250.0,test,4,E-
534.211158752,3,1000,4,1,4,5,2,0,1,3,0,250.0,test,3,E-
777.37402916,2,1000,3,1,4,5,2,0,1,3,0,250.0,test,2,E-
631.713151932,3,1000,4,1,4,5,2,0,1,3,0,250.0,test,3,E-
582.597017288,5,1000,0,1,4,5,2,0,1,3,0,250.0,test,5,E-
551.577091217,5,1000,0,1,4,5,2,0,1,3,0,250.0,test,5,E-
631.893157959,4,1000,1,1,4,5,2,0,1,3,0,250.0,test,4,E-
567.810058594,5,1000,0,1,4,5,2,0,1,3,0,250.0,test,5,E-
791.911840439,0,1000,2,1,4,5,2,0,1,3,0,250.0,test,0,E-
567.589044571,1,1000,5,1,4,5,2,0,1,3,0,250.0,test,1,E-
534.601926804,3,1000,4,1,4,5,2,0,1,3,0,250.0,test,3,E-
455.846071243,5,1000,0,1,4,5,2,0,1,3,0,250.0,test,5,E-
743.714094162,2,1000,3,1,4,5,2,0,1,3,0,250.0,test,2,E-
566.144943237,3,1000,4,1,4,5,2,0,1,3,0,250.0,test,3,E-
503.798961639,0,1000,2,1,4,5,2,0,1,3,0,250.0,test,0,E-
325.982093811,1,1000,5,1,4,5,2,0,1,3,0,250.0,test,1,E-
550.12512207,5,1000,0,1,4,5,2,0,1,3,0,250.0,test,5,E-
520.6990242,1,1000,5,1,4,5,2,0,1,3,0,250.0,test,1,E-
614.259004593,3,1000,4,1,4,5,2,0,1,3,0,250.0,test,3,E-
488.5430336,5,1000,0,1,4,5,2,0,1,3,0,250.0,test,5,E-
521.161079407,0,1000,2,1,4,5,2,0,1,3,0,250.0,test,0,E-
616.631031036,2,1000,3,1,4,5,2,0,1,3,0,250.0,test,2,E-
329.234838486,1,1000,5,1,4,5,2,0,1,3,0,250.0,test,1,E-
472.874164581,1,1000,5,1,4,5,2,0,1,3,0,250.0,test,1,E-
537.405967712,3,1000,4,1,4,5,2,0,1,3,0,250.0,test,3,E-
567.849874496,2,1000,3,1,4,5,2,0,1,3,0,250.0,test,2,E-
329.092025757,4,1000,1,1,4,5,2,0,1,3,0,250.0,test,4,E-
598.912000656,2,1000,3,1,4,5,2,0,1,3,0,250.0,test,2,E-
502.0840168,1,1000,5,1,4,5,2,0,1,3,0,250.0,test,1,E-
632.625102997,2,1000,3,1,4,5,2,0,1,3,0,250.0,test,2,E-
534.057855606,2,1000,3,1,4,5,2,0,1,3,0,250.0,test,2,E-
518.975973129,5,1000,0,1,4,5,2,0,1,3,0,250.0,test,5,E-
726.068019867,1,1000,5,1,4,5,2,0,1,3,0,250.0,test,1,E-
550.149917603,0,1000,2,1,4,5,2,0,1,3,0,250.0,test,0,E-
423.903942108,0,1000,2,1,4,5,2,0,1,3,0,250.0,test,0,E-
502.894163132,5,1000,0,1,4,5,2,0,1,3,0,250.0,test,5,E-
617.36702919,2,1000,3,0,4,5,2,0,1,3,0,250.0,test,3,E-
583.504915237,1,1000,5,1,4,5,2,0,1,3,0,250.0,test,1,E-
647.849082947,3,1000,4,1,4,5,2,0,1,3,0,250.0,test,3,E-
903.864145279,4,1000,1,1,4,5,2,0,1,3,0,250.0,test,4,E-
471.789121628,1,1000,5,1,4,5,2,0,1,3,0,250.0,test,1,E-
487.902164459,0,1000,2,1,4,5,2,0,1,3,0,250.0,test,0,E-
599.952936172,2,1000,3,1,4,5,2,0,1,3,0,250.0,test,2,E-
487.895011902,3,1000,4,1,4,5,2,0,1,3,0,250.0,test,3,E-
487.803936005,4,1000,1,1,4,5,2,0,1,3,0,250.0,test,4,E-
599.610090256,0,1000,2,1,4,5,2,0,1,3,0,250.0,test,0,E-
423.788070679,1,1000,5,1,4,5,2,0,1,3,0,250.0,test,1,E-
518.692016602,3,1000,4,1,4,5,2,0,1,3,0,250.0,test,3,E-
471.998929977,1,1000,5,1,4,5,2,0,1,3,0,250.0,test,1,E-
487.579107285,4,1000,1,1,4,5,2,0,1,3,0,250.0,test,4,E-
453.003883362,4,1000,1,1,4,5,2,0,1,3,0,250.0,test,4,E-
598.913908005,5,1000,0,1,4,5,2,0,1,3,0,250.0,test,5,E-
631.920099258,3,1000,4,1,4,5,2,0,1,3,0,250.0,test,3,E-
758.185863495,2,1000,3,1,4,5,2,0,1,3,0,250.0,test,2,E-
516.803979874,3,1000,4,1,4,5,2,0,1,3,0,250.0,test,3,E-
550.15707016,5,1000,0,1,4,5,2,0,1,3,0,250.0,test,5,E-
406.179904938,5,1000,0,1,4,5,2,0,1,3,0,250.0,test,5,E-
646.100997925,3,1000,4,1,4,5,2,0,1,3,0,250.0,test,3,E-
533.852815628,0,1000,2,1,4,5,2,0,1,3,0,250.0,test,0,E-
580.383062363,4,1000,1,1,4,5,2,0,1,3,0,250.0,test,4,E-
614.061117172,1,1000,5,1,4,5,2,0,1,3,0,250.0,test,1,E-
503.167867661,1,1000,5,1,4,5,2,0,1,3,0,250.0,test,1,E-
598.019838333,2,1000,3,1,4,5,2,0,1,3,0,250.0,test,2,E-
565.652132034,0,1000,2,1,4,5,2,0,1,3,0,250.0,test,0,E-
598.002910614,5,1000,0,1,4,5,2,0,1,3,0,250.0,test,5,E-
518.165826797,4,1000,1,1,4,5,2,0,1,3,0,250.0,test,4,E-
726.032018661,2,1000,3,1,4,5,2,0,1,3,0,250.0,test,2,E-
1206.1290741,5,1000,0,1,4,5,2,0,1,3,0,250.0,test,5,E-
694.003820419,1,1000,5,1,4,5,2,0,1,3,0,250.0,test,1,E-
630.017995834,1,1000,5,1,4,5,2,0,1,3,0,250.0,test,1,E-
553.251981735,4,1000,1,1,4,5,2,0,1,3,0,250.0,test,4,E-
473.253965378,0,1000,2,1,4,5,2,0,1,3,0,250.0,test,0,E-
454.144954681,0,1000,2,1,4,5,2,0,1,3,0,250.0,test,0,E-
311.66100502,0,1000,2,1,4,5,2,0,1,3,0,250.0,test,0,E-
487.131118774,4,1000,1,1,4,5,2,0,1,3,0,250.0,test,4,E-
407.846927643,4,1000,1,1,4,5,2,0,1,3,0,250.0,test,4,E-
535.521030426,2,1000,3,1,4,5,2,0,1,3,0,250.0,test,2,E-
695.550918579,0,1000,2,1,4,5,2,0,1,3,0,250.0,test,0,E-
359.702825546,1,1000,5,1,4,5,2,0,1,3,0,250.0,test,1,E-
359.847068787,2,1000,3,1,4,5,2,0,1,3,0,250.0,test,2,E-
550.926923752,5,1000,0,1,4,5,2,0,1,3,0,250.0,test,5,E-
327.795028687,3,1000,4,1,4,5,2,0,1,3,0,250.0,test,3,E-
520.568847656,2,1000,3,0,4,5,2,0,1,3,0,250.0,test,1,E-
728.46198082,1,1000,5,1,4,5,2,0,1,3,0,250.0,test,1,E-
839.929819107,3,1000,4,1,4,5,2,0,1,3,0,250.0,test,3,E-
647.922039032,4,1000,1,1,4,5,2,0,1,3,0,250.0,test,4,E-
551.875829697,1,1000,5,1,4,5,2,0,1,3,0,250.0,test,1,E-
551.851034164,4,1000,1,1,4,5,2,0,1,3,0,250.0,test,4,E-
597.990989685,3,1000,4,1,4,5,2,0,1,3,0,250.0,test,3,E-
486.107826233,1,1000,5,1,4,5,2,0,1,3,0,250.0,test,1,E-
680.641889572,5,1000,0,1,4,5,2,0,1,3,0,250.0,test,5,E-
1159.81197357,2,1000,3,1,4,5,2,0,1,3,0,250.0,test,2,E-
552.518844604,4,1000,1,1,4,5,2,0,1,3,0,250.0,test,4,E-
647.500038147,3,1000,4,1,4,5,2,0,1,3,0,250.0,test,3,E-
584.552049637,1,1000,5,1,4,5,2,0,1,3,0,250.0,test,1,E-
537.249803543,5,1000,0,1,4,5,2,0,1,3,0,250.0,test,5,E-
630.816936493,4,1000,1,1,4,5,2,0,1,3,0,250.0,test,4,E-
566.025972366,1,1000,5,0,4,5,2,0,1,3,0,250.0,test,3,E-
838.063001633,4,1000,1,1,4,5,2,0,1,3,0,250.0,test,4,E-
472.589969635,4,1000,1,1,4,5,2,0,1,3,0,250.0,test,4,E-
582.034826279,1,1000,5,1,4,5,2,0,1,3,0,250.0,test,1,E-
470.047950745,5,1000,0,1,4,5,2,0,1,3,0,250.0,test,5,E-
470.08895874,5,1000,0,1,4,5,2,0,1,3,0,250.0,test,5,E-
534.873008728,1,1000,5,1,4,5,2,0,1,3,0,250.0,test,1,E-
470.021009445,5,1000,0,1,4,5,2,0,1,3,0,250.0,test,5,E-
534.107208252,4,1000,1,1,4,5,2,0,1,3,0,250.0,test,4,E-
553.238868713,3,1000,4,1,4,5,2,0,1,3,0,250.0,test,3,E-
775.928974152,4,1000,1,1,4,5,2,0,1,3,0,250.0,test,4,E-
487.739086151,5,1000,0,1,4,5,2,0,1,3,0,250.0,test,5,E-
486.164093018,3,1000,4,0,4,5,2,0,1,3,0,250.0,test,4,E-
503.847837448,5,1000,0,1,4,5,2,0,1,3,0,250.0,test,5,E-
567.669868469,3,1000,4,1,4,5,2,0,1,3,0,250.0,test,3,E-
519.512176514,1,1000,5,1,4,5,2,0,1,3,0,250.0,test,1,E-
1029.75916862,3,1000,4,1,4,5,2,0,1,3,0,250.0,test,3,E-
408.561944962,5,1000,0,1,4,5,2,0,1,3,0,250.0,test,5,E-
455.858945847,3,1000,4,1,4,5,2,0,1,3,0,250.0,test,3,E-
504.642009735,4,1000,1,1,4,5,2,0,1,3,0,250.0,test,4,E-
501.95980072,4,1000,1,1,4,5,2,0,1,3,0,250.0,test,4,E-
648.699045181,2,1000,3,0,4,5,2,0,1,3,0,250.0,test,1,E-
1078.14097404,1,1000,5,1,4,5,2,0,1,3,0,250.0,test,1,E-
504.570007324,2,1000,3,1,4,5,2,0,1,3,0,250.0,test,2,E-
583.750009537,3,1000,4,1,4,5,2,0,1,3,0,250.0,test,3,E-
438.07220459,4,1000,1,1,4,5,2,0,1,3,0,250.0,test,4,E-
582.008123398,1,1000,5,1,4,5,2,0,1,3,0,250.0,test,1,E-
534.090995789,1,1000,5,1,4,5,2,0,1,3,0,250.0,test,1,E-
566.112041473,5,1000,0,1,4,5,2,0,1,3,0,250.0,test,5,E-
646.01111412,4,1000,1,1,4,5,2,0,1,3,0,250.0,test,4,E-
582.006931305,4,1000,1,1,4,5,2,0,1,3,0,250.0,test,4,E-
534.152984619,0,1000,2,0,4,5,2,0,1,3,0,250.0,test,1,E-
1512.74800301,3,1000,4,1,4,5,2,0,1,3,0,250.0,test,3,E-
646.028995514,4,1000,1,1,4,5,2,0,1,3,0,250.0,test,4,E-
534.165859222,5,1000,0,1,4,5,2,0,1,3,0,250.0,test,5,E-
758.105039597,2,1000,3,1,4,5,2,0,1,3,0,250.0,test,2,E-
871.572971344,5,1000,0,1,4,5,2,0,1,3,0,250.0,test,5,E-
647.505998611,2,1000,3,1,4,5,2,0,1,3,0,250.0,test,2,E-
423.940181732,0,1000,2,1,4,5,2,0,1,3,0,250.0,test,0,E-
343.857049942,4,1000,1,0,4,5,2,0,1,3,0,250.0,test,3,E-
615.273952484,4,1000,1,1,4,5,2,0,1,3,0,250.0,test,4,E-
567.816019058,0,1000,2,1,4,5,2,0,1,3,0,250.0,test,0,E-
421.994924545,0,1000,2,1,4,5,2,0,1,3,0,250.0,test,0,E-
823.700904846,3,1000,4,1,4,5,2,0,1,3,0,250.0,test,3,E-
1528.40709686,2,1000,3,1,4,5,2,0,1,3,0,250.0,test,2,E-
567.954063416,5,1000,0,1,4,5,2,0,1,3,0,250.0,test,5,E-
615.836858749,2,1000,3,1,4,5,2,0,1,3,0,250.0,test,2,E-
615.658998489,4,1000,1,1,4,5,2,0,1,3,0,250.0,test,4,E-
631.927967072,1,1000,5,1,4,5,2,0,1,3,0,250.0,test,1,E-
502.248048782,0,1000,2,1,4,5,2,0,1,3,0,250.0,test,0,E-
1076.74002647,0,1000,2,1,4,5,2,0,1,3,0,250.0,test,0,E-
1048.62189293,3,1000,4,1,4,5,2,0,1,3,0,250.0,test,3,E-
536.275148392,4,1000,1,1,4,5,2,0,1,3,0,250.0,test,4,E-
567.667007446,1,1000,5,1,4,5,2,0,1,3,0,250.0,test,1,E-
391.678094864,2,1000,3,0,4,5,2,0,1,3,0,250.0,test,3,E-
1158.04004669,3,1000,4,1,4,5,2,0,1,3,0,250.0,test,3,E-
389.954090118,4,1000,1,1,4,5,2,0,1,3,0,250.0,test,4,E-
886.150121689,3,1000,4,1,4,5,2,0,1,3,0,250.0,test,3,E-
485.956907272,1,1000,5,1,4,5,2,0,1,3,0,250.0,test,1,E-
697.077035904,3,1000,4,1,4,5,2,0,1,3,0,250.0,test,3,E-
601.150989532,4,1000,1,1,4,5,2,0,1,3,0,250.0,test,4,E-
631.046056747,5,1000,0,1,4,5,2,0,1,3,0,250.0,test,5,E-
806.061983109,2,1000,3,1,4,5,2,0,1,3,0,250.0,test,2,E-
1462.91804314,5,1000,0,1,4,5,2,0,1,3,0,250.0,test,5,E-
1606.09102249,5,1000,0,1,4,5,2,0,1,3,0,250.0,test,5,E-
566.109895706,5,1000,0,1,4,5,2,0,1,3,0,250.0,test,5,E-
518.124818802,4,1000,1,1,4,5,2,0,1,3,0,250.0,test,4,E-
694.114923477,1,1000,5,1,4,5,2,0,1,3,0,250.0,test,1,E-
566.954135895,4,1000,1,1,4,5,2,0,1,3,0,250.0,test,4,E-
519.45400238,3,1000,4,1,4,5,2,0,1,3,0,250.0,test,3,E-
1175.54807663,0,1000,2,1,4,5,2,0,1,3,0,250.0,test,0,E-
647.696971893,4,1000,1,1,4,5,2,0,1,3,0,250.0,test,4,E-
678.062915802,2,1000,3,1,4,5,2,0,1,3,0,250.0,test,2,E-
551.56493187,0,1000,2,1,4,5,2,0,1,3,0,250.0,test,0,E-
568.67814064,0,1000,2,1,4,5,2,0,1,3,0,250.0,test,0,E-
631.958007812,1,1000,5,1,4,5,2,0,1,3,0,250.0,test,1,E-
968.080043793,2,1000,3,1,4,5,2,0,1,3,0,250.0,test,2,E-
567.648887634,0,1000,2,1,4,5,2,0,1,3,0,250.0,test,0,E-
552.016019821,0,1000,2,1,4,5,2,0,1,3,0,250.0,test,0,E-
551.938056946,2,1000,3,1,4,5,2,0,1,3,0,250.0,test,2,E-
404.706954956,1,1000,5,1,4,5,2,0,1,3,0,250.0,test,1,E-
534.069061279,4,1000,1,1,4,5,2,0,1,3,0,250.0,test,4,E-
424.56817627,3,1000,4,1,4,5,2,0,1,3,0,250.0,test,3,E-
518.085956573,4,1000,1,1,4,5,2,0,1,3,0,250.0,test,4,E-
504.285097122,1,1000,5,0,4,5,2,0,1,3,0,250.0,test,3,E-
902.158021927,1,1000,5,1,4,5,2,0,1,3,0,250.0,test,1,E-
502.951145172,0,1000,2,1,4,5,2,0,1,3,0,250.0,test,0,E-
905.236959457,2,1000,3,1,4,5,2,0,1,3,0,250.0,test,2,E-
600.950956345,1,1000,5,1,4,5,2,0,1,3,0,250.0,test,1,E-
982.023000717,2,1000,3,1,4,5,2,0,1,3,0,250.0,test,2,E-
565.874814987,1,1000,5,1,4,5,2,0,1,3,0,250.0,test,1,E-
630.034923553,5,1000,0,1,4,5,2,0,1,3,0,250.0,test,5,E-
614.089012146,1,1000,5,1,4,5,2,0,1,3,0,250.0,test,1,E-
533.967018127,0,1000,2,1,4,5,2,0,1,3,0,250.0,test,0,E-
646.799087524,2,1000,3,1,4,5,2,0,1,3,0,250.0,test,2,E-
615.622997284,2,1000,3,1,4,5,2,0,1,3,0,250.0,test,2,E-
550.040960312,0,1000,2,1,4,5,2,0,1,3,0,250.0,test,0,E-
505.275964737,5,1000,0,1,4,5,2,0,1,3,0,250.0,test,5,E-
582.113027573,4,1000,1,1,4,5,2,0,1,3,0,250.0,test,4,E-
823.921918869,1,1000,5,0,4,5,2,0,1,3,0,250.0,test,3,E-
775.450944901,5,1000,0,1,4,5,2,0,1,3,0,250.0,test,5,E-
695.72687149,0,1000,2,1,4,5,2,0,1,3,0,250.0,test,0,E-
374.85408783,1,1000,5,1,4,5,2,0,1,3,0,250.0,test,1,E-
534.007072449,0,1000,2,1,4,5,2,0,1,3,0,250.0,test,0,E-
312.572002411,1,1000,5,1,4,5,2,0,1,3,0,250.0,test,1,E-
551.690816879,1,1000,5,1,4,5,2,0,1,3,0,250.0,test,1,E-
342.015981674,1,1000,5,1,4,5,2,0,1,3,0,250.0,test,1,E-
520.672082901,4,1000,1,1,4,5,2,0,1,3,0,250.0,test,4,E-
519.628047943,0,1000,2,1,4,5,2,0,1,3,0,250.0,test,0,E-
663.951873779,3,1000,4,1,4,5,2,0,1,3,0,250.0,test,3,E-
326.053142548,5,1000,0,1,4,5,2,0,1,3,0,250.0,test,5,E-
551.70583725,3,1000,4,1,4,5,2,0,1,3,0,250.0,test,3,E-
582.245111465,1,1000,5,1,4,5,2,0,1,3,0,250.0,test,1,E-
1223.8240242,2,1000,3,1,4,5,2,0,1,3,0,250.0,test,2,E-
758.134841919,4,1000,1,1,4,5,2,0,1,3,0,250.0,test,4,E-
582.082986832,0,1000,2,1,4,5,2,0,1,3,0,250.0,test,0,E-
390.152931213,4,1000,1,1,4,5,2,0,1,3,0,250.0,test,4,E-
551.745176315,5,1000,0,1,4,5,2,0,1,3,0,250.0,test,5,E-
776.834011078,2,1000,3,1,4,5,2,0,1,3,0,250.0,test,2,E-
503.435850143,4,1000,1,1,4,5,2,0,1,3,0,250.0,test,4,E-
744.611978531,2,1000,3,1,4,5,2,0,1,3,0,250.0,test,2,E-
