RT,correct_response,ms-prestimblank,curstim,correct,SRmap_1,SRmap_0,SRmap_3,SRmap_2,SRmap_5,SRmap_4,ms-precue,ntrials,type,response,condition
7866.2340641,0,1000,0,1,2,0,5,4,3,1,0,250.0,train,0,M
1338.31596375,2,1000,1,1,2,0,5,4,3,1,0,250.0,train,2,M
746.529817581,0,1000,0,1,2,0,5,4,3,1,0,250.0,train,0,M
298.508882523,2,1000,1,0,2,0,5,4,3,1,0,250.0,train,0,M
778.298854828,1,1000,4,1,2,0,5,4,3,1,0,250.0,train,1,M
1371.88386917,5,1000,3,1,2,0,5,4,3,1,0,250.0,train,5,M
1035.8080864,4,1000,2,1,2,0,5,4,3,1,0,250.0,train,4,M
730.386972427,2,1000,1,1,2,0,5,4,3,1,0,250.0,train,2,M
666.427135468,2,1000,1,1,2,0,5,4,3,1,0,250.0,train,2,M
474.314928055,2,1000,1,1,2,0,5,4,3,1,0,250.0,train,2,M
602.226018906,3,1000,5,1,2,0,5,4,3,1,0,250.0,train,3,M
570.321083069,2,1000,1,1,2,0,5,4,3,1,0,250.0,train,2,M
378.377199173,2,1000,1,1,2,0,5,4,3,1,0,250.0,train,2,M
699.78094101,0,1000,0,1,2,0,5,4,3,1,0,250.0,train,0,M
825.897932053,5,1000,3,1,2,0,5,4,3,1,0,250.0,train,5,M
1035.76397896,3,1000,5,1,2,0,5,4,3,1,0,250.0,train,3,M
714.341163635,1,1000,4,1,2,0,5,4,3,1,0,250.0,train,1,M
1547.37591743,4,1000,2,1,2,0,5,4,3,1,0,250.0,train,4,M
746.480941772,3,1000,5,1,2,0,5,4,3,1,0,250.0,train,3,M
1402.51111984,4,1000,2,1,2,0,5,4,3,1,0,250.0,train,4,M
954.442977905,5,1000,3,1,2,0,5,4,3,1,0,250.0,train,5,M
650.461196899,5,1000,3,1,2,0,5,4,3,1,0,250.0,train,5,M
699.818134308,1,1000,4,1,2,0,5,4,3,1,0,250.0,train,1,M
11.9349956512,2,1000,1,0,2,0,5,4,3,1,0,250.0,train,1,M
1116.00899696,2,1000,1,1,2,0,5,4,3,1,0,250.0,train,2,M
1082.13305473,3,1000,5,1,2,0,5,4,3,1,0,250.0,train,3,M
1483.96110535,4,1000,2,1,2,0,5,4,3,1,0,250.0,train,4,M
682.395219803,1,1000,4,1,2,0,5,4,3,1,0,250.0,train,1,M
506.352186203,2,1000,1,1,2,0,5,4,3,1,0,250.0,train,2,M
1034.53493118,4,1000,2,1,2,0,5,4,3,1,0,250.0,train,4,M
633.983135223,2,1000,1,1,2,0,5,4,3,1,0,250.0,train,2,M
778.524875641,4,1000,2,1,2,0,5,4,3,1,0,250.0,train,4,M
715.945005417,2,1000,1,1,2,0,5,4,3,1,0,250.0,train,2,M
937.993049622,5,1000,3,1,2,0,5,4,3,1,0,250.0,train,5,M
587.935209274,0,1000,0,1,2,0,5,4,3,1,0,250.0,train,0,M
458.545923233,1,1000,4,1,2,0,5,4,3,1,0,250.0,train,1,M
458.495140076,1,1000,4,1,2,0,5,4,3,1,0,250.0,train,1,M
394.539117813,0,1000,0,1,2,0,5,4,3,1,0,250.0,train,0,M
538.496017456,2,1000,1,1,2,0,5,4,3,1,0,250.0,train,2,M
682.543992996,2,1000,1,1,2,0,5,4,3,1,0,250.0,train,2,M
475.888967514,2,1000,1,1,2,0,5,4,3,1,0,250.0,train,2,M
570.550918579,1,1000,4,1,2,0,5,4,3,1,0,250.0,train,1,M
922.468900681,3,1000,5,1,2,0,5,4,3,1,0,250.0,train,3,M
490.384101868,3,1000,5,1,2,0,5,4,3,1,0,250.0,train,3,M
394.414901733,3,1000,5,1,2,0,5,4,3,1,0,250.0,train,3,M
538.504123688,1,1000,4,0,2,0,5,4,3,1,0,250.0,train,2,M
891.89696312,1,1000,4,1,2,0,5,4,3,1,0,250.0,train,1,M
571.794986725,5,1000,3,1,2,0,5,4,3,1,0,250.0,train,5,M
491.755008698,5,1000,3,1,2,0,5,4,3,1,0,250.0,train,5,M
634.489059448,1,1000,4,1,2,0,5,4,3,1,0,250.0,train,1,M
554.256916046,5,1000,3,1,2,0,5,4,3,1,0,250.0,train,5,M
490.464925766,5,1000,3,1,2,0,5,4,3,1,0,250.0,train,5,M
1162.53900528,3,1000,5,1,2,0,5,4,3,1,0,250.0,train,3,M
603.958845139,2,1000,1,1,2,0,5,4,3,1,0,250.0,train,2,M
730.443000793,4,1000,2,1,2,0,5,4,3,1,0,250.0,train,4,M
603.868961334,4,1000,2,1,2,0,5,4,3,1,0,250.0,train,4,M
475.982904434,5,1000,3,1,2,0,5,4,3,1,0,250.0,train,5,M
715.896844864,2,1000,1,1,2,0,5,4,3,1,0,250.0,train,2,M
602.550983429,3,1000,5,1,2,0,5,4,3,1,0,250.0,train,3,M
922.55282402,4,1000,2,1,2,0,5,4,3,1,0,250.0,train,4,M
634.613037109,1,1000,4,1,2,0,5,4,3,1,0,250.0,train,1,M
457.96585083,1,1000,4,1,2,0,5,4,3,1,0,250.0,train,1,M
458.561897278,1,1000,4,1,2,0,5,4,3,1,0,250.0,train,1,M
906.667947769,4,1000,2,1,2,0,5,4,3,1,0,250.0,train,4,M
570.352077484,5,1000,3,1,2,0,5,4,3,1,0,250.0,train,5,M
506.440162659,1,1000,4,1,2,0,5,4,3,1,0,250.0,train,1,M
698.384046555,4,1000,2,1,2,0,5,4,3,1,0,250.0,train,4,M
618.519067764,2,1000,1,1,2,0,5,4,3,1,0,250.0,train,2,M
730.430841446,4,1000,2,1,2,0,5,4,3,1,0,250.0,train,4,M
409.885883331,4,1000,2,1,2,0,5,4,3,1,0,250.0,train,4,M
458.43911171,5,1000,3,1,2,0,5,4,3,1,0,250.0,train,5,M
555.626869202,0,1000,0,1,2,0,5,4,3,1,0,250.0,train,0,M
763.735055923,3,1000,5,1,2,0,5,4,3,1,0,250.0,train,3,M
442.425966263,2,1000,1,1,2,0,5,4,3,1,0,250.0,train,2,M
554.52299118,5,1000,3,1,2,0,5,4,3,1,0,250.0,train,5,M
459.83505249,5,1000,3,1,2,0,5,4,3,1,0,250.0,train,5,M
1099.87592697,3,1000,5,1,2,0,5,4,3,1,0,250.0,train,3,M
587.909221649,2,1000,1,1,2,0,5,4,3,1,0,250.0,train,2,M
490.469932556,1,1000,4,1,2,0,5,4,3,1,0,250.0,train,1,M
763.911962509,4,1000,2,1,2,0,5,4,3,1,0,250.0,train,4,M
426.523923874,4,1000,2,1,2,0,5,4,3,1,0,250.0,train,4,M
570.442199707,2,1000,1,1,2,0,5,4,3,1,0,250.0,train,2,M
745.507955551,3,1000,5,0,2,0,5,4,3,1,0,250.0,train,4,M
570.545911789,2,1000,1,1,2,0,5,4,3,1,0,250.0,train,2,M
698.556184769,4,1000,2,1,2,0,5,4,3,1,0,250.0,train,4,M
666.512012482,5,1000,3,1,2,0,5,4,3,1,0,250.0,train,5,M
682.453155518,1,1000,4,1,2,0,5,4,3,1,0,250.0,train,1,M
906.288862228,5,1000,3,1,2,0,5,4,3,1,0,250.0,train,5,M
650.494813919,1,1000,4,1,2,0,5,4,3,1,0,250.0,train,1,M
10.509967804,5,1000,3,0,2,0,5,4,3,1,0,250.0,train,2,M
474.291086197,0,1000,0,1,2,0,5,4,3,1,0,250.0,train,0,M
426.363945007,5,1000,3,1,2,0,5,4,3,1,0,250.0,train,5,M
794.378995895,3,1000,5,1,2,0,5,4,3,1,0,250.0,train,3,M
890.377044678,4,1000,2,1,2,0,5,4,3,1,0,250.0,train,4,M
891.983985901,4,1000,2,1,2,0,5,4,3,1,0,250.0,train,4,M
1066.05100632,3,1000,5,1,2,0,5,4,3,1,0,250.0,train,3,M
571.830034256,5,1000,3,1,2,0,5,4,3,1,0,250.0,train,5,M
954.489946365,3,1000,5,1,2,0,5,4,3,1,0,250.0,train,3,M
459.937095642,3,1000,5,1,2,0,5,4,3,1,0,250.0,train,3,M
379.805088043,4,1000,2,1,2,0,5,4,3,1,0,250.0,train,4,M
442.587137222,5,1000,3,1,2,0,5,4,3,1,0,250.0,train,5,M
346.558094025,4,1000,2,1,2,0,5,4,3,1,0,250.0,train,4,M
522.526025772,1,1000,4,1,2,0,5,4,3,1,0,250.0,train,1,M
506.531953812,5,1000,3,1,2,0,5,4,3,1,0,250.0,train,5,M
986.567020416,3,1000,5,1,2,0,5,4,3,1,0,250.0,train,3,M
570.545911789,2,1000,1,1,2,0,5,4,3,1,0,250.0,train,2,M
426.553964615,0,1000,0,1,2,0,5,4,3,1,0,250.0,train,0,M
426.589012146,0,1000,0,1,2,0,5,4,3,1,0,250.0,train,0,M
570.621967316,2,1000,1,1,2,0,5,4,3,1,0,250.0,train,2,M
458.495855331,0,1000,0,1,2,0,5,4,3,1,0,250.0,train,0,M
713.860034943,3,1000,5,1,2,0,5,4,3,1,0,250.0,train,3,M
491.97101593,2,1000,1,1,2,0,5,4,3,1,0,250.0,train,2,M
362.447023392,0,1000,0,1,2,0,5,4,3,1,0,250.0,train,0,M
585.833072662,3,1000,5,1,2,0,5,4,3,1,0,250.0,train,3,M
603.953123093,4,1000,2,1,2,0,5,4,3,1,0,250.0,train,4,M
459.963083267,5,1000,3,1,2,0,5,4,3,1,0,250.0,train,5,M
697.917938232,3,1000,5,1,2,0,5,4,3,1,0,250.0,train,3,M
618.489980698,4,1000,2,1,2,0,5,4,3,1,0,250.0,train,4,M
394.482851028,5,1000,3,1,2,0,5,4,3,1,0,250.0,train,5,M
1146.59309387,3,1000,5,1,2,0,5,4,3,1,0,250.0,train,3,M
890.08307457,4,1000,2,1,2,0,5,4,3,1,0,250.0,train,4,M
362.493991852,0,1000,0,1,2,0,5,4,3,1,0,250.0,train,0,M
474.475860596,0,1000,0,1,2,0,5,4,3,1,0,250.0,train,0,M
347.886800766,1,1000,4,1,2,0,5,4,3,1,0,250.0,train,1,M
442.545890808,1,1000,4,1,2,0,5,4,3,1,0,250.0,train,1,M
394.427061081,0,1000,0,1,2,0,5,4,3,1,0,250.0,train,0,M
442.538022995,2,1000,1,1,2,0,5,4,3,1,0,250.0,train,2,M
506.446123123,3,1000,5,1,2,0,5,4,3,1,0,250.0,train,3,M
426.48100853,3,1000,5,1,2,0,5,4,3,1,0,250.0,train,3,M
378.428936005,3,1000,5,1,2,0,5,4,3,1,0,250.0,train,3,M
505.98192215,5,1000,3,1,2,0,5,4,3,1,0,250.0,train,5,M
394.568920135,5,1000,3,1,2,0,5,4,3,1,0,250.0,train,5,M
698.655128479,1,1000,4,1,2,0,5,4,3,1,0,250.0,train,1,M
666.558980942,4,1000,2,1,2,0,5,4,3,1,0,250.0,train,4,M
442.401170731,4,1000,2,1,2,0,5,4,3,1,0,250.0,train,4,M
538.522005081,5,1000,3,1,2,0,5,4,3,1,0,250.0,train,5,M
970.453023911,3,1000,5,1,2,0,5,4,3,1,0,250.0,train,3,M
506.422042847,0,1000,0,1,2,0,5,4,3,1,0,250.0,train,0,M
538.277864456,3,1000,5,1,2,0,5,4,3,1,0,250.0,train,3,M
490.429162979,4,1000,2,1,2,0,5,4,3,1,0,250.0,train,4,M
555.866956711,1,1000,4,1,2,0,5,4,3,1,0,250.0,train,1,M
330.358028412,0,1000,0,1,2,0,5,4,3,1,0,250.0,train,0,M
538.525104523,3,1000,5,1,2,0,5,4,3,1,0,250.0,train,3,M
490.483999252,5,1000,3,0,2,0,5,4,3,1,0,250.0,train,4,M
858.389854431,2,1000,1,1,2,0,5,4,3,1,0,250.0,train,2,M
459.830999374,1,1000,4,1,2,0,5,4,3,1,0,250.0,train,1,M
682.504892349,3,1000,5,1,2,0,5,4,3,1,0,250.0,train,3,M
346.487045288,4,1000,2,1,2,0,5,4,3,1,0,250.0,train,4,M
363.873004913,5,1000,3,1,2,0,5,4,3,1,0,250.0,train,5,M
571.327924728,4,1000,2,1,2,0,5,4,3,1,0,250.0,train,4,M
443.975925446,5,1000,3,1,2,0,5,4,3,1,0,250.0,train,5,M
667.052030563,3,1000,5,0,2,0,5,4,3,1,0,250.0,train,2,M
699.840068817,3,1000,5,1,2,0,5,4,3,1,0,250.0,train,3,M
475.828170776,4,1000,2,1,2,0,5,4,3,1,0,250.0,train,4,M
394.490003586,5,1000,3,1,2,0,5,4,3,1,0,250.0,train,5,M
474.56407547,0,1000,0,1,2,0,5,4,3,1,0,250.0,train,0,M
362.525939941,1,1000,4,1,2,0,5,4,3,1,0,250.0,train,1,M
442.551851273,0,1000,0,1,2,0,5,4,3,1,0,250.0,train,0,M
618.537902832,3,1000,5,1,2,0,5,4,3,1,0,250.0,train,3,M
570.56593895,2,1000,1,0,2,0,5,4,3,1,0,250.0,train,1,M
1178.64704132,4,1000,2,1,2,0,5,4,3,1,0,250.0,train,4,M
650.485038757,2,1000,1,1,2,0,5,4,3,1,0,250.0,train,2,M
634.644985199,4,1000,2,1,2,0,5,4,3,1,0,250.0,train,4,M
602.385044098,2,1000,1,1,2,0,5,4,3,1,0,250.0,train,2,M
587.965965271,5,1000,3,1,2,0,5,4,3,1,0,250.0,train,5,M
377.758979797,3,1000,5,1,2,0,5,4,3,1,0,250.0,train,3,M
410.480976105,4,1000,2,1,2,0,5,4,3,1,0,250.0,train,4,M
458.485841751,2,1000,1,1,2,0,5,4,3,1,0,250.0,train,2,M
603.85799408,4,1000,2,0,2,0,5,4,3,1,0,250.0,train,3,M
846.775054932,2,1000,1,1,2,0,5,4,3,1,0,250.0,train,2,M
473.994970322,5,1000,3,1,2,0,5,4,3,1,0,250.0,train,5,M
2219.63810921,3,1000,5,1,2,0,5,4,3,1,0,250.0,train,3,M
506.460905075,5,1000,3,1,2,0,5,4,3,1,0,250.0,train,5,M
650.486946106,2,1000,1,1,2,0,5,4,3,1,0,250.0,train,2,M
506.463050842,1,1000,4,0,2,0,5,4,3,1,0,250.0,train,4,M
634.5911026,2,1000,1,1,2,0,5,4,3,1,0,250.0,train,2,M
394.533872604,0,1000,0,1,2,0,5,4,3,1,0,250.0,train,0,M
458.529949188,0,1000,0,1,2,0,5,4,3,1,0,250.0,train,0,M
346.526145935,0,1000,0,1,2,0,5,4,3,1,0,250.0,train,0,M
585.963010788,5,1000,3,1,2,0,5,4,3,1,0,250.0,train,5,M
810.399055481,3,1000,5,1,2,0,5,4,3,1,0,250.0,train,3,M
524.006128311,2,1000,1,1,2,0,5,4,3,1,0,250.0,train,2,M
490.365982056,2,1000,1,1,2,0,5,4,3,1,0,250.0,train,2,M
650.399208069,4,1000,2,0,2,0,5,4,3,1,0,250.0,train,3,M
505.901098251,5,1000,3,1,2,0,5,4,3,1,0,250.0,train,5,M
746.404886246,2,1000,1,1,2,0,5,4,3,1,0,250.0,train,2,M
698.453187943,4,1000,2,1,2,0,5,4,3,1,0,250.0,train,4,M
570.430994034,2,1000,1,1,2,0,5,4,3,1,0,250.0,train,2,M
426.383972168,0,1000,0,1,2,0,5,4,3,1,0,250.0,train,0,M
490.362167358,2,1000,1,1,2,0,5,4,3,1,0,250.0,train,2,M
553.982019424,5,1000,3,1,2,0,5,4,3,1,0,250.0,train,5,M
523.901939392,2,1000,1,1,2,0,5,4,3,1,0,250.0,train,2,M
475.857973099,0,1000,0,1,2,0,5,4,3,1,0,250.0,train,0,M
458.564996719,1,1000,4,1,2,0,5,4,3,1,0,250.0,train,1,M
636.98887825,3,1000,5,1,2,0,5,4,3,1,0,250.0,train,3,M
475.877046585,1,1000,4,1,2,0,5,4,3,1,0,250.0,train,1,M
379.912853241,0,1000,0,1,2,0,5,4,3,1,0,250.0,train,0,M
491.842985153,5,1000,3,1,2,0,5,4,3,1,0,250.0,train,5,M
427.836894989,2,1000,1,1,2,0,5,4,3,1,0,250.0,train,2,M
362.498044968,1,1000,4,1,2,0,5,4,3,1,0,250.0,train,1,M
619.9259758,3,1000,5,1,2,0,5,4,3,1,0,250.0,train,3,M
474.484920502,4,1000,2,1,2,0,5,4,3,1,0,250.0,train,4,M
491.84012413,2,1000,1,1,2,0,5,4,3,1,0,250.0,train,2,M
410.61091423,1,1000,4,1,2,0,5,4,3,1,0,250.0,train,1,M
506.418943405,5,1000,3,1,2,0,5,4,3,1,0,250.0,train,5,M
746.529817581,3,1000,5,0,2,0,5,4,3,1,0,250.0,train,4,M
570.507049561,5,1000,3,1,2,0,5,4,3,1,0,250.0,train,5,M
457.919836044,0,1000,0,1,2,0,5,4,3,1,0,250.0,train,0,M
442.451953888,0,1000,0,1,2,0,5,4,3,1,0,250.0,train,0,M
410.487890244,0,1000,0,1,2,0,5,4,3,1,0,250.0,train,0,M
1450.45614243,4,1000,2,1,2,0,5,4,3,1,0,250.0,train,4,M
426.509857178,0,1000,0,1,2,0,5,4,3,1,0,250.0,train,0,M
490.390062332,5,1000,3,1,2,0,5,4,3,1,0,250.0,train,5,M
474.510908127,5,1000,3,1,2,0,5,4,3,1,0,250.0,train,5,M
506.346940994,4,1000,2,1,2,0,5,4,3,1,0,250.0,train,4,M
522.552013397,4,1000,2,1,2,0,5,4,3,1,0,250.0,train,4,M
603.926897049,1,1000,4,1,2,0,5,4,3,1,0,250.0,train,1,M
683.928966522,4,1000,2,1,2,0,5,4,3,1,0,250.0,train,4,M
523.856163025,1,1000,4,1,2,0,5,4,3,1,0,250.0,train,1,M
426.525115967,1,1000,4,1,2,0,5,4,3,1,0,250.0,train,1,M
586.535930634,5,1000,3,1,2,0,5,4,3,1,0,250.0,train,5,M
425.322055817,0,1000,0,0,2,0,5,4,3,1,0,250.0,train,1,M
794.587135315,3,1000,5,1,2,0,5,4,3,1,0,250.0,train,3,M
491.806030273,1,1000,4,1,2,0,5,4,3,1,0,250.0,train,1,M
395.905017853,1,1000,4,1,2,0,5,4,3,1,0,250.0,train,1,M
986.574172974,3,1000,5,1,2,0,5,4,3,1,0,250.0,train,3,M
490.574121475,0,1000,0,1,2,0,5,4,3,1,0,250.0,train,0,M
570.094108582,5,1000,3,1,2,0,5,4,3,1,0,250.0,train,5,M
394.561052322,4,1000,2,1,2,0,5,4,3,1,0,250.0,train,4,M
698.626995087,2,1000,1,1,2,0,5,4,3,1,0,250.0,train,2,M
442.577123642,0,1000,0,1,2,0,5,4,3,1,0,250.0,train,0,M
618.60704422,2,1000,1,1,2,0,5,4,3,1,0,250.0,train,2,M
362.4958992,1,1000,4,1,2,0,5,4,3,1,0,250.0,train,1,M
874.493122101,4,1000,2,1,2,0,5,4,3,1,0,250.0,train,4,M
475.975990295,5,1000,3,1,2,0,5,4,3,1,0,250.0,train,5,M
763.989925385,1,1000,4,1,2,0,5,4,3,1,0,250.0,train,1,M
507.923126221,5,1000,3,1,2,0,5,4,3,1,0,250.0,train,5,M
362.393856049,0,1000,0,1,2,0,5,4,3,1,0,250.0,train,0,M
442.348003387,5,1000,3,1,2,0,5,4,3,1,0,250.0,train,5,M
458.225011826,0,1000,0,1,2,0,5,4,3,1,0,250.0,train,0,M
411.838054657,0,1000,0,1,2,0,5,4,3,1,0,250.0,train,0,M
410.42804718,0,1000,0,1,2,0,5,4,3,1,0,250.0,train,0,M
587.820768356,2,1000,1,1,2,0,5,4,3,1,0,250.0,train,2,M
682.430028915,4,1000,2,1,2,0,5,4,3,1,0,250.0,train,4,M
890.518903732,3,1000,5,1,2,0,5,4,3,1,0,250.0,train,3,M
458.431005478,5,1000,3,1,2,0,5,4,3,1,0,250.0,train,5,M
521.914958954,4,1000,2,1,2,0,5,4,3,1,0,250.0,train,4,M
443.907022476,0,1000,0,1,2,0,5,4,3,1,0,250.0,train,0,M
378.348827362,0,1000,0,1,2,0,5,4,3,1,0,250.0,train,0,M
587.944030762,4,1000,2,1,2,0,5,4,3,1,0,250.0,train,4,M
8234.3120575,3,1000,5,1,2,0,5,4,3,1,0,250.0,test,3,M
1578.28187943,2,1000,1,1,2,0,5,4,3,1,0,250.0,test,2,M
1787.75691986,0,1000,0,1,2,0,5,4,3,1,0,250.0,test,0,M
1274.17588234,5,1000,3,1,2,0,5,4,3,1,0,250.0,test,5,M
1179.76403236,0,1000,0,1,2,0,5,4,3,1,0,250.0,test,0,M
1738.31105232,4,1000,2,1,2,0,5,4,3,1,0,250.0,test,4,M
906.880140305,0,1000,0,1,2,0,5,4,3,1,0,250.0,test,0,M
874.289035797,2,1000,1,1,2,0,5,4,3,1,0,250.0,test,2,M
891.777992249,5,1000,3,1,2,0,5,4,3,1,0,250.0,test,5,M
1050.32992363,3,1000,5,1,2,0,5,4,3,1,0,250.0,test,3,M
2091.83907509,2,1000,1,1,2,0,5,4,3,1,0,250.0,test,2,M
954.31303978,3,1000,5,1,2,0,5,4,3,1,0,250.0,test,3,M
779.587984085,5,1000,3,1,2,0,5,4,3,1,0,250.0,test,5,M
730.232000351,5,1000,3,1,2,0,5,4,3,1,0,250.0,test,5,M
522.245883942,5,1000,3,1,2,0,5,4,3,1,0,250.0,test,5,M
346.191167831,5,1000,3,1,2,0,5,4,3,1,0,250.0,test,5,M
1210.37220955,0,1000,0,1,2,0,5,4,3,1,0,250.0,test,0,M
362.282037735,0,1000,0,1,2,0,5,4,3,1,0,250.0,test,0,M
1307.79504776,3,1000,5,1,2,0,5,4,3,1,0,250.0,test,3,M
923.863887787,2,1000,1,1,2,0,5,4,3,1,0,250.0,test,2,M
859.723091125,1,1000,4,1,2,0,5,4,3,1,0,250.0,test,1,M
857.799053192,3,1000,5,0,2,0,5,4,3,1,0,250.0,test,5,M
1001.85394287,3,1000,5,1,2,0,5,4,3,1,0,250.0,test,3,M
731.643915176,5,1000,3,1,2,0,5,4,3,1,0,250.0,test,5,M
522.323846817,3,1000,5,1,2,0,5,4,3,1,0,250.0,test,3,M
458.292007446,3,1000,5,1,2,0,5,4,3,1,0,250.0,test,3,M
458.333969116,3,1000,5,1,2,0,5,4,3,1,0,250.0,test,3,M
442.260980606,5,1000,3,1,2,0,5,4,3,1,0,250.0,test,5,M
442.291975021,5,1000,3,1,2,0,5,4,3,1,0,250.0,test,5,M
842.287063599,2,1000,1,1,2,0,5,4,3,1,0,250.0,test,2,M
1194.36192513,3,1000,5,1,2,0,5,4,3,1,0,250.0,test,3,M
745.772123337,2,1000,1,1,2,0,5,4,3,1,0,250.0,test,2,M
1610.28218269,4,1000,2,1,2,0,5,4,3,1,0,250.0,test,4,M
1002.24900246,0,1000,0,1,2,0,5,4,3,1,0,250.0,test,0,M
1098.33192825,4,1000,2,1,2,0,5,4,3,1,0,250.0,test,4,M
507.670164108,4,1000,2,1,2,0,5,4,3,1,0,250.0,test,4,M
795.782089233,5,1000,3,1,2,0,5,4,3,1,0,250.0,test,5,M
875.679969788,3,1000,5,1,2,0,5,4,3,1,0,250.0,test,3,M
746.318817139,2,1000,1,1,2,0,5,4,3,1,0,250.0,test,2,M
587.737083435,0,1000,0,1,2,0,5,4,3,1,0,250.0,test,0,M
619.210958481,5,1000,3,1,2,0,5,4,3,1,0,250.0,test,5,M
666.087865829,4,1000,2,1,2,0,5,4,3,1,0,250.0,test,4,M
698.251962662,2,1000,1,1,2,0,5,4,3,1,0,250.0,test,2,M
746.312141418,5,1000,3,1,2,0,5,4,3,1,0,250.0,test,5,M
682.30009079,4,1000,2,1,2,0,5,4,3,1,0,250.0,test,4,M
697.703123093,2,1000,1,1,2,0,5,4,3,1,0,250.0,test,2,M
1306.39195442,5,1000,3,1,2,0,5,4,3,1,0,250.0,test,5,M
554.287910461,2,1000,1,0,2,0,5,4,3,1,0,250.0,test,1,M
778.315067291,3,1000,5,0,2,0,5,4,3,1,0,250.0,test,5,M
763.845205307,1,1000,4,1,2,0,5,4,3,1,0,250.0,test,1,M
682.20615387,2,1000,1,1,2,0,5,4,3,1,0,250.0,test,2,M
459.771871567,2,1000,1,1,2,0,5,4,3,1,0,250.0,test,2,M
2123.78001213,3,1000,5,1,2,0,5,4,3,1,0,250.0,test,3,M
1114.07899857,3,1000,5,0,2,0,5,4,3,1,0,250.0,test,0,M
1066.23792648,0,1000,0,1,2,0,5,4,3,1,0,250.0,test,0,M
618.303060532,0,1000,0,1,2,0,5,4,3,1,0,250.0,test,0,M
1210.29806137,3,1000,5,1,2,0,5,4,3,1,0,250.0,test,3,M
586.356878281,3,1000,5,1,2,0,5,4,3,1,0,250.0,test,3,M
666.366100311,2,1000,1,1,2,0,5,4,3,1,0,250.0,test,2,M
745.764017105,0,1000,0,1,2,0,5,4,3,1,0,250.0,test,0,M
602.344989777,2,1000,1,1,2,0,5,4,3,1,0,250.0,test,2,M
490.116119385,1,1000,4,1,2,0,5,4,3,1,0,250.0,test,1,M
506.306171417,1,1000,4,1,2,0,5,4,3,1,0,250.0,test,1,M
986.191034317,4,1000,2,1,2,0,5,4,3,1,0,250.0,test,4,M
1547.71590233,3,1000,5,1,2,0,5,4,3,1,0,250.0,test,3,M
891.756057739,0,1000,0,1,2,0,5,4,3,1,0,250.0,test,0,M
1210.35695076,3,1000,5,1,2,0,5,4,3,1,0,250.0,test,3,M
1370.02682686,4,1000,2,1,2,0,5,4,3,1,0,250.0,test,4,M
602.293968201,2,1000,1,1,2,0,5,4,3,1,0,250.0,test,2,M
538.310050964,1,1000,4,1,2,0,5,4,3,1,0,250.0,test,1,M
587.614774704,0,1000,0,1,2,0,5,4,3,1,0,250.0,test,0,M
331.672906876,0,1000,0,1,2,0,5,4,3,1,0,250.0,test,0,M
554.310083389,2,1000,1,1,2,0,5,4,3,1,0,250.0,test,2,M
922.309875488,4,1000,2,1,2,0,5,4,3,1,0,250.0,test,4,M
1019.80805397,3,1000,5,1,2,0,5,4,3,1,0,250.0,test,3,M
523.746967316,0,1000,0,1,2,0,5,4,3,1,0,250.0,test,0,M
731.796979904,5,1000,3,1,2,0,5,4,3,1,0,250.0,test,5,M
1355.81421852,3,1000,5,1,2,0,5,4,3,1,0,250.0,test,3,M
362.294912338,3,1000,5,1,2,0,5,4,3,1,0,250.0,test,3,M
827.710151672,4,1000,2,1,2,0,5,4,3,1,0,250.0,test,4,M
778.311014175,3,1000,5,1,2,0,5,4,3,1,0,250.0,test,3,M
714.299917221,5,1000,3,1,2,0,5,4,3,1,0,250.0,test,5,M
570.348024368,1,1000,4,1,2,0,5,4,3,1,0,250.0,test,1,M
474.34091568,1,1000,4,1,2,0,5,4,3,1,0,250.0,test,1,M
666.280031204,4,1000,2,1,2,0,5,4,3,1,0,250.0,test,4,M
698.221921921,0,1000,0,1,2,0,5,4,3,1,0,250.0,test,0,M
507.730960846,0,1000,0,1,2,0,5,4,3,1,0,250.0,test,0,M
618.353128433,2,1000,1,1,2,0,5,4,3,1,0,250.0,test,2,M
426.206111908,2,1000,1,1,2,0,5,4,3,1,0,250.0,test,2,M
699.718952179,5,1000,3,1,2,0,5,4,3,1,0,250.0,test,5,M
778.318881989,3,1000,5,1,2,0,5,4,3,1,0,250.0,test,3,M
714.334011078,4,1000,2,1,2,0,5,4,3,1,0,250.0,test,4,M
585.754871368,1,1000,4,1,2,0,5,4,3,1,0,250.0,test,1,M
906.322002411,3,1000,5,1,2,0,5,4,3,1,0,250.0,test,3,M
410.259008408,3,1000,5,1,2,0,5,4,3,1,0,250.0,test,3,M
570.327997208,2,1000,1,1,2,0,5,4,3,1,0,250.0,test,2,M
601.511955261,4,1000,2,1,2,0,5,4,3,1,0,250.0,test,4,M
458.276987076,1,1000,4,1,2,0,5,4,3,1,0,250.0,test,1,M
890.177965164,5,1000,3,1,2,0,5,4,3,1,0,250.0,test,5,M
539.734840393,0,1000,0,1,2,0,5,4,3,1,0,250.0,test,0,M
554.292917252,1,1000,4,1,2,0,5,4,3,1,0,250.0,test,1,M
539.620876312,5,1000,3,1,2,0,5,4,3,1,0,250.0,test,5,M
875.58889389,4,1000,2,1,2,0,5,4,3,1,0,250.0,test,4,M
793.744802475,3,1000,5,1,2,0,5,4,3,1,0,250.0,test,3,M
490.224123001,3,1000,5,1,2,0,5,4,3,1,0,250.0,test,3,M
554.172992706,1,1000,4,1,2,0,5,4,3,1,0,250.0,test,1,M
522.300004959,2,1000,1,1,2,0,5,4,3,1,0,250.0,test,2,M
538.34104538,0,1000,0,1,2,0,5,4,3,1,0,250.0,test,0,M
890.26594162,5,1000,3,1,2,0,5,4,3,1,0,250.0,test,5,M
1018.419981,3,1000,5,1,2,0,5,4,3,1,0,250.0,test,3,M
362.201929092,3,1000,5,1,2,0,5,4,3,1,0,250.0,test,3,M
504.987001419,0,1000,0,1,2,0,5,4,3,1,0,250.0,test,0,M
730.262041092,5,1000,3,1,2,0,5,4,3,1,0,250.0,test,5,M
442.303180695,5,1000,3,1,2,0,5,4,3,1,0,250.0,test,5,M
874.260902405,4,1000,2,1,2,0,5,4,3,1,0,250.0,test,4,M
443.72010231,4,1000,2,1,2,0,5,4,3,1,0,250.0,test,4,M
490.262985229,1,1000,4,1,2,0,5,4,3,1,0,250.0,test,1,M
618.2949543,0,1000,0,1,2,0,5,4,3,1,0,250.0,test,0,M
585.659980774,4,1000,2,1,2,0,5,4,3,1,0,250.0,test,4,M
347.770929337,4,1000,2,1,2,0,5,4,3,1,0,250.0,test,4,M
761.740922928,3,1000,5,1,2,0,5,4,3,1,0,250.0,test,3,M
506.358146667,3,1000,5,1,2,0,5,4,3,1,0,250.0,test,3,M
570.317029953,4,1000,2,1,2,0,5,4,3,1,0,250.0,test,4,M
539.771080017,2,1000,1,1,2,0,5,4,3,1,0,250.0,test,2,M
491.797208786,2,1000,1,1,2,0,5,4,3,1,0,250.0,test,2,M
635.64491272,4,1000,2,1,2,0,5,4,3,1,0,250.0,test,4,M
587.533950806,1,1000,4,1,2,0,5,4,3,1,0,250.0,test,1,M
394.300937653,1,1000,4,1,2,0,5,4,3,1,0,250.0,test,1,M
330.366134644,1,1000,4,1,2,0,5,4,3,1,0,250.0,test,1,M
298.232078552,1,1000,4,1,2,0,5,4,3,1,0,250.0,test,1,M
489.758014679,0,1000,0,1,2,0,5,4,3,1,0,250.0,test,0,M
602.328062057,2,1000,1,1,2,0,5,4,3,1,0,250.0,test,2,M
1161.88383102,5,1000,3,1,2,0,5,4,3,1,0,250.0,test,5,M
667.613983154,2,1000,1,1,2,0,5,4,3,1,0,250.0,test,2,M
508.529901505,5,1000,3,1,2,0,5,4,3,1,0,250.0,test,5,M
714.333057404,0,1000,0,1,2,0,5,4,3,1,0,250.0,test,0,M
489.974975586,2,1000,1,1,2,0,5,4,3,1,0,250.0,test,2,M
859.765052795,3,1000,5,1,2,0,5,4,3,1,0,250.0,test,3,M
570.35279274,0,1000,0,1,2,0,5,4,3,1,0,250.0,test,0,M
538.403987885,1,1000,4,1,2,0,5,4,3,1,0,250.0,test,1,M
922.272920609,5,1000,3,1,2,0,5,4,3,1,0,250.0,test,5,M
810.349941254,3,1000,5,1,2,0,5,4,3,1,0,250.0,test,3,M
570.314884186,3,1000,5,1,2,0,5,4,3,1,0,250.0,test,3,M
441.824197769,1,1000,4,1,2,0,5,4,3,1,0,250.0,test,1,M
426.164865494,1,1000,4,1,2,0,5,4,3,1,0,250.0,test,1,M
889.863014221,3,1000,5,1,2,0,5,4,3,1,0,250.0,test,3,M
698.276996613,2,1000,1,1,2,0,5,4,3,1,0,250.0,test,2,M
410.310029984,2,1000,1,1,2,0,5,4,3,1,0,250.0,test,2,M
667.526960373,4,1000,2,1,2,0,5,4,3,1,0,250.0,test,4,M
730.098009109,3,1000,5,1,2,0,5,4,3,1,0,250.0,test,3,M
875.789880753,5,1000,3,1,2,0,5,4,3,1,0,250.0,test,5,M
715.755939484,3,1000,5,1,2,0,5,4,3,1,0,250.0,test,3,M
409.741163254,5,1000,3,1,2,0,5,4,3,1,0,250.0,test,5,M
539.770126343,1,1000,4,1,2,0,5,4,3,1,0,250.0,test,1,M
393.471002579,1,1000,4,1,2,0,5,4,3,1,0,250.0,test,1,M
555.733919144,4,1000,2,1,2,0,5,4,3,1,0,250.0,test,4,M
442.311048508,4,1000,2,1,2,0,5,4,3,1,0,250.0,test,4,M
346.261978149,4,1000,2,1,2,0,5,4,3,1,0,250.0,test,4,M
329.694986343,4,1000,2,1,2,0,5,4,3,1,0,250.0,test,4,M
699.518918991,3,1000,5,1,2,0,5,4,3,1,0,250.0,test,3,M
330.318927765,3,1000,5,1,2,0,5,4,3,1,0,250.0,test,3,M
378.211975098,4,1000,2,0,2,0,5,4,3,1,0,250.0,test,3,M
538.303136826,2,1000,1,1,2,0,5,4,3,1,0,250.0,test,2,M
762.258052826,3,1000,5,1,2,0,5,4,3,1,0,250.0,test,3,M
587.797880173,4,1000,2,1,2,0,5,4,3,1,0,250.0,test,4,M
491.829872131,0,1000,0,1,2,0,5,4,3,1,0,250.0,test,0,M
522.325992584,4,1000,2,1,2,0,5,4,3,1,0,250.0,test,4,M
617.700099945,5,1000,3,1,2,0,5,4,3,1,0,250.0,test,5,M
474.33590889,2,1000,1,1,2,0,5,4,3,1,0,250.0,test,2,M
603.810071945,4,1000,2,1,2,0,5,4,3,1,0,250.0,test,4,M
395.737886429,4,1000,2,1,2,0,5,4,3,1,0,250.0,test,4,M
555.752038956,2,1000,1,1,2,0,5,4,3,1,0,250.0,test,2,M
795.697927475,3,1000,5,1,2,0,5,4,3,1,0,250.0,test,3,M
475.75211525,5,1000,3,1,2,0,5,4,3,1,0,250.0,test,5,M
410.326957703,2,1000,1,1,2,0,5,4,3,1,0,250.0,test,2,M
602.350950241,0,1000,0,1,2,0,5,4,3,1,0,250.0,test,0,M
730.336904526,3,1000,5,1,2,0,5,4,3,1,0,250.0,test,3,M
490.335941315,4,1000,2,1,2,0,5,4,3,1,0,250.0,test,4,M
779.68287468,5,1000,3,1,2,0,5,4,3,1,0,250.0,test,5,M
571.757078171,4,1000,2,1,2,0,5,4,3,1,0,250.0,test,4,M
569.146156311,2,1000,1,1,2,0,5,4,3,1,0,250.0,test,2,M
410.341024399,2,1000,1,1,2,0,5,4,3,1,0,250.0,test,2,M
347.823143005,2,1000,1,1,2,0,5,4,3,1,0,250.0,test,2,M
683.731079102,3,1000,5,1,2,0,5,4,3,1,0,250.0,test,3,M
522.318840027,2,1000,1,1,2,0,5,4,3,1,0,250.0,test,2,M
523.763179779,1,1000,4,1,2,0,5,4,3,1,0,250.0,test,1,M
506.272792816,4,1000,2,1,2,0,5,4,3,1,0,250.0,test,4,M
378.32403183,4,1000,2,1,2,0,5,4,3,1,0,250.0,test,4,M
410.298109055,2,1000,1,0,2,0,5,4,3,1,0,250.0,test,4,M
571.740150452,4,1000,2,1,2,0,5,4,3,1,0,250.0,test,4,M
603.78408432,1,1000,4,1,2,0,5,4,3,1,0,250.0,test,1,M
650.120019913,3,1000,5,1,2,0,5,4,3,1,0,250.0,test,3,M
715.52491188,2,1000,1,1,2,0,5,4,3,1,0,250.0,test,2,M
634.266853333,5,1000,3,1,2,0,5,4,3,1,0,250.0,test,5,M
522.221088409,4,1000,2,1,2,0,5,4,3,1,0,250.0,test,4,M
522.31502533,2,1000,1,1,2,0,5,4,3,1,0,250.0,test,2,M
506.189107895,0,1000,0,1,2,0,5,4,3,1,0,250.0,test,0,M
442.318916321,0,1000,0,1,2,0,5,4,3,1,0,250.0,test,0,M
507.791996002,1,1000,4,1,2,0,5,4,3,1,0,250.0,test,1,M
474.369049072,4,1000,2,1,2,0,5,4,3,1,0,250.0,test,4,M
1066.38908386,3,1000,5,1,2,0,5,4,3,1,0,250.0,test,3,M
475.618124008,4,1000,2,1,2,0,5,4,3,1,0,250.0,test,4,M
698.280096054,3,1000,5,1,2,0,5,4,3,1,0,250.0,test,3,M
330.252885818,3,1000,5,1,2,0,5,4,3,1,0,250.0,test,3,M
522.339105606,2,1000,1,1,2,0,5,4,3,1,0,250.0,test,2,M
618.304014206,3,1000,5,1,2,0,5,4,3,1,0,250.0,test,3,M
442.355871201,4,1000,2,1,2,0,5,4,3,1,0,250.0,test,4,M
634.306907654,1,1000,4,1,2,0,5,4,3,1,0,250.0,test,1,M
458.059072495,2,1000,1,1,2,0,5,4,3,1,0,250.0,test,2,M
714.236021042,5,1000,3,1,2,0,5,4,3,1,0,250.0,test,5,M
475.75712204,0,1000,0,1,2,0,5,4,3,1,0,250.0,test,0,M
522.312879562,5,1000,3,1,2,0,5,4,3,1,0,250.0,test,5,M
507.672786713,0,1000,0,1,2,0,5,4,3,1,0,250.0,test,0,M
411.586999893,0,1000,0,1,2,0,5,4,3,1,0,250.0,test,0,M
554.306030273,4,1000,2,1,2,0,5,4,3,1,0,250.0,test,4,M
506.380081177,1,1000,4,1,2,0,5,4,3,1,0,250.0,test,1,M
410.778999329,2,1000,1,1,2,0,5,4,3,1,0,250.0,test,2,M
1179.7721386,5,1000,3,0,2,0,5,4,3,1,0,250.0,test,3,M
906.302928925,3,1000,5,1,2,0,5,4,3,1,0,250.0,test,3,M
570.296049118,5,1000,3,1,2,0,5,4,3,1,0,250.0,test,5,M
474.248170853,0,1000,0,1,2,0,5,4,3,1,0,250.0,test,0,M
537.67991066,4,1000,2,1,2,0,5,4,3,1,0,250.0,test,4,M
410.264015198,4,1000,2,1,2,0,5,4,3,1,0,250.0,test,4,M
681.826114655,3,1000,5,1,2,0,5,4,3,1,0,250.0,test,3,M
554.197072983,4,1000,2,1,2,0,5,4,3,1,0,250.0,test,4,M
570.415019989,0,1000,0,1,2,0,5,4,3,1,0,250.0,test,0,M
378.313064575,3,1000,5,1,2,0,5,4,3,1,0,250.0,test,3,M
521.789073944,1,1000,4,1,2,0,5,4,3,1,0,250.0,test,1,M
475.662231445,1,1000,4,0,2,0,5,4,3,1,0,250.0,test,0,M
715.752124786,0,1000,0,1,2,0,5,4,3,1,0,250.0,test,0,M
842.336893082,5,1000,3,1,2,0,5,4,3,1,0,250.0,test,5,M
523.719072342,0,1000,0,1,2,0,5,4,3,1,0,250.0,test,0,M
362.328052521,0,1000,0,1,2,0,5,4,3,1,0,250.0,test,0,M
698.374032974,3,1000,5,1,2,0,5,4,3,1,0,250.0,test,3,M
538.002967834,1,1000,4,1,2,0,5,4,3,1,0,250.0,test,1,M
506.301879883,0,1000,0,1,2,0,5,4,3,1,0,250.0,test,0,M
890.357017517,5,1000,3,1,2,0,5,4,3,1,0,250.0,test,5,M
505.759954453,1,1000,4,1,2,0,5,4,3,1,0,250.0,test,1,M
795.809030533,5,1000,3,1,2,0,5,4,3,1,0,250.0,test,5,M
393.9640522,5,1000,3,1,2,0,5,4,3,1,0,250.0,test,5,M
395.737171173,5,1000,3,1,2,0,5,4,3,1,0,250.0,test,5,M
362.231969833,5,1000,3,1,2,0,5,4,3,1,0,250.0,test,5,M
506.287097931,2,1000,1,1,2,0,5,4,3,1,0,250.0,test,2,M
538.249969482,1,1000,4,1,2,0,5,4,3,1,0,250.0,test,1,M
587.801933289,5,1000,3,1,2,0,5,4,3,1,0,250.0,test,5,M
522.300958633,0,1000,0,1,2,0,5,4,3,1,0,250.0,test,0,M
602.357149124,5,1000,3,1,2,0,5,4,3,1,0,250.0,test,5,M
1883.61215591,3,1000,5,1,2,0,5,4,3,1,0,250.0,test,3,M
554.322004318,0,1000,0,1,2,0,5,4,3,1,0,250.0,test,0,M
426.241159439,3,1000,5,1,2,0,5,4,3,1,0,250.0,test,3,M
