RT,correct_response,ms-prestimblank,curstim,correct,SRmap_1,SRmap_0,SRmap_3,SRmap_2,SRmap_5,SRmap_4,ms-precue,ntrials,type,response,condition
4558.77614021,0,600,2,0,4,5,2,0,3,1,400,250.0,train,2,E-
1263.44418526,5,600,0,1,4,5,2,0,3,1,400,250.0,train,5,E-
1279.03985977,1,600,4,1,4,5,2,0,3,1,400,250.0,train,1,E-
463.0818367,4,600,1,0,4,5,2,0,3,1,400,250.0,train,3,E-
399.137973785,3,600,5,1,4,5,2,0,3,1,400,250.0,train,3,E-
125.473022461,5,600,0,1,4,5,2,0,3,1,400,250.0,train,5,E-
318.979024887,2,600,3,1,4,5,2,0,3,1,400,250.0,train,2,E-
95.2119827271,2,600,3,1,4,5,2,0,3,1,400,250.0,train,2,E-
0.053882598877,1,600,4,1,4,5,2,0,3,1,400,250.0,train,1,E-
221.968889236,5,600,0,1,4,5,2,0,3,1,400,250.0,train,5,E-
46.3201999664,0,600,2,1,4,5,2,0,3,1,400,250.0,train,0,E-
63.225030899,0,600,2,1,4,5,2,0,3,1,400,250.0,train,0,E-
111.223936081,1,600,4,1,4,5,2,0,3,1,400,250.0,train,1,E-
142.30799675,1,600,4,1,4,5,2,0,3,1,400,250.0,train,1,E-
527.070045471,0,600,2,1,4,5,2,0,3,1,400,250.0,train,0,E-
31.2039852142,1,600,4,1,4,5,2,0,3,1,400,250.0,train,1,E-
286.945819855,4,600,1,1,4,5,2,0,3,1,400,250.0,train,4,E-
126.326084137,2,600,3,0,4,5,2,0,3,1,400,250.0,train,3,E-
286.236047745,1,600,4,1,4,5,2,0,3,1,400,250.0,train,1,E-
159.616947174,2,600,3,1,4,5,2,0,3,1,400,250.0,train,2,E-
542.048931122,2,600,3,1,4,5,2,0,3,1,400,250.0,train,2,E-
95.1290130615,0,600,2,1,4,5,2,0,3,1,400,250.0,train,0,E-
142.335176468,2,600,3,1,4,5,2,0,3,1,400,250.0,train,2,E-
47.1339225769,0,600,2,1,4,5,2,0,3,1,400,250.0,train,0,E-
95.3381061554,0,600,2,1,4,5,2,0,3,1,400,250.0,train,0,E-
31.6689014435,1,600,4,1,4,5,2,0,3,1,400,250.0,train,1,E-
15.1000022888,2,600,3,1,4,5,2,0,3,1,400,250.0,train,2,E-
239.243030548,0,600,2,1,4,5,2,0,3,1,400,250.0,train,0,E-
174.304008484,4,600,1,0,4,5,2,0,3,1,400,250.0,train,5,E-
335.461139679,4,600,1,1,4,5,2,0,3,1,400,250.0,train,4,E-
255.005836487,2,600,3,1,4,5,2,0,3,1,400,250.0,train,2,E-
0.0689029693604,0,600,2,1,4,5,2,0,3,1,400,250.0,train,0,E-
78.4690380096,5,600,0,1,4,5,2,0,3,1,400,250.0,train,5,E-
223.54888916,3,600,5,0,4,5,2,0,3,1,400,250.0,train,2,E-
30.1730632782,3,600,5,1,4,5,2,0,3,1,400,250.0,train,3,E-
63.679933548,2,600,3,1,4,5,2,0,3,1,400,250.0,train,2,E-
79.6959400177,0,600,2,1,4,5,2,0,3,1,400,250.0,train,0,E-
542.255878448,1,600,4,1,4,5,2,0,3,1,400,250.0,train,1,E-
47.003030777,4,600,1,1,4,5,2,0,3,1,400,250.0,train,4,E-
94.8929786682,4,600,1,1,4,5,2,0,3,1,400,250.0,train,4,E-
47.4760532379,1,600,4,1,4,5,2,0,3,1,400,250.0,train,1,E-
366.869926453,0,600,2,1,4,5,2,0,3,1,400,250.0,train,0,E-
94.4409370422,3,600,5,0,4,5,2,0,3,1,400,250.0,train,2,E-
335.603952408,4,600,1,1,4,5,2,0,3,1,400,250.0,train,4,E-
190.515995026,2,600,3,1,4,5,2,0,3,1,400,250.0,train,2,E-
430.979013443,1,600,4,1,4,5,2,0,3,1,400,250.0,train,1,E-
158.933877945,5,600,0,0,4,5,2,0,3,1,400,250.0,train,4,E-
222.238063812,1,600,4,1,4,5,2,0,3,1,400,250.0,train,1,E-
206.074953079,4,600,1,0,4,5,2,0,3,1,400,250.0,train,5,E-
255.620002747,3,600,5,1,4,5,2,0,3,1,400,250.0,train,3,E-
207.068920135,5,600,0,1,4,5,2,0,3,1,400,250.0,train,5,E-
111.135959625,3,600,5,1,4,5,2,0,3,1,400,250.0,train,3,E-
191.168785095,5,600,0,1,4,5,2,0,3,1,400,250.0,train,5,E-
63.7059211731,4,600,1,0,4,5,2,0,3,1,400,250.0,train,3,E-
287.575006485,2,600,3,1,4,5,2,0,3,1,400,250.0,train,2,E-
126.989126205,3,600,5,1,4,5,2,0,3,1,400,250.0,train,3,E-
0.0550746917725,3,600,5,1,4,5,2,0,3,1,400,250.0,train,3,E-
111.710071564,5,600,0,1,4,5,2,0,3,1,400,250.0,train,5,E-
94.456911087,0,600,2,1,4,5,2,0,3,1,400,250.0,train,0,E-
2334.4399929,0,600,2,1,4,5,2,0,3,1,400,250.0,train,0,E-
414.968013763,1,600,4,1,4,5,2,0,3,1,400,250.0,train,1,E-
174.813985825,5,600,0,1,4,5,2,0,3,1,400,250.0,train,5,E-
223.15788269,4,600,1,0,4,5,2,0,3,1,400,250.0,train,3,E-
271.152019501,2,600,3,1,4,5,2,0,3,1,400,250.0,train,2,E-
31.3339233398,0,600,2,1,4,5,2,0,3,1,400,250.0,train,0,E-
190.201997757,4,600,1,1,4,5,2,0,3,1,400,250.0,train,4,E-
334.603786469,1,600,4,1,4,5,2,0,3,1,400,250.0,train,1,E-
415.543079376,0,600,2,1,4,5,2,0,3,1,400,250.0,train,0,E-
221.755027771,5,600,0,1,4,5,2,0,3,1,400,250.0,train,5,E-
79.6141624451,0,600,2,1,4,5,2,0,3,1,400,250.0,train,0,E-
127.126932144,0,600,2,1,4,5,2,0,3,1,400,250.0,train,0,E-
63.2917881012,1,600,4,1,4,5,2,0,3,1,400,250.0,train,1,E-
222.655057907,3,600,5,1,4,5,2,0,3,1,400,250.0,train,3,E-
190.299034119,0,600,2,1,4,5,2,0,3,1,400,250.0,train,0,E-
47.7058887482,2,600,3,1,4,5,2,0,3,1,400,250.0,train,2,E-
175.504922867,5,600,0,1,4,5,2,0,3,1,400,250.0,train,5,E-
623.109102249,1,600,4,1,4,5,2,0,3,1,400,250.0,train,1,E-
95.7291126251,5,600,0,1,4,5,2,0,3,1,400,250.0,train,5,E-
79.7188282013,2,600,3,1,4,5,2,0,3,1,400,250.0,train,2,E-
111.202955246,5,600,0,1,4,5,2,0,3,1,400,250.0,train,5,E-
255.0740242,4,600,1,1,4,5,2,0,3,1,400,250.0,train,4,E-
191.127061844,2,600,3,1,4,5,2,0,3,1,400,250.0,train,2,E-
142.955064774,3,600,5,0,4,5,2,0,3,1,400,250.0,train,2,E-
222.131967545,3,600,5,1,4,5,2,0,3,1,400,250.0,train,3,E-
159.188985825,5,600,0,1,4,5,2,0,3,1,400,250.0,train,5,E-
111.238002777,3,600,5,1,4,5,2,0,3,1,400,250.0,train,3,E-
47.7018356323,3,600,5,1,4,5,2,0,3,1,400,250.0,train,3,E-
143.67389679,4,600,1,1,4,5,2,0,3,1,400,250.0,train,4,E-
62.4759197235,0,600,2,1,4,5,2,0,3,1,400,250.0,train,0,E-
575.200080872,2,600,3,1,4,5,2,0,3,1,400,250.0,train,2,E-
142.691135406,4,600,1,1,4,5,2,0,3,1,400,250.0,train,4,E-
94.9528217316,2,600,3,1,4,5,2,0,3,1,400,250.0,train,2,E-
127.207994461,4,600,1,0,4,5,2,0,3,1,400,250.0,train,3,E-
62.9041194916,5,600,0,1,4,5,2,0,3,1,400,250.0,train,5,E-
0.0541210174561,0,600,2,1,4,5,2,0,3,1,400,250.0,train,0,E-
79.5640945435,0,600,2,1,4,5,2,0,3,1,400,250.0,train,0,E-
206.757068634,4,600,1,1,4,5,2,0,3,1,400,250.0,train,4,E-
0.0531673431396,5,600,0,1,4,5,2,0,3,1,400,250.0,train,5,E-
639.508962631,5,600,0,1,4,5,2,0,3,1,400,250.0,train,5,E-
63.0490779877,1,600,4,1,4,5,2,0,3,1,400,250.0,train,1,E-
446.779966354,1,600,4,1,4,5,2,0,3,1,400,250.0,train,1,E-
222.779989243,4,600,1,1,4,5,2,0,3,1,400,250.0,train,4,E-
206.184864044,4,600,1,1,4,5,2,0,3,1,400,250.0,train,4,E-
126.993894577,5,600,0,1,4,5,2,0,3,1,400,250.0,train,5,E-
398.324012756,3,600,5,0,4,5,2,0,3,1,400,250.0,train,2,E-
319.709062576,4,600,1,1,4,5,2,0,3,1,400,250.0,train,4,E-
127.653837204,3,600,5,0,4,5,2,0,3,1,400,250.0,train,2,E-
94.4328308105,0,600,2,1,4,5,2,0,3,1,400,250.0,train,0,E-
446.479082108,4,600,1,1,4,5,2,0,3,1,400,250.0,train,4,E-
110.522985458,4,600,1,1,4,5,2,0,3,1,400,250.0,train,4,E-
79.5948505402,5,600,0,1,4,5,2,0,3,1,400,250.0,train,5,E-
206.089019775,1,600,4,1,4,5,2,0,3,1,400,250.0,train,1,E-
238.771915436,4,600,1,1,4,5,2,0,3,1,400,250.0,train,4,E-
334.278106689,2,600,3,0,4,5,2,0,3,1,400,250.0,train,3,E-
94.456911087,1,600,4,1,4,5,2,0,3,1,400,250.0,train,1,E-
63.1549358368,0,600,2,1,4,5,2,0,3,1,400,250.0,train,0,E-
190.970897675,5,600,0,1,4,5,2,0,3,1,400,250.0,train,5,E-
159.57403183,1,600,4,1,4,5,2,0,3,1,400,250.0,train,1,E-
15.5389308929,1,600,4,1,4,5,2,0,3,1,400,250.0,train,1,E-
270.699977875,0,600,2,1,4,5,2,0,3,1,400,250.0,train,0,E-
31.1889648438,5,600,0,1,4,5,2,0,3,1,400,250.0,train,5,E-
31.1989784241,1,600,4,1,4,5,2,0,3,1,400,250.0,train,1,E-
127.297878265,5,600,0,1,4,5,2,0,3,1,400,250.0,train,5,E-
31.1639308929,0,600,2,1,4,5,2,0,3,1,400,250.0,train,0,E-
238.900899887,3,600,5,0,4,5,2,0,3,1,400,250.0,train,4,E-
431.346178055,3,600,5,1,4,5,2,0,3,1,400,250.0,train,3,E-
239.624977112,2,600,3,1,4,5,2,0,3,1,400,250.0,train,2,E-
175.668954849,3,600,5,1,4,5,2,0,3,1,400,250.0,train,3,E-
15.682220459,1,600,4,1,4,5,2,0,3,1,400,250.0,train,1,E-
175.545930862,4,600,1,0,4,5,2,0,3,1,400,250.0,train,3,E-
238.394975662,2,600,3,1,4,5,2,0,3,1,400,250.0,train,2,E-
15.2208805084,2,600,3,1,4,5,2,0,3,1,400,250.0,train,2,E-
143.175125122,5,600,0,1,4,5,2,0,3,1,400,250.0,train,5,E-
79.6098709106,3,600,5,1,4,5,2,0,3,1,400,250.0,train,3,E-
62.5450611115,3,600,5,1,4,5,2,0,3,1,400,250.0,train,3,E-
31.6398143768,1,600,4,1,4,5,2,0,3,1,400,250.0,train,1,E-
191.113948822,5,600,0,1,4,5,2,0,3,1,400,250.0,train,5,E-
79.3550014496,5,600,0,1,4,5,2,0,3,1,400,250.0,train,5,E-
175.132989883,3,600,5,1,4,5,2,0,3,1,400,250.0,train,3,E-
207.183122635,2,600,3,1,4,5,2,0,3,1,400,250.0,train,2,E-
127.365112305,4,600,1,1,4,5,2,0,3,1,400,250.0,train,4,E-
31.2278270721,0,600,2,1,4,5,2,0,3,1,400,250.0,train,0,E-
174.918889999,2,600,3,1,4,5,2,0,3,1,400,250.0,train,2,E-
63.6730194092,1,600,4,1,4,5,2,0,3,1,400,250.0,train,1,E-
143.590927124,4,600,1,0,4,5,2,0,3,1,400,250.0,train,3,E-
222.119092941,4,600,1,1,4,5,2,0,3,1,400,250.0,train,4,E-
399.392127991,4,600,1,1,4,5,2,0,3,1,400,250.0,train,4,E-
14.044046402,1,600,4,1,4,5,2,0,3,1,400,250.0,train,1,E-
111.743927002,3,600,5,1,4,5,2,0,3,1,400,250.0,train,3,E-
127.170085907,1,600,4,1,4,5,2,0,3,1,400,250.0,train,1,E-
543.53094101,1,600,4,1,4,5,2,0,3,1,400,250.0,train,1,E-
127.582073212,2,600,3,1,4,5,2,0,3,1,400,250.0,train,2,E-
239.169836044,4,600,1,1,4,5,2,0,3,1,400,250.0,train,4,E-
47.189950943,1,600,4,1,4,5,2,0,3,1,400,250.0,train,1,E-
223.159790039,2,600,3,1,4,5,2,0,3,1,400,250.0,train,2,E-
174.478054047,5,600,0,1,4,5,2,0,3,1,400,250.0,train,5,E-
47.6350784302,4,600,1,1,4,5,2,0,3,1,400,250.0,train,4,E-
79.7288417816,0,600,2,1,4,5,2,0,3,1,400,250.0,train,0,E-
303.205966949,4,600,1,1,4,5,2,0,3,1,400,250.0,train,4,E-
302.95586586,1,600,4,1,4,5,2,0,3,1,400,250.0,train,1,E-
287.235975266,4,600,1,1,4,5,2,0,3,1,400,250.0,train,4,E-
79.2670249939,0,600,2,1,4,5,2,0,3,1,400,250.0,train,0,E-
63.0550384521,1,600,4,1,4,5,2,0,3,1,400,250.0,train,1,E-
46.4351177216,0,600,2,1,4,5,2,0,3,1,400,250.0,train,0,E-
79.243183136,2,600,3,1,4,5,2,0,3,1,400,250.0,train,2,E-
31.7029953003,2,600,3,1,4,5,2,0,3,1,400,250.0,train,2,E-
29.8230648041,1,600,4,1,4,5,2,0,3,1,400,250.0,train,1,E-
191.570043564,5,600,0,0,4,5,2,0,3,1,400,250.0,train,4,E-
478.873968124,2,600,3,1,4,5,2,0,3,1,400,250.0,train,2,E-
207.537174225,4,600,1,1,4,5,2,0,3,1,400,250.0,train,4,E-
111.548900604,3,600,5,1,4,5,2,0,3,1,400,250.0,train,3,E-
62.4577999115,2,600,3,1,4,5,2,0,3,1,400,250.0,train,2,E-
143.221855164,5,600,0,1,4,5,2,0,3,1,400,250.0,train,5,E-
31.5570831299,1,600,4,1,4,5,2,0,3,1,400,250.0,train,1,E-
255.535125732,4,600,1,1,4,5,2,0,3,1,400,250.0,train,4,E-
62.7830028534,4,600,1,1,4,5,2,0,3,1,400,250.0,train,4,E-
14.7371292114,5,600,0,1,4,5,2,0,3,1,400,250.0,train,5,E-
110.636949539,4,600,1,1,4,5,2,0,3,1,400,250.0,train,4,E-
47.2500324249,2,600,3,1,4,5,2,0,3,1,400,250.0,train,2,E-
175.136804581,0,600,2,1,4,5,2,0,3,1,400,250.0,train,0,E-
31.1658382416,2,600,3,1,4,5,2,0,3,1,400,250.0,train,2,E-
431.097984314,2,600,3,1,4,5,2,0,3,1,400,250.0,train,2,E-
383.431911469,1,600,4,1,4,5,2,0,3,1,400,250.0,train,1,E-
206.586122513,4,600,1,1,4,5,2,0,3,1,400,250.0,train,4,E-
303.463935852,4,600,1,1,4,5,2,0,3,1,400,250.0,train,4,E-
78.7518024445,5,600,0,1,4,5,2,0,3,1,400,250.0,train,5,E-
335.469961166,1,600,4,1,4,5,2,0,3,1,400,250.0,train,1,E-
143.637895584,1,600,4,1,4,5,2,0,3,1,400,250.0,train,1,E-
223.092079163,4,600,1,1,4,5,2,0,3,1,400,250.0,train,4,E-
0.0581741333008,5,600,0,1,4,5,2,0,3,1,400,250.0,train,5,E-
191.509962082,3,600,5,0,4,5,2,0,3,1,400,250.0,train,4,E-
15.5029296875,0,600,2,1,4,5,2,0,3,1,400,250.0,train,0,E-
126.816034317,3,600,5,0,4,5,2,0,3,1,400,250.0,train,2,E-
62.4661445618,1,600,4,1,4,5,2,0,3,1,400,250.0,train,1,E-
31.6660404205,1,600,4,1,4,5,2,0,3,1,400,250.0,train,1,E-
206.497907639,1,600,4,1,4,5,2,0,3,1,400,250.0,train,1,E-
223.023176193,2,600,3,1,4,5,2,0,3,1,400,250.0,train,2,E-
575.170040131,2,600,3,1,4,5,2,0,3,1,400,250.0,train,2,E-
158.473014832,1,600,4,1,4,5,2,0,3,1,400,250.0,train,1,E-
159.013986588,3,600,5,1,4,5,2,0,3,1,400,250.0,train,3,E-
126.402139664,5,600,0,1,4,5,2,0,3,1,400,250.0,train,5,E-
30.6808948517,0,600,2,1,4,5,2,0,3,1,400,250.0,train,0,E-
495.042085648,1,600,4,1,4,5,2,0,3,1,400,250.0,train,1,E-
158.401012421,2,600,3,1,4,5,2,0,3,1,400,250.0,train,2,E-
335.175037384,4,600,1,0,4,5,2,0,3,1,400,250.0,train,5,E-
62.5350475311,0,600,2,1,4,5,2,0,3,1,400,250.0,train,0,E-
46.9369888306,0,600,2,1,4,5,2,0,3,1,400,250.0,train,0,E-
223.1528759,3,600,5,1,4,5,2,0,3,1,400,250.0,train,3,E-
126.310110092,0,600,2,1,4,5,2,0,3,1,400,250.0,train,0,E-
670.506000519,2,600,3,1,4,5,2,0,3,1,400,250.0,train,2,E-
77.9759883881,3,600,5,1,4,5,2,0,3,1,400,250.0,train,3,E-
142.908096313,3,600,5,1,4,5,2,0,3,1,400,250.0,train,3,E-
47.6369857788,0,600,2,1,4,5,2,0,3,1,400,250.0,train,0,E-
335.504055023,1,600,4,1,4,5,2,0,3,1,400,250.0,train,1,E-
175.513029099,5,600,0,0,4,5,2,0,3,1,400,250.0,train,3,E-
94.4321155548,0,600,2,1,4,5,2,0,3,1,400,250.0,train,0,E-
79.6730518341,5,600,0,1,4,5,2,0,3,1,400,250.0,train,5,E-
62.7150535583,1,600,4,1,4,5,2,0,3,1,400,250.0,train,1,E-
31.0020446777,0,600,2,1,4,5,2,0,3,1,400,250.0,train,0,E-
110.743045807,5,600,0,1,4,5,2,0,3,1,400,250.0,train,5,E-
15.0330066681,5,600,0,1,4,5,2,0,3,1,400,250.0,train,5,E-
63.502073288,1,600,4,1,4,5,2,0,3,1,400,250.0,train,1,E-
63.6940002441,4,600,1,1,4,5,2,0,3,1,400,250.0,train,4,E-
47.1980571747,0,600,2,1,4,5,2,0,3,1,400,250.0,train,0,E-
159.156799316,2,600,3,1,4,5,2,0,3,1,400,250.0,train,2,E-
623.281955719,1,600,4,1,4,5,2,0,3,1,400,250.0,train,1,E-
175.622940063,2,600,3,1,4,5,2,0,3,1,400,250.0,train,2,E-
127.497911453,3,600,5,1,4,5,2,0,3,1,400,250.0,train,3,E-
159.363985062,4,600,1,0,4,5,2,0,3,1,400,250.0,train,5,E-
0.0560283660889,4,600,1,1,4,5,2,0,3,1,400,250.0,train,4,E-
95.5810546875,2,600,3,1,4,5,2,0,3,1,400,250.0,train,2,E-
159.528970718,4,600,1,1,4,5,2,0,3,1,400,250.0,train,4,E-
159.5890522,2,600,3,1,4,5,2,0,3,1,400,250.0,train,2,E-
95.6201553345,3,600,5,1,4,5,2,0,3,1,400,250.0,train,3,E-
207.488059998,4,600,1,1,4,5,2,0,3,1,400,250.0,train,4,E-
255.578041077,3,600,5,1,4,5,2,0,3,1,400,250.0,train,3,E-
111.061096191,5,600,0,1,4,5,2,0,3,1,400,250.0,train,5,E-
63.7190341949,0,600,2,1,4,5,2,0,3,1,400,250.0,train,0,E-
63.2510185242,0,600,2,1,4,5,2,0,3,1,400,250.0,train,0,E-
238.977909088,3,600,5,1,4,5,2,0,3,1,400,250.0,train,3,E-
495.219945908,3,600,5,1,4,5,2,0,3,1,400,250.0,train,3,E-
415.101051331,1,600,4,1,4,5,2,0,3,1,400,250.0,train,1,E-
79.2391300201,2,600,3,1,4,5,2,0,3,1,400,250.0,train,2,E-
30.7130813599,1,600,4,1,4,5,2,0,3,1,400,250.0,train,1,E-
399.517059326,1,600,4,1,4,5,2,0,3,1,400,250.0,train,1,E-
287.619829178,4,600,1,0,4,5,2,0,3,1,400,250.0,train,3,E-
191.581964493,3,600,5,1,4,5,2,0,3,1,400,250.0,train,3,E-
206.174135208,4,600,1,1,4,5,2,0,3,1,400,250.0,train,4,E-
174.649000168,3,600,5,1,4,5,2,0,3,1,400,250.0,train,3,E-
143.69392395,5,600,0,1,4,5,2,0,3,1,400,250.0,train,5,E-
654.474973679,3,1000,4,1,1,2,4,5,0,3,0,250.0,test,3,E-
462.951898575,5,1000,2,1,1,2,4,5,0,3,0,250.0,test,5,E-
447.016000748,3,1000,4,1,1,2,4,5,0,3,0,250.0,test,3,E-
526.089906693,4,1000,3,1,1,2,4,5,0,3,0,250.0,test,4,E-
414.973974228,3,1000,4,1,1,2,4,5,0,3,0,250.0,test,3,E-
477.893829346,5,1000,2,1,1,2,4,5,0,3,0,250.0,test,5,E-
318.05896759,5,1000,2,1,1,2,4,5,0,3,0,250.0,test,5,E-
366.946935654,2,1000,0,0,1,2,4,5,0,3,0,250.0,test,3,E-
430.642127991,1,1000,1,1,1,2,4,5,0,3,0,250.0,test,1,E-
446.928024292,3,1000,4,0,1,2,4,5,0,3,0,250.0,test,2,E-
429.040908813,0,1000,5,1,1,2,4,5,0,3,0,250.0,test,0,E-
541.07093811,5,1000,2,1,1,2,4,5,0,3,0,250.0,test,5,E-
366.96600914,5,1000,2,1,1,2,4,5,0,3,0,250.0,test,5,E-
447.247028351,3,1000,4,1,1,2,4,5,0,3,0,250.0,test,3,E-
430.463075638,3,1000,4,1,1,2,4,5,0,3,0,250.0,test,3,E-
415.536880493,1,1000,1,1,1,2,4,5,0,3,0,250.0,test,1,E-
447.129011154,2,1000,0,1,1,2,4,5,0,3,0,250.0,test,2,E-
414.41822052,2,1000,0,1,1,2,4,5,0,3,0,250.0,test,2,E-
383.124113083,1,1000,1,1,1,2,4,5,0,3,0,250.0,test,1,E-
367.058038712,1,1000,1,1,1,2,4,5,0,3,0,250.0,test,1,E-
415.4920578,2,1000,0,0,1,2,4,5,0,3,0,250.0,test,1,E-
430.941104889,1,1000,1,1,1,2,4,5,0,3,0,250.0,test,1,E-
398.624897003,0,1000,5,1,1,2,4,5,0,3,0,250.0,test,0,E-
542.308807373,5,1000,2,1,1,2,4,5,0,3,0,250.0,test,5,E-
494.736909866,4,1000,3,1,1,2,4,5,0,3,0,250.0,test,4,E-
526.494979858,5,1000,2,1,1,2,4,5,0,3,0,250.0,test,5,E-
477.633953094,1,1000,1,1,1,2,4,5,0,3,0,250.0,test,1,E-
1006.17718697,4,1000,3,1,1,2,4,5,0,3,0,250.0,test,4,E-
495.584011078,1,1000,1,1,1,2,4,5,0,3,0,250.0,test,1,E-
543.49899292,2,1000,0,1,1,2,4,5,0,3,0,250.0,test,2,E-
511.064052582,3,1000,4,1,1,2,4,5,0,3,0,250.0,test,3,E-
542.382955551,5,1000,2,1,1,2,4,5,0,3,0,250.0,test,5,E-
477.159023285,5,1000,2,1,1,2,4,5,0,3,0,250.0,test,5,E-
446.624994278,1,1000,1,1,1,2,4,5,0,3,0,250.0,test,1,E-
430.975198746,0,1000,5,1,1,2,4,5,0,3,0,250.0,test,0,E-
845.611095428,4,1000,3,1,1,2,4,5,0,3,0,250.0,test,4,E-
495.557069778,4,1000,3,1,1,2,4,5,0,3,0,250.0,test,4,E-
542.908906937,2,1000,0,1,1,2,4,5,0,3,0,250.0,test,2,E-
926.769971848,5,1000,2,1,1,2,4,5,0,3,0,250.0,test,5,E-
654.309988022,2,1000,0,1,1,2,4,5,0,3,0,250.0,test,2,E-
334.621906281,1,1000,1,1,1,2,4,5,0,3,0,250.0,test,1,E-
542.7339077,5,1000,2,1,1,2,4,5,0,3,0,250.0,test,5,E-
462.236881256,2,1000,0,1,1,2,4,5,0,3,0,250.0,test,2,E-
478.358030319,4,1000,3,0,1,2,4,5,0,3,0,250.0,test,5,E-
446.319818497,1,1000,1,1,1,2,4,5,0,3,0,250.0,test,1,E-
526.345968246,2,1000,0,1,1,2,4,5,0,3,0,250.0,test,2,E-
589.900970459,5,1000,2,1,1,2,4,5,0,3,0,250.0,test,5,E-
511.534929276,4,1000,3,1,1,2,4,5,0,3,0,250.0,test,4,E-
477.934122086,1,1000,1,1,1,2,4,5,0,3,0,250.0,test,1,E-
879.024982452,3,1000,4,1,1,2,4,5,0,3,0,250.0,test,3,E-
510.396003723,2,1000,0,1,1,2,4,5,0,3,0,250.0,test,2,E-
303.028106689,1,1000,1,1,1,2,4,5,0,3,0,250.0,test,1,E-
350.174188614,0,1000,5,1,1,2,4,5,0,3,0,250.0,test,0,E-
430.951833725,0,1000,5,1,1,2,4,5,0,3,0,250.0,test,0,E-
383.586883545,1,1000,1,1,1,2,4,5,0,3,0,250.0,test,1,E-
494.54498291,5,1000,2,1,1,2,4,5,0,3,0,250.0,test,5,E-
431.111097336,1,1000,1,1,1,2,4,5,0,3,0,250.0,test,1,E-
334.558963776,0,1000,5,1,1,2,4,5,0,3,0,250.0,test,0,E-
349.805116653,0,1000,5,1,1,2,4,5,0,3,0,250.0,test,0,E-
463.010072708,2,1000,0,1,1,2,4,5,0,3,0,250.0,test,2,E-
350.17991066,0,1000,5,1,1,2,4,5,0,3,0,250.0,test,0,E-
511.10291481,4,1000,3,1,1,2,4,5,0,3,0,250.0,test,4,E-
415.037155151,3,1000,4,1,1,2,4,5,0,3,0,250.0,test,3,E-
415.065050125,1,1000,1,1,1,2,4,5,0,3,0,250.0,test,1,E-
527.056932449,4,1000,3,1,1,2,4,5,0,3,0,250.0,test,4,E-
415.091991425,3,1000,4,1,1,2,4,5,0,3,0,250.0,test,3,E-
767.019987106,3,1000,4,1,1,2,4,5,0,3,0,250.0,test,3,E-
398.526906967,3,1000,4,1,1,2,4,5,0,3,0,250.0,test,3,E-
445.251941681,5,1000,2,1,1,2,4,5,0,3,0,250.0,test,5,E-
430.332899094,5,1000,2,1,1,2,4,5,0,3,0,250.0,test,5,E-
511.022806168,3,1000,4,1,1,2,4,5,0,3,0,250.0,test,3,E-
396.991968155,2,1000,0,0,1,2,4,5,0,3,0,250.0,test,4,E-
333.37521553,1,1000,1,1,1,2,4,5,0,3,0,250.0,test,1,E-
399.67417717,1,1000,1,1,1,2,4,5,0,3,0,250.0,test,1,E-
431.571960449,0,1000,5,1,1,2,4,5,0,3,0,250.0,test,0,E-
367.552042007,0,1000,5,1,1,2,4,5,0,3,0,250.0,test,0,E-
448.642015457,2,1000,0,1,1,2,4,5,0,3,0,250.0,test,2,E-
479.600906372,1,1000,1,1,1,2,4,5,0,3,0,250.0,test,1,E-
735.605955124,4,1000,3,1,1,2,4,5,0,3,0,250.0,test,4,E-
543.552875519,4,1000,3,1,1,2,4,5,0,3,0,250.0,test,4,E-
478.510141373,5,1000,2,1,1,2,4,5,0,3,0,250.0,test,5,E-
463.538885117,4,1000,3,1,1,2,4,5,0,3,0,250.0,test,4,E-
638.320922852,2,1000,0,1,1,2,4,5,0,3,0,250.0,test,2,E-
462.218046188,5,1000,2,1,1,2,4,5,0,3,0,250.0,test,5,E-
655.034065247,3,1000,4,1,1,2,4,5,0,3,0,250.0,test,3,E-
462.997913361,1,1000,1,1,1,2,4,5,0,3,0,250.0,test,1,E-
430.29999733,2,1000,0,1,1,2,4,5,0,3,0,250.0,test,2,E-
590.78001976,3,1000,4,1,1,2,4,5,0,3,0,250.0,test,3,E-
446.316957474,1,1000,1,1,1,2,4,5,0,3,0,250.0,test,1,E-
351.053953171,1,1000,1,1,1,2,4,5,0,3,0,250.0,test,1,E-
494.816064835,2,1000,0,1,1,2,4,5,0,3,0,250.0,test,2,E-
494.540929794,1,1000,1,1,1,2,4,5,0,3,0,250.0,test,1,E-
334.97095108,1,1000,1,1,1,2,4,5,0,3,0,250.0,test,1,E-
798.766851425,5,1000,2,1,1,2,4,5,0,3,0,250.0,test,5,E-
414.961099625,1,1000,1,1,1,2,4,5,0,3,0,250.0,test,1,E-
398.798942566,0,1000,5,1,1,2,4,5,0,3,0,250.0,test,0,E-
367.247819901,1,1000,1,1,1,2,4,5,0,3,0,250.0,test,1,E-
335.135936737,1,1000,1,1,1,2,4,5,0,3,0,250.0,test,1,E-
719.573020935,3,1000,4,1,1,2,4,5,0,3,0,250.0,test,3,E-
383.51893425,1,1000,1,1,1,2,4,5,0,3,0,250.0,test,1,E-
510.885953903,5,1000,2,1,1,2,4,5,0,3,0,250.0,test,5,E-
398.995161057,5,1000,2,1,1,2,4,5,0,3,0,250.0,test,5,E-
382.019042969,5,1000,2,1,1,2,4,5,0,3,0,250.0,test,5,E-
495.094060898,2,1000,0,0,1,2,4,5,0,3,0,250.0,test,1,E-
319.581031799,1,1000,1,1,1,2,4,5,0,3,0,250.0,test,1,E-
398.629188538,0,1000,5,1,1,2,4,5,0,3,0,250.0,test,0,E-
382.618904114,0,1000,5,1,1,2,4,5,0,3,0,250.0,test,0,E-
414.114952087,2,1000,0,1,1,2,4,5,0,3,0,250.0,test,2,E-
397.816896439,0,1000,5,1,1,2,4,5,0,3,0,250.0,test,0,E-
430.217981339,5,1000,2,1,1,2,4,5,0,3,0,250.0,test,5,E-
445.404052734,5,1000,2,1,1,2,4,5,0,3,0,250.0,test,5,E-
397.442102432,3,1000,4,0,1,2,4,5,0,3,0,250.0,test,2,E-
574.990034103,4,1000,3,1,1,2,4,5,0,3,0,250.0,test,4,E-
415.58098793,1,1000,1,1,1,2,4,5,0,3,0,250.0,test,1,E-
494.080066681,4,1000,3,1,1,2,4,5,0,3,0,250.0,test,4,E-
382.943868637,5,1000,2,1,1,2,4,5,0,3,0,250.0,test,5,E-
431.090831757,5,1000,2,1,1,2,4,5,0,3,0,250.0,test,5,E-
398.892879486,1,1000,1,1,1,2,4,5,0,3,0,250.0,test,1,E-
335.108041763,0,1000,5,1,1,2,4,5,0,3,0,250.0,test,0,E-
382.781982422,1,1000,1,1,1,2,4,5,0,3,0,250.0,test,1,E-
382.974147797,3,1000,4,0,1,2,4,5,0,3,0,250.0,test,5,E-
446.229219437,5,1000,2,1,1,2,4,5,0,3,0,250.0,test,5,E-
527.032136917,1,1000,1,1,1,2,4,5,0,3,0,250.0,test,1,E-
447.568893433,1,1000,1,1,1,2,4,5,0,3,0,250.0,test,1,E-
558.310031891,3,1000,4,1,1,2,4,5,0,3,0,250.0,test,3,E-
463.492870331,3,1000,4,1,1,2,4,5,0,3,0,250.0,test,3,E-
495.532989502,4,1000,3,1,1,2,4,5,0,3,0,250.0,test,4,E-
447.041034698,5,1000,2,1,1,2,4,5,0,3,0,250.0,test,5,E-
447.563886642,5,1000,2,1,1,2,4,5,0,3,0,250.0,test,5,E-
367.66910553,5,1000,2,1,1,2,4,5,0,3,0,250.0,test,5,E-
446.027994156,1,1000,1,1,1,2,4,5,0,3,0,250.0,test,1,E-
559.038162231,2,1000,0,1,1,2,4,5,0,3,0,250.0,test,2,E-
511.23714447,5,1000,2,1,1,2,4,5,0,3,0,250.0,test,5,E-
479.090929031,4,1000,3,1,1,2,4,5,0,3,0,250.0,test,4,E-
414.965867996,0,1000,5,1,1,2,4,5,0,3,0,250.0,test,0,E-
590.702056885,4,1000,3,1,1,2,4,5,0,3,0,250.0,test,4,E-
431.179046631,5,1000,2,1,1,2,4,5,0,3,0,250.0,test,5,E-
383.143186569,0,1000,5,1,1,2,4,5,0,3,0,250.0,test,0,E-
543.128967285,4,1000,3,1,1,2,4,5,0,3,0,250.0,test,4,E-
575.133085251,4,1000,3,1,1,2,4,5,0,3,0,250.0,test,4,E-
511.022090912,2,1000,0,1,1,2,4,5,0,3,0,250.0,test,2,E-
494.261026382,4,1000,3,1,1,2,4,5,0,3,0,250.0,test,4,E-
446.917057037,5,1000,2,1,1,2,4,5,0,3,0,250.0,test,5,E-
511.036872864,4,1000,3,1,1,2,4,5,0,3,0,250.0,test,4,E-
638.575077057,4,1000,3,1,1,2,4,5,0,3,0,250.0,test,4,E-
415.542125702,0,1000,5,1,1,2,4,5,0,3,0,250.0,test,0,E-
414.26897049,0,1000,5,1,1,2,4,5,0,3,0,250.0,test,0,E-
382.939815521,2,1000,0,0,1,2,4,5,0,3,0,250.0,test,4,E-
415.605068207,0,1000,5,1,1,2,4,5,0,3,0,250.0,test,0,E-
575.207948685,4,1000,3,1,1,2,4,5,0,3,0,250.0,test,4,E-
383.573055267,2,1000,0,0,1,2,4,5,0,3,0,250.0,test,4,E-
734.096050262,5,1000,2,1,1,2,4,5,0,3,0,250.0,test,5,E-
413.753986359,0,1000,5,1,1,2,4,5,0,3,0,250.0,test,0,E-
462.146997452,3,1000,4,1,1,2,4,5,0,3,0,250.0,test,3,E-
383.053064346,0,1000,5,1,1,2,4,5,0,3,0,250.0,test,0,E-
510.148048401,3,1000,4,1,1,2,4,5,0,3,0,250.0,test,3,E-
510.933876038,1,1000,1,1,1,2,4,5,0,3,0,250.0,test,1,E-
479.557991028,5,1000,2,1,1,2,4,5,0,3,0,250.0,test,5,E-
430.904150009,1,1000,1,1,1,2,4,5,0,3,0,250.0,test,1,E-
639.580965042,4,1000,3,1,1,2,4,5,0,3,0,250.0,test,4,E-
430.88889122,1,1000,1,1,1,2,4,5,0,3,0,250.0,test,1,E-
398.413896561,0,1000,5,1,1,2,4,5,0,3,0,250.0,test,0,E-
607.393980026,2,1000,0,1,1,2,4,5,0,3,0,250.0,test,2,E-
542.266130447,3,1000,4,1,1,2,4,5,0,3,0,250.0,test,3,E-
398.11706543,1,1000,1,1,1,2,4,5,0,3,0,250.0,test,1,E-
463.623046875,5,1000,2,1,1,2,4,5,0,3,0,250.0,test,5,E-
399.588108063,0,1000,5,1,1,2,4,5,0,3,0,250.0,test,0,E-
430.072784424,1,1000,1,1,1,2,4,5,0,3,0,250.0,test,1,E-
638.222932816,4,1000,3,1,1,2,4,5,0,3,0,250.0,test,4,E-
573.535919189,3,1000,4,1,1,2,4,5,0,3,0,250.0,test,3,E-
686.423063278,5,1000,2,1,1,2,4,5,0,3,0,250.0,test,5,E-
430.825948715,3,1000,4,1,1,2,4,5,0,3,0,250.0,test,3,E-
367.560863495,0,1000,5,1,1,2,4,5,0,3,0,250.0,test,0,E-
622.683048248,4,1000,3,1,1,2,4,5,0,3,0,250.0,test,4,E-
398.390054703,0,1000,5,1,1,2,4,5,0,3,0,250.0,test,0,E-
382.528066635,0,1000,5,1,1,2,4,5,0,3,0,250.0,test,0,E-
591.595888138,2,1000,0,1,1,2,4,5,0,3,0,250.0,test,2,E-
478.48200798,5,1000,2,1,1,2,4,5,0,3,0,250.0,test,5,E-
415.553092957,5,1000,2,1,1,2,4,5,0,3,0,250.0,test,5,E-
366.391897202,5,1000,2,1,1,2,4,5,0,3,0,250.0,test,5,E-
527.595996857,3,1000,4,1,1,2,4,5,0,3,0,250.0,test,3,E-
350.533008575,5,1000,2,1,1,2,4,5,0,3,0,250.0,test,5,E-
430.526018143,3,1000,4,0,1,2,4,5,0,3,0,250.0,test,4,E-
414.306163788,5,1000,2,1,1,2,4,5,0,3,0,250.0,test,5,E-
494.975090027,3,1000,4,1,1,2,4,5,0,3,0,250.0,test,3,E-
415.562868118,1,1000,1,1,1,2,4,5,0,3,0,250.0,test,1,E-
398.970127106,4,1000,3,0,1,2,4,5,0,3,0,250.0,test,5,E-
397.241830826,0,1000,5,1,1,2,4,5,0,3,0,250.0,test,0,E-
542.030096054,2,1000,0,1,1,2,4,5,0,3,0,250.0,test,2,E-
397.797822952,0,1000,5,1,1,2,4,5,0,3,0,250.0,test,0,E-
558.733940125,5,1000,2,1,1,2,4,5,0,3,0,250.0,test,5,E-
463.155984879,1,1000,1,1,1,2,4,5,0,3,0,250.0,test,1,E-
367.009878159,1,1000,1,1,1,2,4,5,0,3,0,250.0,test,1,E-
606.827974319,3,1000,4,1,1,2,4,5,0,3,0,250.0,test,3,E-
381.834030151,1,1000,1,1,1,2,4,5,0,3,0,250.0,test,1,E-
575.45208931,2,1000,0,1,1,2,4,5,0,3,0,250.0,test,2,E-
413.35105896,2,1000,0,1,1,2,4,5,0,3,0,250.0,test,2,E-
430.923938751,3,1000,4,1,1,2,4,5,0,3,0,250.0,test,3,E-
446.964979172,2,1000,0,1,1,2,4,5,0,3,0,250.0,test,2,E-
399.588823318,0,1000,5,1,1,2,4,5,0,3,0,250.0,test,0,E-
334.030866623,1,1000,1,1,1,2,4,5,0,3,0,250.0,test,1,E-
479.555130005,5,1000,2,1,1,2,4,5,0,3,0,250.0,test,5,E-
351.068973541,1,1000,1,1,1,2,4,5,0,3,0,250.0,test,1,E-
559.133768082,3,1000,4,1,1,2,4,5,0,3,0,250.0,test,3,E-
334.633111954,3,1000,4,1,1,2,4,5,0,3,0,250.0,test,3,E-
462.538957596,4,1000,3,1,1,2,4,5,0,3,0,250.0,test,4,E-
398.795127869,1,1000,1,1,1,2,4,5,0,3,0,250.0,test,1,E-
431.073188782,3,1000,4,0,1,2,4,5,0,3,0,250.0,test,2,E-
414.737939835,3,1000,4,1,1,2,4,5,0,3,0,250.0,test,3,E-
365.783214569,1,1000,1,1,1,2,4,5,0,3,0,250.0,test,1,E-
398.621082306,1,1000,1,1,1,2,4,5,0,3,0,250.0,test,1,E-
366.750001907,2,1000,0,1,1,2,4,5,0,3,0,250.0,test,2,E-
751.563072205,4,1000,3,1,1,2,4,5,0,3,0,250.0,test,4,E-
415.060043335,0,1000,5,1,1,2,4,5,0,3,0,250.0,test,0,E-
446.891069412,2,1000,0,1,1,2,4,5,0,3,0,250.0,test,2,E-
446.964979172,3,1000,4,1,1,2,4,5,0,3,0,250.0,test,3,E-
398.218870163,3,1000,4,1,1,2,4,5,0,3,0,250.0,test,3,E-
303.276062012,3,1000,4,1,1,2,4,5,0,3,0,250.0,test,3,E-
399.067163467,0,1000,5,1,1,2,4,5,0,3,0,250.0,test,0,E-
415.586948395,3,1000,4,1,1,2,4,5,0,3,0,250.0,test,3,E-
526.962041855,5,1000,2,1,1,2,4,5,0,3,0,250.0,test,5,E-
430.965900421,1,1000,1,1,1,2,4,5,0,3,0,250.0,test,1,E-
366.983175278,0,1000,5,1,1,2,4,5,0,3,0,250.0,test,0,E-
431.601047516,1,1000,1,1,1,2,4,5,0,3,0,250.0,test,1,E-
367.10691452,1,1000,1,1,1,2,4,5,0,3,0,250.0,test,1,E-
318.821907043,1,1000,1,1,1,2,4,5,0,3,0,250.0,test,1,E-
286.71002388,1,1000,1,1,1,2,4,5,0,3,0,250.0,test,1,E-
334.995985031,0,1000,5,1,1,2,4,5,0,3,0,250.0,test,0,E-
350.924968719,3,1000,4,1,1,2,4,5,0,3,0,250.0,test,3,E-
1469.88105774,0,1000,5,1,1,2,4,5,0,3,0,250.0,test,0,E-
366.866111755,0,1000,5,1,1,2,4,5,0,3,0,250.0,test,0,E-
301.005125046,1,1000,1,1,1,2,4,5,0,3,0,250.0,test,1,E-
413.327932358,1,1000,1,1,1,2,4,5,0,3,0,250.0,test,1,E-
301.993131638,2,1000,0,0,1,2,4,5,0,3,0,250.0,test,1,E-
429.828166962,1,1000,1,1,1,2,4,5,0,3,0,250.0,test,1,E-
510.984897614,4,1000,3,1,1,2,4,5,0,3,0,250.0,test,4,E-
479.779005051,5,1000,2,1,1,2,4,5,0,3,0,250.0,test,5,E-
447.020053864,1,1000,1,1,1,2,4,5,0,3,0,250.0,test,1,E-
430.864095688,1,1000,1,1,1,2,4,5,0,3,0,250.0,test,1,E-
415.577888489,0,1000,5,1,1,2,4,5,0,3,0,250.0,test,0,E-
318.271160126,0,1000,5,1,1,2,4,5,0,3,0,250.0,test,0,E-
510.284900665,3,1000,4,1,1,2,4,5,0,3,0,250.0,test,3,E-
479.140996933,4,1000,3,1,1,2,4,5,0,3,0,250.0,test,4,E-
463.150024414,5,1000,2,1,1,2,4,5,0,3,0,250.0,test,5,E-
591.599225998,4,1000,3,1,1,2,4,5,0,3,0,250.0,test,4,E-
462.44096756,4,1000,3,1,1,2,4,5,0,3,0,250.0,test,4,E-
383.550167084,0,1000,5,1,1,2,4,5,0,3,0,250.0,test,0,E-
463.013887405,4,1000,3,1,1,2,4,5,0,3,0,250.0,test,4,E-
399.562120438,3,1000,4,1,1,2,4,5,0,3,0,250.0,test,3,E-
479.582071304,1,1000,1,1,1,2,4,5,0,3,0,250.0,test,1,E-
