RT,correct_response,ms-prestimblank,curstim,correct,SRmap_1,SRmap_0,SRmap_3,SRmap_2,SRmap_5,SRmap_4,ms-precue,ntrials,type,response,condition
4095.67689896,2,1000,1,1,2,5,0,1,3,4,0,250.0,train,2,H-
3232.20586777,3,1000,5,1,2,5,0,1,3,4,0,250.0,train,3,H-
2096.27509117,5,1000,0,1,2,5,0,1,3,4,0,250.0,train,5,H-
2192.30794907,5,1000,0,1,2,5,0,1,3,4,0,250.0,train,5,H-
1920.27306557,0,1000,3,1,2,5,0,1,3,4,0,250.0,train,0,H-
1840.25192261,3,1000,5,1,2,5,0,1,3,4,0,250.0,train,3,H-
1200.22702217,1,1000,2,1,2,5,0,1,3,4,0,250.0,train,1,H-
1360.31103134,3,1000,5,0,2,5,0,1,3,4,0,250.0,train,5,H-
1024.29294586,0,1000,3,1,2,5,0,1,3,4,0,250.0,train,0,H-
704.372882843,0,1000,3,1,2,5,0,1,3,4,0,250.0,train,0,H-
672.372817993,1,1000,2,1,2,5,0,1,3,4,0,250.0,train,1,H-
865.067958832,1,1000,2,1,2,5,0,1,3,4,0,250.0,train,1,H-
960.378885269,2,1000,1,1,2,5,0,1,3,4,0,250.0,train,2,H-
959.909200668,5,1000,0,1,2,5,0,1,3,4,0,250.0,train,5,H-
703.959941864,1,1000,2,1,2,5,0,1,3,4,0,250.0,train,1,H-
848.389863968,2,1000,1,1,2,5,0,1,3,4,0,250.0,train,2,H-
672.391176224,0,1000,3,1,2,5,0,1,3,4,0,250.0,train,0,H-
848.252058029,1,1000,2,1,2,5,0,1,3,4,0,250.0,train,1,H-
896.002054214,2,1000,1,1,2,5,0,1,3,4,0,250.0,train,2,H-
800.301074982,2,1000,1,1,2,5,0,1,3,4,0,250.0,train,2,H-
656.42118454,1,1000,2,1,2,5,0,1,3,4,0,250.0,train,1,H-
1040.30585289,4,1000,4,1,2,5,0,1,3,4,0,250.0,train,4,H-
400.281906128,4,1000,4,1,2,5,0,1,3,4,0,250.0,train,4,H-
1088.09995651,2,1000,1,1,2,5,0,1,3,4,0,250.0,train,2,H-
1263.68904114,5,1000,0,1,2,5,0,1,3,4,0,250.0,train,5,H-
1184.21006203,3,1000,5,1,2,5,0,1,3,4,0,250.0,train,3,H-
847.985982895,2,1000,1,1,2,5,0,1,3,4,0,250.0,train,2,H-
656.335115433,0,1000,3,1,2,5,0,1,3,4,0,250.0,train,0,H-
944.280862808,5,1000,0,1,2,5,0,1,3,4,0,250.0,train,5,H-
1200.26302338,3,1000,5,1,2,5,0,1,3,4,0,250.0,train,3,H-
400.345087051,2,1000,1,1,2,5,0,1,3,4,0,250.0,train,2,H-
944.205999374,5,1000,0,1,2,5,0,1,3,4,0,250.0,train,5,H-
832.304954529,0,1000,3,1,2,5,0,1,3,4,0,250.0,train,0,H-
736.52100563,4,1000,4,1,2,5,0,1,3,4,0,250.0,train,4,H-
880.437135696,0,1000,3,1,2,5,0,1,3,4,0,250.0,train,0,H-
960.088968277,1,1000,2,1,2,5,0,1,3,4,0,250.0,train,1,H-
944.365024567,4,1000,4,1,2,5,0,1,3,4,0,250.0,train,4,H-
656.450986862,4,1000,4,1,2,5,0,1,3,4,0,250.0,train,4,H-
864.447116852,5,1000,0,1,2,5,0,1,3,4,0,250.0,train,5,H-
384.360074997,3,1000,5,1,2,5,0,1,3,4,0,250.0,train,3,H-
656.433820724,4,1000,4,1,2,5,0,1,3,4,0,250.0,train,4,H-
528.329849243,3,1000,5,1,2,5,0,1,3,4,0,250.0,train,3,H-
528.259038925,0,1000,3,1,2,5,0,1,3,4,0,250.0,train,0,H-
624.137878418,3,1000,5,1,2,5,0,1,3,4,0,250.0,train,3,H-
864.4490242,3,1000,5,1,2,5,0,1,3,4,0,250.0,train,3,H-
1200.92511177,2,1000,1,1,2,5,0,1,3,4,0,250.0,train,2,H-
1072.3490715,5,1000,0,1,2,5,0,1,3,4,0,250.0,train,5,H-
496.387958527,3,1000,5,1,2,5,0,1,3,4,0,250.0,train,3,H-
1088.54293823,2,1000,1,1,2,5,0,1,3,4,0,250.0,train,2,H-
752.434968948,4,1000,4,1,2,5,0,1,3,4,0,250.0,train,4,H-
784.335851669,3,1000,5,1,2,5,0,1,3,4,0,250.0,train,3,H-
608.084201813,0,1000,3,1,2,5,0,1,3,4,0,250.0,train,0,H-
480.359077454,1,1000,2,1,2,5,0,1,3,4,0,250.0,train,1,H-
480.375051498,3,1000,5,1,2,5,0,1,3,4,0,250.0,train,3,H-
832.495927811,2,1000,1,1,2,5,0,1,3,4,0,250.0,train,2,H-
1056.39696121,2,1000,1,1,2,5,0,1,3,4,0,250.0,train,2,H-
560.024023056,5,1000,0,0,2,5,0,1,3,4,0,250.0,train,3,H-
800.411939621,3,1000,5,1,2,5,0,1,3,4,0,250.0,train,3,H-
832.339048386,2,1000,1,1,2,5,0,1,3,4,0,250.0,train,2,H-
1216.07613564,4,1000,4,1,2,5,0,1,3,4,0,250.0,train,4,H-
832.299947739,0,1000,3,1,2,5,0,1,3,4,0,250.0,train,0,H-
576.409101486,2,1000,1,1,2,5,0,1,3,4,0,250.0,train,2,H-
624.093055725,0,1000,3,1,2,5,0,1,3,4,0,250.0,train,0,H-
624.361038208,0,1000,3,1,2,5,0,1,3,4,0,250.0,train,0,H-
720.363855362,1,1000,2,1,2,5,0,1,3,4,0,250.0,train,1,H-
656.013965607,4,1000,4,1,2,5,0,1,3,4,0,250.0,train,4,H-
1007.97700882,5,1000,0,1,2,5,0,1,3,4,0,250.0,train,5,H-
736.855983734,4,1000,4,1,2,5,0,1,3,4,0,250.0,train,4,H-
928.765058517,5,1000,0,1,2,5,0,1,3,4,0,250.0,train,5,H-
623.743057251,4,1000,4,1,2,5,0,1,3,4,0,250.0,train,4,H-
656.107187271,1,1000,2,1,2,5,0,1,3,4,0,250.0,train,1,H-
704.325199127,5,1000,0,1,2,5,0,1,3,4,0,250.0,train,5,H-
576.454877853,0,1000,3,1,2,5,0,1,3,4,0,250.0,train,0,H-
464.451789856,0,1000,3,1,2,5,0,1,3,4,0,250.0,train,0,H-
608.330011368,4,1000,4,1,2,5,0,1,3,4,0,250.0,train,4,H-
720.454931259,5,1000,0,1,2,5,0,1,3,4,0,250.0,train,5,H-
720.468997955,0,1000,3,1,2,5,0,1,3,4,0,250.0,train,0,H-
576.330900192,1,1000,2,1,2,5,0,1,3,4,0,250.0,train,1,H-
512.367010117,1,1000,2,1,2,5,0,1,3,4,0,250.0,train,1,H-
416.42999649,1,1000,2,1,2,5,0,1,3,4,0,250.0,train,1,H-
688.547134399,3,1000,5,1,2,5,0,1,3,4,0,250.0,train,3,H-
944.561004639,2,1000,1,1,2,5,0,1,3,4,0,250.0,train,2,H-
592.954158783,1,1000,2,1,2,5,0,1,3,4,0,250.0,train,1,H-
928.201198578,3,1000,5,1,2,5,0,1,3,4,0,250.0,train,3,H-
400.416851044,3,1000,5,1,2,5,0,1,3,4,0,250.0,train,3,H-
592.390060425,4,1000,4,1,2,5,0,1,3,4,0,250.0,train,4,H-
736.511945724,5,1000,0,1,2,5,0,1,3,4,0,250.0,train,5,H-
576.454877853,5,1000,0,1,2,5,0,1,3,4,0,250.0,train,5,H-
1152.28700638,0,1000,3,1,2,5,0,1,3,4,0,250.0,train,0,H-
768.311023712,4,1000,4,1,2,5,0,1,3,4,0,250.0,train,4,H-
640.422105789,5,1000,0,1,2,5,0,1,3,4,0,250.0,train,5,H-
672.554969788,1,1000,2,1,2,5,0,1,3,4,0,250.0,train,1,H-
624.480009079,5,1000,0,1,2,5,0,1,3,4,0,250.0,train,5,H-
480.427026749,0,1000,3,1,2,5,0,1,3,4,0,250.0,train,0,H-
608.487129211,5,1000,0,1,2,5,0,1,3,4,0,250.0,train,5,H-
656.533002853,3,1000,5,1,2,5,0,1,3,4,0,250.0,train,3,H-
576.357841492,1,1000,2,1,2,5,0,1,3,4,0,250.0,train,1,H-
752.374172211,5,1000,0,1,2,5,0,1,3,4,0,250.0,train,5,H-
976.308107376,0,1000,3,1,2,5,0,1,3,4,0,250.0,train,0,H-
544.385910034,1,1000,2,1,2,5,0,1,3,4,0,250.0,train,1,H-
592.373132706,3,1000,5,1,2,5,0,1,3,4,0,250.0,train,3,H-
1104.76398468,3,1000,5,1,2,5,0,1,3,4,0,250.0,train,3,H-
480.391979218,4,1000,4,1,2,5,0,1,3,4,0,250.0,train,4,H-
544.388055801,1,1000,2,1,2,5,0,1,3,4,0,250.0,train,1,H-
656.357049942,4,1000,4,1,2,5,0,1,3,4,0,250.0,train,4,H-
400.434970856,0,1000,3,1,2,5,0,1,3,4,0,250.0,train,0,H-
560.441970825,1,1000,2,1,2,5,0,1,3,4,0,250.0,train,1,H-
640.502929688,5,1000,0,1,2,5,0,1,3,4,0,250.0,train,5,H-
736.387968063,3,1000,5,1,2,5,0,1,3,4,0,250.0,train,3,H-
560.092926025,1,1000,2,1,2,5,0,1,3,4,0,250.0,train,1,H-
784.332990646,5,1000,0,1,2,5,0,1,3,4,0,250.0,train,5,H-
944.324016571,2,1000,1,1,2,5,0,1,3,4,0,250.0,train,2,H-
512.289047241,3,1000,5,1,2,5,0,1,3,4,0,250.0,train,3,H-
480.343103409,3,1000,5,1,2,5,0,1,3,4,0,250.0,train,3,H-
544.251918793,1,1000,2,1,2,5,0,1,3,4,0,250.0,train,1,H-
528.402090073,3,1000,5,1,2,5,0,1,3,4,0,250.0,train,3,H-
560.401916504,4,1000,4,1,2,5,0,1,3,4,0,250.0,train,4,H-
688.491821289,4,1000,4,1,2,5,0,1,3,4,0,250.0,train,4,H-
528.226852417,0,1000,3,1,2,5,0,1,3,4,0,250.0,train,0,H-
864.706039429,1,1000,2,1,2,5,0,1,3,4,0,250.0,train,1,H-
832.361936569,2,1000,1,1,2,5,0,1,3,4,0,250.0,train,2,H-
688.076972961,5,1000,0,1,2,5,0,1,3,4,0,250.0,train,5,H-
768.549919128,5,1000,0,1,2,5,0,1,3,4,0,250.0,train,5,H-
512.368917465,1,1000,2,1,2,5,0,1,3,4,0,250.0,train,1,H-
368.269205093,1,1000,2,1,2,5,0,1,3,4,0,250.0,train,1,H-
496.324062347,5,1000,0,1,2,5,0,1,3,4,0,250.0,train,5,H-
960.453033447,0,1000,3,1,2,5,0,1,3,4,0,250.0,train,0,H-
528.418064117,2,1000,1,0,2,5,0,1,3,4,0,250.0,train,1,H-
880.31411171,3,1000,5,1,2,5,0,1,3,4,0,250.0,train,3,H-
608.288049698,5,1000,0,1,2,5,0,1,3,4,0,250.0,train,5,H-
832.388162613,2,1000,1,1,2,5,0,1,3,4,0,250.0,train,2,H-
352.429866791,0,1000,3,1,2,5,0,1,3,4,0,250.0,train,0,H-
816.461086273,3,1000,5,1,2,5,0,1,3,4,0,250.0,train,3,H-
592.436075211,0,1000,3,1,2,5,0,1,3,4,0,250.0,train,0,H-
896.452188492,2,1000,1,1,2,5,0,1,3,4,0,250.0,train,2,H-
384.428024292,2,1000,1,1,2,5,0,1,3,4,0,250.0,train,2,H-
432.533979416,3,1000,5,1,2,5,0,1,3,4,0,250.0,train,3,H-
752.377986908,2,1000,1,1,2,5,0,1,3,4,0,250.0,train,2,H-
352.463960648,3,1000,5,1,2,5,0,1,3,4,0,250.0,train,3,H-
672.42193222,2,1000,1,1,2,5,0,1,3,4,0,250.0,train,2,H-
560.458898544,0,1000,3,1,2,5,0,1,3,4,0,250.0,train,0,H-
640.264987946,5,1000,0,1,2,5,0,1,3,4,0,250.0,train,5,H-
560.363054276,2,1000,1,1,2,5,0,1,3,4,0,250.0,train,2,H-
608.464002609,1,1000,2,1,2,5,0,1,3,4,0,250.0,train,1,H-
560.368061066,2,1000,1,1,2,5,0,1,3,4,0,250.0,train,2,H-
656.445026398,2,1000,1,1,2,5,0,1,3,4,0,250.0,train,2,H-
448.158979416,0,1000,3,1,2,5,0,1,3,4,0,250.0,train,0,H-
528.462171555,4,1000,4,1,2,5,0,1,3,4,0,250.0,train,4,H-
1376.36590004,0,1000,3,1,2,5,0,1,3,4,0,250.0,train,0,H-
1280.39503098,5,1000,0,1,2,5,0,1,3,4,0,250.0,train,5,H-
400.374889374,1,1000,2,0,2,5,0,1,3,4,0,250.0,train,2,H-
992.372989655,1,1000,2,1,2,5,0,1,3,4,0,250.0,train,1,H-
672.310829163,4,1000,4,1,2,5,0,1,3,4,0,250.0,train,4,H-
608.440876007,4,1000,4,1,2,5,0,1,3,4,0,250.0,train,4,H-
608.355045319,1,1000,2,1,2,5,0,1,3,4,0,250.0,train,1,H-
608.426094055,4,1000,4,1,2,5,0,1,3,4,0,250.0,train,4,H-
560.360908508,4,1000,4,1,2,5,0,1,3,4,0,250.0,train,4,H-
864.333868027,3,1000,5,1,2,5,0,1,3,4,0,250.0,train,3,H-
911.781072617,0,1000,3,1,2,5,0,1,3,4,0,250.0,train,0,H-
543.305158615,0,1000,3,1,2,5,0,1,3,4,0,250.0,train,0,H-
624.732971191,1,1000,2,1,2,5,0,1,3,4,0,250.0,train,1,H-
688.068151474,0,1000,3,0,2,5,0,1,3,4,0,250.0,train,3,H-
640.321016312,4,1000,4,1,2,5,0,1,3,4,0,250.0,train,4,H-
736.475944519,3,1000,5,1,2,5,0,1,3,4,0,250.0,train,3,H-
656.461000443,5,1000,0,1,2,5,0,1,3,4,0,250.0,train,5,H-
576.419115067,4,1000,4,1,2,5,0,1,3,4,0,250.0,train,4,H-
336.431026459,5,1000,0,1,2,5,0,1,3,4,0,250.0,train,5,H-
464.445114136,4,1000,4,1,2,5,0,1,3,4,0,250.0,train,4,H-
336.472988129,5,1000,0,1,2,5,0,1,3,4,0,250.0,train,5,H-
1088.48500252,0,1000,3,1,2,5,0,1,3,4,0,250.0,train,0,H-
784.363985062,5,1000,0,1,2,5,0,1,3,4,0,250.0,train,5,H-
736.36507988,3,1000,5,1,2,5,0,1,3,4,0,250.0,train,3,H-
464.293003082,5,1000,0,1,2,5,0,1,3,4,0,250.0,train,5,H-
624.384880066,2,1000,1,1,2,5,0,1,3,4,0,250.0,train,2,H-
432.341814041,2,1000,1,1,2,5,0,1,3,4,0,250.0,train,2,H-
592.378139496,4,1000,4,1,2,5,0,1,3,4,0,250.0,train,4,H-
752.56896019,3,1000,5,1,2,5,0,1,3,4,0,250.0,train,3,H-
544.414997101,5,1000,0,1,2,5,0,1,3,4,0,250.0,train,5,H-
576.555967331,4,1000,4,1,2,5,0,1,3,4,0,250.0,train,4,H-
1056.52713776,3,1000,5,1,2,5,0,1,3,4,0,250.0,train,3,H-
688.359022141,1,1000,2,1,2,5,0,1,3,4,0,250.0,train,1,H-
512.250900269,5,1000,0,1,2,5,0,1,3,4,0,250.0,train,5,H-
624.302148819,4,1000,4,1,2,5,0,1,3,4,0,250.0,train,4,H-
800.347089767,0,1000,3,1,2,5,0,1,3,4,0,250.0,train,0,H-
543.890953064,0,1000,3,1,2,5,0,1,3,4,0,250.0,train,0,H-
480.777978897,4,1000,4,1,2,5,0,1,3,4,0,250.0,train,4,H-
576.26414299,1,1000,2,1,2,5,0,1,3,4,0,250.0,train,1,H-
431.756019592,2,1000,1,1,2,5,0,1,3,4,0,250.0,train,2,H-
927.981853485,0,1000,3,1,2,5,0,1,3,4,0,250.0,train,0,H-
575.829029083,5,1000,0,1,2,5,0,1,3,4,0,250.0,train,5,H-
575.864076614,3,1000,5,1,2,5,0,1,3,4,0,250.0,train,3,H-
351.954936981,2,1000,1,1,2,5,0,1,3,4,0,250.0,train,2,H-
559.984922409,5,1000,0,1,2,5,0,1,3,4,0,250.0,train,5,H-
624.198913574,2,1000,1,1,2,5,0,1,3,4,0,250.0,train,2,H-
591.728925705,5,1000,0,1,2,5,0,1,3,4,0,250.0,train,5,H-
639.98913765,2,1000,1,1,2,5,0,1,3,4,0,250.0,train,2,H-
464.277029037,2,1000,1,1,2,5,0,1,3,4,0,250.0,train,2,H-
480.319976807,3,1000,5,1,2,5,0,1,3,4,0,250.0,train,3,H-
447.875022888,5,1000,0,1,2,5,0,1,3,4,0,250.0,train,5,H-
432.200908661,2,1000,1,1,2,5,0,1,3,4,0,250.0,train,2,H-
560.291051865,4,1000,4,1,2,5,0,1,3,4,0,250.0,train,4,H-
368.241071701,2,1000,1,1,2,5,0,1,3,4,0,250.0,train,2,H-
480.055093765,2,1000,1,1,2,5,0,1,3,4,0,250.0,train,2,H-
368.097066879,2,1000,1,1,2,5,0,1,3,4,0,250.0,train,2,H-
287.910938263,2,1000,1,1,2,5,0,1,3,4,0,250.0,train,2,H-
591.590166092,0,1000,3,0,2,5,0,1,3,4,0,250.0,train,3,H-
512.799978256,4,1000,4,1,2,5,0,1,3,4,0,250.0,train,4,H-
607.755899429,5,1000,0,1,2,5,0,1,3,4,0,250.0,train,5,H-
463.884115219,4,1000,4,0,2,5,0,1,3,4,0,250.0,train,5,H-
912.409067154,4,1000,4,1,2,5,0,1,3,4,0,250.0,train,4,H-
384.431123734,0,1000,3,1,2,5,0,1,3,4,0,250.0,train,0,H-
560.361146927,4,1000,4,1,2,5,0,1,3,4,0,250.0,train,4,H-
415.93503952,1,1000,2,1,2,5,0,1,3,4,0,250.0,train,1,H-
767.971992493,3,1000,5,1,2,5,0,1,3,4,0,250.0,train,3,H-
527.78506279,3,1000,5,1,2,5,0,1,3,4,0,250.0,train,3,H-
336.378097534,5,1000,0,1,2,5,0,1,3,4,0,250.0,train,5,H-
640.227079391,4,1000,4,1,2,5,0,1,3,4,0,250.0,train,4,H-
432.319879532,2,1000,1,1,2,5,0,1,3,4,0,250.0,train,2,H-
560.286045074,2,1000,1,1,2,5,0,1,3,4,0,250.0,train,2,H-
560.414075851,4,1000,4,1,2,5,0,1,3,4,0,250.0,train,4,H-
560.413122177,2,1000,1,1,2,5,0,1,3,4,0,250.0,train,2,H-
688.48490715,3,1000,5,1,2,5,0,1,3,4,0,250.0,train,3,H-
576.366901398,0,1000,3,1,2,5,0,1,3,4,0,250.0,train,0,H-
464.009046555,0,1000,3,1,2,5,0,1,3,4,0,250.0,train,0,H-
528.109073639,4,1000,4,1,2,5,0,1,3,4,0,250.0,train,4,H-
432.38902092,0,1000,3,1,2,5,0,1,3,4,0,250.0,train,0,H-
512.072086334,3,1000,5,1,2,5,0,1,3,4,0,250.0,train,3,H-
528.252840042,1,1000,2,1,2,5,0,1,3,4,0,250.0,train,1,H-
624.287843704,4,1000,4,1,2,5,0,1,3,4,0,250.0,train,4,H-
1056.20002747,0,1000,3,0,2,5,0,1,3,4,0,250.0,train,3,H-
511.6751194,0,1000,3,1,2,5,0,1,3,4,0,250.0,train,0,H-
576.746940613,1,1000,2,1,2,5,0,1,3,4,0,250.0,train,1,H-
687.502145767,5,1000,0,1,2,5,0,1,3,4,0,250.0,train,5,H-
752.768993378,5,1000,0,1,2,5,0,1,3,4,0,250.0,train,5,H-
800.25601387,2,1000,1,1,2,5,0,1,3,4,0,250.0,train,2,H-
624.424934387,5,1000,0,1,2,5,0,1,3,4,0,250.0,train,5,H-
560.84394455,5,1000,0,1,2,5,0,1,3,4,0,250.0,train,5,H-
544.497013092,5,1000,0,1,2,5,0,1,3,4,0,250.0,train,5,H-
368.456125259,5,1000,0,1,2,5,0,1,3,4,0,250.0,train,5,H-
912.215948105,5,1000,0,1,2,5,0,1,3,4,0,250.0,train,5,H-
672.468900681,2,1000,1,1,2,5,0,1,3,4,0,250.0,train,2,H-
592.395067215,5,1000,0,1,2,5,0,1,3,4,0,250.0,train,5,H-
384.46688652,3,1000,5,1,2,5,0,1,3,4,0,250.0,train,3,H-
608.30616951,2,1000,1,1,2,5,0,1,3,4,0,250.0,train,2,H-
576.417922974,4,1000,4,1,2,5,0,1,3,4,0,250.0,train,4,H-
528.438091278,3,1000,5,1,2,5,0,1,3,4,0,250.0,train,3,H-
624.393939972,4,1000,4,1,2,5,0,1,3,4,0,250.0,train,4,H-
560.444831848,3,1000,5,1,2,5,0,1,3,4,0,250.0,train,3,H-
576.536178589,4,1000,4,1,2,5,0,1,3,4,0,250.0,train,4,H-
656.408071518,5,1000,0,1,2,5,0,1,3,4,0,250.0,train,5,H-
896.96598053,0,1000,4,1,2,5,1,4,3,0,0,250.0,test,0,H-
832.391023636,1,1000,3,1,2,5,1,4,3,0,0,250.0,test,1,H-
1104.31098938,4,1000,2,1,2,5,1,4,3,0,0,250.0,test,4,H-
384.259939194,3,1000,5,1,2,5,1,4,3,0,0,250.0,test,3,H-
624.522924423,3,1000,5,1,2,5,1,4,3,0,0,250.0,test,3,H-
448.445081711,1,1000,3,1,2,5,1,4,3,0,0,250.0,test,1,H-
1648.38886261,0,1000,4,1,2,5,1,4,3,0,0,250.0,test,0,H-
1456.34007454,0,1000,4,0,2,5,1,4,3,0,0,250.0,test,5,H-
976.307153702,0,1000,4,1,2,5,1,4,3,0,0,250.0,test,0,H-
960.448026657,2,1000,1,1,2,5,1,4,3,0,0,250.0,test,2,H-
1696.434021,1,1000,3,1,2,5,1,4,3,0,0,250.0,test,1,H-
1328.29880714,0,1000,4,1,2,5,1,4,3,0,0,250.0,test,0,H-
1040.39120674,5,1000,0,1,2,5,1,4,3,0,0,250.0,test,5,H-
1024.21498299,2,1000,1,1,2,5,1,4,3,0,0,250.0,test,2,H-
688.556909561,3,1000,5,1,2,5,1,4,3,0,0,250.0,test,3,H-
768.50104332,5,1000,0,1,2,5,1,4,3,0,0,250.0,test,5,H-
720.412969589,4,1000,2,1,2,5,1,4,3,0,0,250.0,test,4,H-
656.337022781,3,1000,5,1,2,5,1,4,3,0,0,250.0,test,3,H-
672.441005707,5,1000,0,1,2,5,1,4,3,0,0,250.0,test,5,H-
736.452102661,4,1000,2,1,2,5,1,4,3,0,0,250.0,test,4,H-
528.053045273,3,1000,5,1,2,5,1,4,3,0,0,250.0,test,3,H-
672.461986542,4,1000,2,1,2,5,1,4,3,0,0,250.0,test,4,H-
576.328992844,5,1000,0,1,2,5,1,4,3,0,0,250.0,test,5,H-
1008.46099854,1,1000,3,1,2,5,1,4,3,0,0,250.0,test,1,H-
816.473960876,4,1000,2,1,2,5,1,4,3,0,0,250.0,test,4,H-
1056.3929081,4,1000,2,1,2,5,1,4,3,0,0,250.0,test,4,H-
672.472000122,5,1000,0,1,2,5,1,4,3,0,0,250.0,test,5,H-
640.228033066,5,1000,0,1,2,5,1,4,3,0,0,250.0,test,5,H-
544.331073761,5,1000,0,1,2,5,1,4,3,0,0,250.0,test,5,H-
576.450824738,4,1000,2,1,2,5,1,4,3,0,0,250.0,test,4,H-
880.304098129,2,1000,1,1,2,5,1,4,3,0,0,250.0,test,2,H-
800.455093384,0,1000,4,1,2,5,1,4,3,0,0,250.0,test,0,H-
672.527074814,3,1000,5,1,2,5,1,4,3,0,0,250.0,test,3,H-
720.463037491,1,1000,3,0,2,5,1,4,3,0,0,250.0,test,0,H-
704.303979874,5,1000,0,1,2,5,1,4,3,0,0,250.0,test,5,H-
752.539157867,0,1000,4,1,2,5,1,4,3,0,0,250.0,test,0,H-
432.399988174,1,1000,3,1,2,5,1,4,3,0,0,250.0,test,1,H-
368.277072906,2,1000,1,1,2,5,1,4,3,0,0,250.0,test,2,H-
1424.36385155,0,1000,4,1,2,5,1,4,3,0,0,250.0,test,0,H-
656.199932098,0,1000,4,1,2,5,1,4,3,0,0,250.0,test,0,H-
672.386884689,5,1000,0,1,2,5,1,4,3,0,0,250.0,test,5,H-
688.362121582,5,1000,0,1,2,5,1,4,3,0,0,250.0,test,5,H-
432.366132736,3,1000,5,1,2,5,1,4,3,0,0,250.0,test,3,H-
768.512964249,2,1000,1,1,2,5,1,4,3,0,0,250.0,test,2,H-
736.423015594,0,1000,4,1,2,5,1,4,3,0,0,250.0,test,0,H-
656.484127045,3,1000,5,1,2,5,1,4,3,0,0,250.0,test,3,H-
592.554092407,5,1000,0,1,2,5,1,4,3,0,0,250.0,test,5,H-
1088.4680748,1,1000,3,1,2,5,1,4,3,0,0,250.0,test,1,H-
720.534086227,0,1000,4,1,2,5,1,4,3,0,0,250.0,test,0,H-
784.533977509,1,1000,3,1,2,5,1,4,3,0,0,250.0,test,1,H-
720.412969589,0,1000,4,0,2,5,1,4,3,0,0,250.0,test,5,H-
880.434989929,4,1000,2,1,2,5,1,4,3,0,0,250.0,test,4,H-
912.468910217,2,1000,1,1,2,5,1,4,3,0,0,250.0,test,2,H-
464.297056198,5,1000,0,1,2,5,1,4,3,0,0,250.0,test,5,H-
688.341140747,2,1000,1,1,2,5,1,4,3,0,0,250.0,test,2,H-
528.428077698,3,1000,5,1,2,5,1,4,3,0,0,250.0,test,3,H-
928.072929382,1,1000,3,1,2,5,1,4,3,0,0,250.0,test,1,H-
560.326099396,2,1000,1,1,2,5,1,4,3,0,0,250.0,test,2,H-
656.368017197,4,1000,2,0,2,5,1,4,3,0,0,250.0,test,1,H-
640.284061432,5,1000,0,1,2,5,1,4,3,0,0,250.0,test,5,H-
624.323129654,2,1000,1,1,2,5,1,4,3,0,0,250.0,test,2,H-
416.256904602,1,1000,3,1,2,5,1,4,3,0,0,250.0,test,1,H-
640.382051468,1,1000,3,1,2,5,1,4,3,0,0,250.0,test,1,H-
1248.39377403,0,1000,4,1,2,5,1,4,3,0,0,250.0,test,0,H-
656.364917755,0,1000,4,1,2,5,1,4,3,0,0,250.0,test,0,H-
448.129892349,4,1000,2,1,2,5,1,4,3,0,0,250.0,test,4,H-
672.392129898,2,1000,1,1,2,5,1,4,3,0,0,250.0,test,2,H-
560.40596962,4,1000,2,1,2,5,1,4,3,0,0,250.0,test,4,H-
688.404083252,0,1000,4,1,2,5,1,4,3,0,0,250.0,test,0,H-
528.40089798,0,1000,4,1,2,5,1,4,3,0,0,250.0,test,0,H-
544.349908829,1,1000,3,1,2,5,1,4,3,0,0,250.0,test,1,H-
624.317884445,5,1000,0,1,2,5,1,4,3,0,0,250.0,test,5,H-
768.370866776,1,1000,3,1,2,5,1,4,3,0,0,250.0,test,1,H-
640.417098999,0,1000,4,1,2,5,1,4,3,0,0,250.0,test,0,H-
992.41900444,4,1000,2,1,2,5,1,4,3,0,0,250.0,test,4,H-
768.483877182,2,1000,1,1,2,5,1,4,3,0,0,250.0,test,2,H-
640.434980392,5,1000,0,1,2,5,1,4,3,0,0,250.0,test,5,H-
464.44106102,4,1000,2,1,2,5,1,4,3,0,0,250.0,test,4,H-
672.429800034,0,1000,4,1,2,5,1,4,3,0,0,250.0,test,0,H-
736.363887787,1,1000,3,1,2,5,1,4,3,0,0,250.0,test,1,H-
640.367031097,5,1000,0,1,2,5,1,4,3,0,0,250.0,test,5,H-
448.454141617,3,1000,5,1,2,5,1,4,3,0,0,250.0,test,3,H-
624.289989471,5,1000,0,1,2,5,1,4,3,0,0,250.0,test,5,H-
736.02104187,4,1000,2,1,2,5,1,4,3,0,0,250.0,test,4,H-
560.328006744,2,1000,1,1,2,5,1,4,3,0,0,250.0,test,2,H-
609.179019928,1,1000,3,1,2,5,1,4,3,0,0,250.0,test,1,H-
864.495038986,5,1000,0,1,2,5,1,4,3,0,0,250.0,test,5,H-
576.529979706,1,1000,3,1,2,5,1,4,3,0,0,250.0,test,1,H-
576.378822327,4,1000,2,1,2,5,1,4,3,0,0,250.0,test,4,H-
544.406175613,5,1000,0,1,2,5,1,4,3,0,0,250.0,test,5,H-
496.281862259,2,1000,1,1,2,5,1,4,3,0,0,250.0,test,2,H-
512.493848801,2,1000,1,1,2,5,1,4,3,0,0,250.0,test,2,H-
576.751947403,5,1000,0,1,2,5,1,4,3,0,0,250.0,test,5,H-
624.326944351,0,1000,4,1,2,5,1,4,3,0,0,250.0,test,0,H-
560.420036316,1,1000,3,1,2,5,1,4,3,0,0,250.0,test,1,H-
720.405101776,0,1000,4,1,2,5,1,4,3,0,0,250.0,test,0,H-
592.485189438,2,1000,1,1,2,5,1,4,3,0,0,250.0,test,2,H-
544.236898422,1,1000,3,1,2,5,1,4,3,0,0,250.0,test,1,H-
640.403032303,5,1000,0,1,2,5,1,4,3,0,0,250.0,test,5,H-
656.433105469,5,1000,0,1,2,5,1,4,3,0,0,250.0,test,5,H-
544.206142426,4,1000,2,1,2,5,1,4,3,0,0,250.0,test,4,H-
720.535993576,0,1000,4,1,2,5,1,4,3,0,0,250.0,test,0,H-
608.175039291,1,1000,3,1,2,5,1,4,3,0,0,250.0,test,1,H-
688.500165939,0,1000,4,1,2,5,1,4,3,0,0,250.0,test,0,H-
560.319185257,3,1000,5,1,2,5,1,4,3,0,0,250.0,test,3,H-
512.521982193,4,1000,2,1,2,5,1,4,3,0,0,250.0,test,4,H-
512.236118317,2,1000,1,1,2,5,1,4,3,0,0,250.0,test,2,H-
512.330055237,2,1000,1,1,2,5,1,4,3,0,0,250.0,test,2,H-
528.470039368,3,1000,5,1,2,5,1,4,3,0,0,250.0,test,3,H-
1104.26306725,4,1000,2,1,2,5,1,4,3,0,0,250.0,test,4,H-
656.493186951,1,1000,3,1,2,5,1,4,3,0,0,250.0,test,1,H-
528.208017349,4,1000,2,1,2,5,1,4,3,0,0,250.0,test,4,H-
656.374931335,5,1000,0,1,2,5,1,4,3,0,0,250.0,test,5,H-
544.334888458,5,1000,0,1,2,5,1,4,3,0,0,250.0,test,5,H-
528.314828873,5,1000,0,1,2,5,1,4,3,0,0,250.0,test,5,H-
528.448820114,3,1000,5,1,2,5,1,4,3,0,0,250.0,test,3,H-
720.523834229,1,1000,3,1,2,5,1,4,3,0,0,250.0,test,1,H-
432.438135147,3,1000,5,1,2,5,1,4,3,0,0,250.0,test,3,H-
592.444896698,5,1000,0,1,2,5,1,4,3,0,0,250.0,test,5,H-
1264.35494423,1,1000,3,1,2,5,1,4,3,0,0,250.0,test,1,H-
640.026807785,5,1000,0,1,2,5,1,4,3,0,0,250.0,test,5,H-
528.477907181,4,1000,2,1,2,5,1,4,3,0,0,250.0,test,4,H-
560.323953629,4,1000,2,1,2,5,1,4,3,0,0,250.0,test,4,H-
544.492959976,2,1000,1,1,2,5,1,4,3,0,0,250.0,test,2,H-
720.46995163,0,1000,4,1,2,5,1,4,3,0,0,250.0,test,0,H-
496.44613266,4,1000,2,0,2,5,1,4,3,0,0,250.0,test,0,H-
592.280864716,5,1000,0,1,2,5,1,4,3,0,0,250.0,test,5,H-
688.050031662,0,1000,4,1,2,5,1,4,3,0,0,250.0,test,0,H-
1087.84294128,1,1000,3,1,2,5,1,4,3,0,0,250.0,test,1,H-
672.764062881,2,1000,1,1,2,5,1,4,3,0,0,250.0,test,2,H-
592.865943909,3,1000,5,1,2,5,1,4,3,0,0,250.0,test,3,H-
352.308034897,4,1000,2,1,2,5,1,4,3,0,0,250.0,test,4,H-
816.534042358,1,1000,3,1,2,5,1,4,3,0,0,250.0,test,1,H-
528.260946274,4,1000,2,1,2,5,1,4,3,0,0,250.0,test,4,H-
624.386072159,2,1000,1,1,2,5,1,4,3,0,0,250.0,test,2,H-
592.90099144,2,1000,1,0,2,5,1,4,3,0,0,250.0,test,1,H-
544.306993484,2,1000,1,1,2,5,1,4,3,0,0,250.0,test,2,H-
432.483196259,3,1000,5,0,2,5,1,4,3,0,0,250.0,test,2,H-
704.366922379,1,1000,3,1,2,5,1,4,3,0,0,250.0,test,1,H-
656.390190125,2,1000,1,1,2,5,1,4,3,0,0,250.0,test,2,H-
736.368894577,0,1000,4,1,2,5,1,4,3,0,0,250.0,test,0,H-
672.460079193,5,1000,0,1,2,5,1,4,3,0,0,250.0,test,5,H-
624.423980713,0,1000,4,1,2,5,1,4,3,0,0,250.0,test,0,H-
704.46896553,1,1000,3,1,2,5,1,4,3,0,0,250.0,test,1,H-
864.506006241,1,1000,3,1,2,5,1,4,3,0,0,250.0,test,1,H-
608.458995819,5,1000,0,1,2,5,1,4,3,0,0,250.0,test,5,H-
560.385942459,1,1000,3,1,2,5,1,4,3,0,0,250.0,test,1,H-
528.383970261,1,1000,3,1,2,5,1,4,3,0,0,250.0,test,1,H-
560.40596962,4,1000,2,1,2,5,1,4,3,0,0,250.0,test,4,H-
480.330944061,3,1000,5,1,2,5,1,4,3,0,0,250.0,test,3,H-
704.335927963,1,1000,3,1,2,5,1,4,3,0,0,250.0,test,1,H-
640.419960022,4,1000,2,1,2,5,1,4,3,0,0,250.0,test,4,H-
575.883865356,4,1000,2,1,2,5,1,4,3,0,0,250.0,test,4,H-
544.452905655,5,1000,0,1,2,5,1,4,3,0,0,250.0,test,5,H-
592.448949814,5,1000,0,1,2,5,1,4,3,0,0,250.0,test,5,H-
528.247833252,4,1000,2,1,2,5,1,4,3,0,0,250.0,test,4,H-
480.360984802,4,1000,2,1,2,5,1,4,3,0,0,250.0,test,4,H-
496.526002884,0,1000,4,1,2,5,1,4,3,0,0,250.0,test,0,H-
608.376026154,5,1000,0,1,2,5,1,4,3,0,0,250.0,test,5,H-
592.157840729,5,1000,0,1,2,5,1,4,3,0,0,250.0,test,5,H-
640.465974808,0,1000,4,1,2,5,1,4,3,0,0,250.0,test,0,H-
608.399868011,1,1000,3,1,2,5,1,4,3,0,0,250.0,test,1,H-
576.277017593,2,1000,1,1,2,5,1,4,3,0,0,250.0,test,2,H-
704.359054565,1,1000,3,1,2,5,1,4,3,0,0,250.0,test,1,H-
560.46295166,4,1000,2,1,2,5,1,4,3,0,0,250.0,test,4,H-
512.327194214,3,1000,5,1,2,5,1,4,3,0,0,250.0,test,3,H-
704.397916794,1,1000,3,1,2,5,1,4,3,0,0,250.0,test,1,H-
576.35307312,5,1000,0,1,2,5,1,4,3,0,0,250.0,test,5,H-
512.392044067,3,1000,5,1,2,5,1,4,3,0,0,250.0,test,3,H-
576.443910599,1,1000,3,1,2,5,1,4,3,0,0,250.0,test,1,H-
544.39496994,4,1000,2,1,2,5,1,4,3,0,0,250.0,test,4,H-
784.44314003,4,1000,2,1,2,5,1,4,3,0,0,250.0,test,4,H-
512.274026871,3,1000,5,1,2,5,1,4,3,0,0,250.0,test,3,H-
480.247020721,3,1000,5,1,2,5,1,4,3,0,0,250.0,test,3,H-
480.423927307,5,1000,0,1,2,5,1,4,3,0,0,250.0,test,5,H-
384.394884109,5,1000,0,1,2,5,1,4,3,0,0,250.0,test,5,H-
640.356779099,4,1000,2,1,2,5,1,4,3,0,0,250.0,test,4,H-
624.330997467,3,1000,5,1,2,5,1,4,3,0,0,250.0,test,3,H-
688.262939453,2,1000,1,1,2,5,1,4,3,0,0,250.0,test,2,H-
608.340024948,2,1000,1,1,2,5,1,4,3,0,0,250.0,test,2,H-
848.197221756,1,1000,3,1,2,5,1,4,3,0,0,250.0,test,1,H-
528.250932693,5,1000,0,1,2,5,1,4,3,0,0,250.0,test,5,H-
1056.50496483,1,1000,3,1,2,5,1,4,3,0,0,250.0,test,1,H-
576.246976852,4,1000,2,1,2,5,1,4,3,0,0,250.0,test,4,H-
528.478860855,5,1000,0,1,2,5,1,4,3,0,0,250.0,test,5,H-
560.240983963,0,1000,4,1,2,5,1,4,3,0,0,250.0,test,0,H-
560.434103012,4,1000,2,1,2,5,1,4,3,0,0,250.0,test,4,H-
576.324939728,2,1000,1,0,2,5,1,4,3,0,0,250.0,test,1,H-
544.209957123,4,1000,2,1,2,5,1,4,3,0,0,250.0,test,4,H-
448.509931564,4,1000,2,1,2,5,1,4,3,0,0,250.0,test,4,H-
896.523952484,1,1000,3,1,2,5,1,4,3,0,0,250.0,test,1,H-
704.160928726,3,1000,5,1,2,5,1,4,3,0,0,250.0,test,3,H-
560.366868973,5,1000,0,1,2,5,1,4,3,0,0,250.0,test,5,H-
464.492797852,5,1000,0,1,2,5,1,4,3,0,0,250.0,test,5,H-
544.415950775,5,1000,0,1,2,5,1,4,3,0,0,250.0,test,5,H-
560.408115387,4,1000,2,1,2,5,1,4,3,0,0,250.0,test,4,H-
576.427936554,5,1000,0,1,2,5,1,4,3,0,0,250.0,test,5,H-
624.358892441,0,1000,4,1,2,5,1,4,3,0,0,250.0,test,0,H-
528.425931931,3,1000,5,1,2,5,1,4,3,0,0,250.0,test,3,H-
752.148866653,0,1000,4,1,2,5,1,4,3,0,0,250.0,test,0,H-
544.3110466,1,1000,3,1,2,5,1,4,3,0,0,250.0,test,1,H-
624.505996704,0,1000,4,1,2,5,1,4,3,0,0,250.0,test,0,H-
624.345064163,5,1000,0,1,2,5,1,4,3,0,0,250.0,test,5,H-
576.299905777,2,1000,1,1,2,5,1,4,3,0,0,250.0,test,2,H-
400.46787262,3,1000,5,1,2,5,1,4,3,0,0,250.0,test,3,H-
544.287919998,2,1000,1,1,2,5,1,4,3,0,0,250.0,test,2,H-
624.461889267,1,1000,3,0,2,5,1,4,3,0,0,250.0,test,0,H-
352.272987366,1,1000,3,1,2,5,1,4,3,0,0,250.0,test,1,H-
544.507026672,4,1000,2,1,2,5,1,4,3,0,0,250.0,test,4,H-
704.156160355,1,1000,3,1,2,5,1,4,3,0,0,250.0,test,1,H-
655.841827393,4,1000,2,1,2,5,1,4,3,0,0,250.0,test,4,H-
623.861074448,5,1000,0,1,2,5,1,4,3,0,0,250.0,test,5,H-
560.033798218,0,1000,4,1,2,5,1,4,3,0,0,250.0,test,0,H-
527.995109558,4,1000,2,1,2,5,1,4,3,0,0,250.0,test,4,H-
528.000116348,4,1000,2,1,2,5,1,4,3,0,0,250.0,test,4,H-
591.97306633,5,1000,0,1,2,5,1,4,3,0,0,250.0,test,5,H-
512.885093689,0,1000,4,1,2,5,1,4,3,0,0,250.0,test,0,H-
592.190980911,5,1000,0,1,2,5,1,4,3,0,0,250.0,test,5,H-
527.987003326,3,1000,5,1,2,5,1,4,3,0,0,250.0,test,3,H-
511.869907379,0,1000,4,1,2,5,1,4,3,0,0,250.0,test,0,H-
464.79010582,4,1000,2,1,2,5,1,4,3,0,0,250.0,test,4,H-
384.837865829,1,1000,3,1,2,5,1,4,3,0,0,250.0,test,1,H-
512.052059174,3,1000,5,1,2,5,1,4,3,0,0,250.0,test,3,H-
528.818845749,3,1000,5,0,2,5,1,4,3,0,0,250.0,test,2,H-
624.246120453,4,1000,2,1,2,5,1,4,3,0,0,250.0,test,4,H-
608.206987381,2,1000,1,1,2,5,1,4,3,0,0,250.0,test,2,H-
352.405071259,5,1000,0,1,2,5,1,4,3,0,0,250.0,test,5,H-
400.491952896,0,1000,4,1,2,5,1,4,3,0,0,250.0,test,0,H-
640.064001083,0,1000,4,1,2,5,1,4,3,0,0,250.0,test,0,H-
864.051103592,3,1000,5,1,2,5,1,4,3,0,0,250.0,test,3,H-
368.041992188,4,1000,2,1,2,5,1,4,3,0,0,250.0,test,4,H-
560.908079147,4,1000,2,1,2,5,1,4,3,0,0,250.0,test,4,H-
608.018159866,5,1000,0,1,2,5,1,4,3,0,0,250.0,test,5,H-
624.060869217,0,1000,4,1,2,5,1,4,3,0,0,250.0,test,0,H-
576.070070267,4,1000,2,1,2,5,1,4,3,0,0,250.0,test,4,H-
527.875900269,3,1000,5,1,2,5,1,4,3,0,0,250.0,test,3,H-
480.176210403,4,1000,2,1,2,5,1,4,3,0,0,250.0,test,4,H-
672.156095505,4,1000,2,1,2,5,1,4,3,0,0,250.0,test,4,H-
384.180784225,4,1000,2,1,2,5,1,4,3,0,0,250.0,test,4,H-
368.191003799,2,1000,1,1,2,5,1,4,3,0,0,250.0,test,2,H-
431.999206543,5,1000,0,0,2,5,1,4,3,0,0,250.0,test,4,H-
528.365135193,5,1000,0,1,2,5,1,4,3,0,0,250.0,test,5,H-
528.437852859,3,1000,5,1,2,5,1,4,3,0,0,250.0,test,3,H-
400.191068649,4,1000,2,1,2,5,1,4,3,0,0,250.0,test,4,H-
672.475099564,1,1000,3,1,2,5,1,4,3,0,0,250.0,test,1,H-
608.347177505,0,1000,4,1,2,5,1,4,3,0,0,250.0,test,0,H-
432.437896729,2,1000,1,1,2,5,1,4,3,0,0,250.0,test,2,H-
496.225118637,1,1000,3,1,2,5,1,4,3,0,0,250.0,test,1,H-
576.399087906,0,1000,4,1,2,5,1,4,3,0,0,250.0,test,0,H-
432.115077972,3,1000,5,1,2,5,1,4,3,0,0,250.0,test,3,H-
