RT,correct_response,ms-prestimblank,curstim,correct,SRmap_1,SRmap_0,SRmap_3,SRmap_2,SRmap_5,SRmap_4,ms-precue,ntrials,type,response,condition
2815.69910049,0,1000,3,1,2,1,0,4,5,3,0,250.0,train,0,M
784.646987915,0,1000,3,1,2,1,0,4,5,3,0,250.0,train,0,M
526.730060577,1,1000,0,1,2,1,0,4,5,3,0,250.0,train,1,M
640.412807465,0,1000,3,1,2,1,0,4,5,3,0,250.0,train,0,M
736.178874969,3,1000,4,1,2,1,0,4,5,3,0,250.0,train,3,M
511.930942535,0,1000,3,1,2,1,0,4,5,3,0,250.0,train,0,M
656.158924103,4,1000,2,0,2,1,0,4,5,3,0,250.0,train,5,M
576.738119125,5,1000,5,1,2,1,0,4,5,3,0,250.0,train,5,M
928.313016891,2,1000,1,1,2,1,0,4,5,3,0,250.0,train,2,M
480.387926102,2,1000,1,0,2,1,0,4,5,3,0,250.0,train,1,M
688.450098038,4,1000,2,1,2,1,0,4,5,3,0,250.0,train,4,M
528.354167938,0,1000,3,1,2,1,0,4,5,3,0,250.0,train,0,M
480.504989624,0,1000,3,1,2,1,0,4,5,3,0,250.0,train,0,M
576.469182968,5,1000,5,1,2,1,0,4,5,3,0,250.0,train,5,M
512.348175049,2,1000,1,1,2,1,0,4,5,3,0,250.0,train,2,M
672.405958176,2,1000,1,1,2,1,0,4,5,3,0,250.0,train,2,M
480.800151825,5,1000,5,1,2,1,0,4,5,3,0,250.0,train,5,M
688.553094864,3,1000,4,1,2,1,0,4,5,3,0,250.0,train,3,M
528.325080872,3,1000,4,1,2,1,0,4,5,3,0,250.0,train,3,M
512.867927551,0,1000,3,1,2,1,0,4,5,3,0,250.0,train,0,M
592.366933823,4,1000,2,1,2,1,0,4,5,3,0,250.0,train,4,M
464.444875717,5,1000,5,1,2,1,0,4,5,3,0,250.0,train,5,M
480.503082275,5,1000,5,1,2,1,0,4,5,3,0,250.0,train,5,M
496.52504921,2,1000,1,1,2,1,0,4,5,3,0,250.0,train,2,M
464.546918869,1,1000,0,1,2,1,0,4,5,3,0,250.0,train,1,M
544.47388649,5,1000,5,1,2,1,0,4,5,3,0,250.0,train,5,M
560.460805893,2,1000,1,1,2,1,0,4,5,3,0,250.0,train,2,M
480.442047119,2,1000,1,1,2,1,0,4,5,3,0,250.0,train,2,M
512.456893921,2,1000,1,1,2,1,0,4,5,3,0,250.0,train,2,M
512.429952621,0,1000,3,1,2,1,0,4,5,3,0,250.0,train,0,M
592.50497818,5,1000,5,1,2,1,0,4,5,3,0,250.0,train,5,M
528.496980667,1,1000,0,1,2,1,0,4,5,3,0,250.0,train,1,M
656.509876251,4,1000,2,1,2,1,0,4,5,3,0,250.0,train,4,M
400.468111038,5,1000,5,1,2,1,0,4,5,3,0,250.0,train,5,M
704.54287529,4,1000,2,1,2,1,0,4,5,3,0,250.0,train,4,M
464.43104744,5,1000,5,1,2,1,0,4,5,3,0,250.0,train,5,M
496.876001358,0,1000,3,1,2,1,0,4,5,3,0,250.0,train,0,M
800.509929657,2,1000,1,1,2,1,0,4,5,3,0,250.0,train,2,M
560.868024826,2,1000,1,1,2,1,0,4,5,3,0,250.0,train,2,M
368.828058243,3,1000,4,0,2,1,0,4,5,3,0,250.0,train,4,M
528.360128403,0,1000,3,1,2,1,0,4,5,3,0,250.0,train,0,M
720.510959625,3,1000,4,1,2,1,0,4,5,3,0,250.0,train,3,M
640.498876572,1,1000,0,1,2,1,0,4,5,3,0,250.0,train,1,M
608.495950699,5,1000,5,1,2,1,0,4,5,3,0,250.0,train,5,M
800.421953201,3,1000,4,1,2,1,0,4,5,3,0,250.0,train,3,M
816.284179688,4,1000,2,1,2,1,0,4,5,3,0,250.0,train,4,M
624.77684021,1,1000,0,1,2,1,0,4,5,3,0,250.0,train,1,M
448.451042175,5,1000,5,1,2,1,0,4,5,3,0,250.0,train,5,M
480.355978012,5,1000,5,1,2,1,0,4,5,3,0,250.0,train,5,M
640.517950058,1,1000,0,1,2,1,0,4,5,3,0,250.0,train,1,M
656.345129013,4,1000,2,1,2,1,0,4,5,3,0,250.0,train,4,M
544.466018677,1,1000,0,1,2,1,0,4,5,3,0,250.0,train,1,M
544.310092926,1,1000,0,1,2,1,0,4,5,3,0,250.0,train,1,M
544.74902153,5,1000,5,1,2,1,0,4,5,3,0,250.0,train,5,M
672.530889511,4,1000,2,1,2,1,0,4,5,3,0,250.0,train,4,M
879.991054535,3,1000,4,0,2,1,0,4,5,3,0,250.0,train,2,M
640.311002731,2,1000,1,1,2,1,0,4,5,3,0,250.0,train,2,M
624.004125595,3,1000,4,1,2,1,0,4,5,3,0,250.0,train,3,M
608.694791794,1,1000,0,1,2,1,0,4,5,3,0,250.0,train,1,M
831.904888153,4,1000,2,1,2,1,0,4,5,3,0,250.0,train,4,M
511.792898178,1,1000,0,1,2,1,0,4,5,3,0,250.0,train,1,M
688.670873642,3,1000,4,1,2,1,0,4,5,3,0,250.0,train,3,M
591.588020325,1,1000,0,1,2,1,0,4,5,3,0,250.0,train,1,M
688.951969147,5,1000,5,1,2,1,0,4,5,3,0,250.0,train,5,M
560.463905334,2,1000,1,1,2,1,0,4,5,3,0,250.0,train,2,M
608.413934708,0,1000,3,1,2,1,0,4,5,3,0,250.0,train,0,M
560.465097427,5,1000,5,1,2,1,0,4,5,3,0,250.0,train,5,M
480.573177338,0,1000,3,1,2,1,0,4,5,3,0,250.0,train,0,M
480.487823486,0,1000,3,1,2,1,0,4,5,3,0,250.0,train,0,M
352.442979813,1,1000,0,1,2,1,0,4,5,3,0,250.0,train,1,M
560.594081879,3,1000,4,1,2,1,0,4,5,3,0,250.0,train,3,M
816.514968872,1,1000,0,1,2,1,0,4,5,3,0,250.0,train,1,M
752.404928207,3,1000,4,1,2,1,0,4,5,3,0,250.0,train,3,M
560.471057892,1,1000,0,1,2,1,0,4,5,3,0,250.0,train,1,M
624.545097351,2,1000,1,1,2,1,0,4,5,3,0,250.0,train,2,M
464.631080627,1,1000,0,1,2,1,0,4,5,3,0,250.0,train,1,M
896.43406868,4,1000,2,1,2,1,0,4,5,3,0,250.0,train,4,M
608.425140381,3,1000,4,1,2,1,0,4,5,3,0,250.0,train,3,M
656.311035156,4,1000,2,1,2,1,0,4,5,3,0,250.0,train,4,M
672.298192978,2,1000,1,1,2,1,0,4,5,3,0,250.0,train,2,M
544.496059418,0,1000,3,1,2,1,0,4,5,3,0,250.0,train,0,M
704.42700386,3,1000,4,1,2,1,0,4,5,3,0,250.0,train,3,M
431.777000427,3,1000,4,1,2,1,0,4,5,3,0,250.0,train,3,M
560.77504158,4,1000,2,1,2,1,0,4,5,3,0,250.0,train,4,M
592.341184616,1,1000,0,1,2,1,0,4,5,3,0,250.0,train,1,M
592.301130295,0,1000,3,1,2,1,0,4,5,3,0,250.0,train,0,M
720.499992371,4,1000,2,1,2,1,0,4,5,3,0,250.0,train,4,M
1024.40595627,2,1000,1,0,2,1,0,4,5,3,0,250.0,train,3,M
1040.37594795,4,1000,2,1,2,1,0,4,5,3,0,250.0,train,4,M
608.532905579,4,1000,2,1,2,1,0,4,5,3,0,250.0,train,4,M
560.385227203,1,1000,0,1,2,1,0,4,5,3,0,250.0,train,1,M
512.348890305,1,1000,0,1,2,1,0,4,5,3,0,250.0,train,1,M
640.487194061,5,1000,5,1,2,1,0,4,5,3,0,250.0,train,5,M
528.431892395,5,1000,5,1,2,1,0,4,5,3,0,250.0,train,5,M
704.828977585,2,1000,1,1,2,1,0,4,5,3,0,250.0,train,2,M
464.513063431,1,1000,0,1,2,1,0,4,5,3,0,250.0,train,1,M
624.511957169,5,1000,5,1,2,1,0,4,5,3,0,250.0,train,5,M
576.333045959,4,1000,2,1,2,1,0,4,5,3,0,250.0,train,4,M
559.891939163,3,1000,4,1,2,1,0,4,5,3,0,250.0,train,3,M
607.64503479,0,1000,3,1,2,1,0,4,5,3,0,250.0,train,0,M
1137.05801964,5,1000,5,1,2,1,0,4,5,3,0,250.0,train,5,M
672.420024872,3,1000,4,1,2,1,0,4,5,3,0,250.0,train,3,M
592.427968979,0,1000,3,1,2,1,0,4,5,3,0,250.0,train,0,M
592.520952225,2,1000,1,1,2,1,0,4,5,3,0,250.0,train,2,M
544.564008713,5,1000,5,1,2,1,0,4,5,3,0,250.0,train,5,M
480.549097061,5,1000,5,1,2,1,0,4,5,3,0,250.0,train,5,M
560.454845428,0,1000,3,1,2,1,0,4,5,3,0,250.0,train,0,M
480.558156967,0,1000,3,1,2,1,0,4,5,3,0,250.0,train,0,M
480.56101799,2,1000,1,1,2,1,0,4,5,3,0,250.0,train,2,M
432.406902313,0,1000,3,1,2,1,0,4,5,3,0,250.0,train,0,M
448.473930359,2,1000,1,1,2,1,0,4,5,3,0,250.0,train,2,M
608.574151993,1,1000,0,1,2,1,0,4,5,3,0,250.0,train,1,M
544.372081757,2,1000,1,1,2,1,0,4,5,3,0,250.0,train,2,M
576.434850693,4,1000,2,1,2,1,0,4,5,3,0,250.0,train,4,M
480.405807495,4,1000,2,1,2,1,0,4,5,3,0,250.0,train,4,M
576.460123062,2,1000,1,1,2,1,0,4,5,3,0,250.0,train,2,M
784.446001053,3,1000,4,1,2,1,0,4,5,3,0,250.0,train,3,M
496.427059174,3,1000,4,1,2,1,0,4,5,3,0,250.0,train,3,M
640.492916107,5,1000,5,1,2,1,0,4,5,3,0,250.0,train,5,M
640.490055084,2,1000,1,1,2,1,0,4,5,3,0,250.0,train,2,M
608.286142349,3,1000,4,0,2,1,0,4,5,3,0,250.0,train,4,M
816.405057907,2,1000,1,1,2,1,0,4,5,3,0,250.0,train,2,M
528.281927109,5,1000,5,1,2,1,0,4,5,3,0,250.0,train,5,M
672.35994339,2,1000,1,1,2,1,0,4,5,3,0,250.0,train,2,M
640.34819603,5,1000,5,1,2,1,0,4,5,3,0,250.0,train,5,M
640.333175659,1,1000,0,1,2,1,0,4,5,3,0,250.0,train,1,M
560.328006744,5,1000,5,1,2,1,0,4,5,3,0,250.0,train,5,M
432.368993759,5,1000,5,1,2,1,0,4,5,3,0,250.0,train,5,M
576.264858246,0,1000,3,1,2,1,0,4,5,3,0,250.0,train,0,M
528.562068939,5,1000,5,1,2,1,0,4,5,3,0,250.0,train,5,M
656.582832336,4,1000,2,1,2,1,0,4,5,3,0,250.0,train,4,M
592.482089996,0,1000,3,1,2,1,0,4,5,3,0,250.0,train,0,M
784.546852112,2,1000,1,1,2,1,0,4,5,3,0,250.0,train,2,M
608.411073685,3,1000,4,1,2,1,0,4,5,3,0,250.0,train,3,M
512.410879135,3,1000,4,1,2,1,0,4,5,3,0,250.0,train,3,M
480.401992798,4,1000,2,1,2,1,0,4,5,3,0,250.0,train,4,M
528.382062912,3,1000,4,1,2,1,0,4,5,3,0,250.0,train,3,M
720.484018326,0,1000,3,1,2,1,0,4,5,3,0,250.0,train,0,M
592.568159103,2,1000,1,1,2,1,0,4,5,3,0,250.0,train,2,M
528.515815735,0,1000,3,1,2,1,0,4,5,3,0,250.0,train,0,M
720.737934113,4,1000,2,1,2,1,0,4,5,3,0,250.0,train,4,M
672.425985336,1,1000,0,1,2,1,0,4,5,3,0,250.0,train,1,M
736.388921738,4,1000,2,1,2,1,0,4,5,3,0,250.0,train,4,M
800.365924835,2,1000,1,1,2,1,0,4,5,3,0,250.0,train,2,M
528.506040573,0,1000,3,1,2,1,0,4,5,3,0,250.0,train,0,M
640.417814255,5,1000,5,1,2,1,0,4,5,3,0,250.0,train,5,M
912.487030029,3,1000,4,1,2,1,0,4,5,3,0,250.0,train,3,M
624.353170395,0,1000,3,1,2,1,0,4,5,3,0,250.0,train,0,M
688.446998596,0,1000,3,1,2,1,0,4,5,3,0,250.0,train,0,M
672.635793686,5,1000,5,1,2,1,0,4,5,3,0,250.0,train,5,M
544.316053391,0,1000,3,1,2,1,0,4,5,3,0,250.0,train,0,M
624.365091324,4,1000,2,1,2,1,0,4,5,3,0,250.0,train,4,M
576.460123062,1,1000,0,1,2,1,0,4,5,3,0,250.0,train,1,M
672.538995743,4,1000,2,1,2,1,0,4,5,3,0,250.0,train,4,M
544.337034225,0,1000,3,1,2,1,0,4,5,3,0,250.0,train,0,M
672.738790512,5,1000,5,1,2,1,0,4,5,3,0,250.0,train,5,M
528.300046921,5,1000,5,1,2,1,0,4,5,3,0,250.0,train,5,M
528.371095657,0,1000,3,1,2,1,0,4,5,3,0,250.0,train,0,M
671.588182449,2,1000,1,1,2,1,0,4,5,3,0,250.0,train,2,M
463.580846786,5,1000,5,1,2,1,0,4,5,3,0,250.0,train,5,M
559.649944305,1,1000,0,1,2,1,0,4,5,3,0,250.0,train,1,M
624.233961105,3,1000,4,0,2,1,0,4,5,3,0,250.0,train,2,M
624.27687645,4,1000,2,1,2,1,0,4,5,3,0,250.0,train,4,M
544.317960739,5,1000,5,1,2,1,0,4,5,3,0,250.0,train,5,M
432.337999344,5,1000,5,1,2,1,0,4,5,3,0,250.0,train,5,M
752.344846725,2,1000,1,1,2,1,0,4,5,3,0,250.0,train,2,M
608.366012573,0,1000,3,1,2,1,0,4,5,3,0,250.0,train,0,M
688.247919083,4,1000,2,1,2,1,0,4,5,3,0,250.0,train,4,M
624.273061752,1,1000,0,1,2,1,0,4,5,3,0,250.0,train,1,M
832.843780518,3,1000,4,1,2,1,0,4,5,3,0,250.0,train,3,M
784.382104874,2,1000,1,1,2,1,0,4,5,3,0,250.0,train,2,M
528.510093689,0,1000,3,1,2,1,0,4,5,3,0,250.0,train,0,M
576.541900635,2,1000,1,1,2,1,0,4,5,3,0,250.0,train,2,M
544.476032257,1,1000,0,1,2,1,0,4,5,3,0,250.0,train,1,M
672.428846359,5,1000,5,1,2,1,0,4,5,3,0,250.0,train,5,M
736.443996429,3,1000,4,1,2,1,0,4,5,3,0,250.0,train,3,M
528.321027756,0,1000,3,1,2,1,0,4,5,3,0,250.0,train,0,M
480.319023132,5,1000,5,1,2,1,0,4,5,3,0,250.0,train,5,M
528.39589119,0,1000,3,1,2,1,0,4,5,3,0,250.0,train,0,M
752.49004364,3,1000,4,1,2,1,0,4,5,3,0,250.0,train,3,M
672.292947769,3,1000,4,1,2,1,0,4,5,3,0,250.0,train,3,M
544.764995575,1,1000,0,0,2,1,0,4,5,3,0,250.0,train,2,M
704.385995865,4,1000,2,1,2,1,0,4,5,3,0,250.0,train,4,M
480.541944504,5,1000,5,1,2,1,0,4,5,3,0,250.0,train,5,M
656.896114349,4,1000,2,1,2,1,0,4,5,3,0,250.0,train,4,M
688.522815704,3,1000,4,1,2,1,0,4,5,3,0,250.0,train,3,M
576.327085495,5,1000,5,1,2,1,0,4,5,3,0,250.0,train,5,M
1040.41409492,2,1000,1,1,2,1,0,4,5,3,0,250.0,train,2,M
576.367139816,2,1000,1,1,2,1,0,4,5,3,0,250.0,train,2,M
528.271913528,5,1000,5,1,2,1,0,4,5,3,0,250.0,train,5,M
544.416904449,0,1000,3,1,2,1,0,4,5,3,0,250.0,train,0,M
544.415950775,5,1000,5,1,2,1,0,4,5,3,0,250.0,train,5,M
688.352108002,1,1000,0,1,2,1,0,4,5,3,0,250.0,train,1,M
736.340999603,1,1000,0,1,2,1,0,4,5,3,0,250.0,train,1,M
768.393039703,2,1000,1,1,2,1,0,4,5,3,0,250.0,train,2,M
944.50211525,3,1000,4,1,2,1,0,4,5,3,0,250.0,train,3,M
576.430082321,0,1000,3,1,2,1,0,4,5,3,0,250.0,train,0,M
560.752153397,2,1000,1,1,2,1,0,4,5,3,0,250.0,train,2,M
512.482881546,2,1000,1,1,2,1,0,4,5,3,0,250.0,train,2,M
560.372114182,1,1000,0,1,2,1,0,4,5,3,0,250.0,train,1,M
544.302940369,0,1000,3,1,2,1,0,4,5,3,0,250.0,train,0,M
560.372114182,1,1000,0,1,2,1,0,4,5,3,0,250.0,train,1,M
528.264045715,2,1000,1,1,2,1,0,4,5,3,0,250.0,train,2,M
656.511068344,3,1000,4,1,2,1,0,4,5,3,0,250.0,train,3,M
560.271978378,5,1000,5,1,2,1,0,4,5,3,0,250.0,train,5,M
512.493848801,5,1000,5,1,2,1,0,4,5,3,0,250.0,train,5,M
688.487052917,2,1000,1,1,2,1,0,4,5,3,0,250.0,train,2,M
480.427026749,0,1000,3,1,2,1,0,4,5,3,0,250.0,train,0,M
576.38502121,2,1000,1,1,2,1,0,4,5,3,0,250.0,train,2,M
496.330976486,0,1000,3,1,2,1,0,4,5,3,0,250.0,train,0,M
784.276008606,4,1000,2,1,2,1,0,4,5,3,0,250.0,train,4,M
496.239900589,4,1000,2,1,2,1,0,4,5,3,0,250.0,train,4,M
784.463882446,3,1000,4,1,2,1,0,4,5,3,0,250.0,train,3,M
672.478914261,2,1000,1,1,2,1,0,4,5,3,0,250.0,train,2,M
656.868934631,5,1000,5,1,2,1,0,4,5,3,0,250.0,train,5,M
512.408018112,4,1000,2,1,2,1,0,4,5,3,0,250.0,train,4,M
656.470060349,1,1000,0,1,2,1,0,4,5,3,0,250.0,train,1,M
544.461011887,3,1000,4,1,2,1,0,4,5,3,0,250.0,train,3,M
832.400083542,2,1000,1,1,2,1,0,4,5,3,0,250.0,train,2,M
576.393127441,5,1000,5,1,2,1,0,4,5,3,0,250.0,train,5,M
448.290109634,5,1000,5,1,2,1,0,4,5,3,0,250.0,train,5,M
736.837863922,2,1000,1,1,2,1,0,4,5,3,0,250.0,train,2,M
560.45293808,5,1000,5,1,2,1,0,4,5,3,0,250.0,train,5,M
848.436832428,3,1000,4,0,2,1,0,4,5,3,0,250.0,train,2,M
640.391111374,3,1000,4,1,2,1,0,4,5,3,0,250.0,train,3,M
464.197158813,4,1000,2,1,2,1,0,4,5,3,0,250.0,train,4,M
544.245958328,5,1000,5,1,2,1,0,4,5,3,0,250.0,train,5,M
656.272888184,3,1000,4,1,2,1,0,4,5,3,0,250.0,train,3,M
592.509031296,1,1000,0,1,2,1,0,4,5,3,0,250.0,train,1,M
768.461942673,2,1000,1,0,2,1,0,4,5,3,0,250.0,train,3,M
544.377088547,3,1000,4,1,2,1,0,4,5,3,0,250.0,train,3,M
688.328027725,4,1000,2,1,2,1,0,4,5,3,0,250.0,train,4,M
688.503980637,2,1000,1,1,2,1,0,4,5,3,0,250.0,train,2,M
591.953992844,0,1000,3,1,2,1,0,4,5,3,0,250.0,train,0,M
768.462896347,2,1000,1,1,2,1,0,4,5,3,0,250.0,train,2,M
592.496871948,2,1000,1,1,2,1,0,4,5,3,0,250.0,train,2,M
592.344999313,0,1000,3,1,2,1,0,4,5,3,0,250.0,train,0,M
688.354969025,3,1000,4,1,2,1,0,4,5,3,0,250.0,train,3,M
704.721927643,3,1000,4,1,2,1,0,4,5,3,0,250.0,train,3,M
736.890077591,3,1000,4,1,2,1,0,4,5,3,0,250.0,train,3,M
464.3201828,4,1000,2,1,2,1,0,4,5,3,0,250.0,train,4,M
576.437950134,5,1000,5,1,2,1,0,4,5,3,0,250.0,train,5,M
384.37795639,0,1000,3,1,2,1,0,4,5,3,0,250.0,train,0,M
592.559099197,2,1000,1,1,2,1,0,4,5,3,0,250.0,train,2,M
592.852115631,0,1000,3,1,2,1,0,4,5,3,0,250.0,train,0,M
528.255939484,0,1000,3,1,2,1,0,4,5,3,0,250.0,train,0,M
512.478113174,1,1000,0,1,2,1,0,4,5,3,0,250.0,train,1,M
768.472194672,3,1000,4,1,2,1,0,4,5,3,0,250.0,train,3,M
544.362068176,0,1000,3,1,2,1,0,4,5,3,0,250.0,train,0,M
688.287973404,2,1000,1,1,2,1,0,4,5,3,0,250.0,train,2,M
9487.71476746,2,1000,1,1,2,1,0,4,5,3,0,250.0,test,2,M
1696.16293907,0,1000,3,1,2,1,0,4,5,3,0,250.0,test,0,M
2800.58097839,3,1000,4,1,2,1,0,4,5,3,0,250.0,test,3,M
1696.31505013,0,1000,3,1,2,1,0,4,5,3,0,250.0,test,0,M
1024.32107925,5,1000,5,1,2,1,0,4,5,3,0,250.0,test,5,M
1216.28904343,0,1000,3,1,2,1,0,4,5,3,0,250.0,test,0,M
1552.45804787,2,1000,1,0,2,1,0,4,5,3,0,250.0,test,3,M
1168.22195053,1,1000,0,1,2,1,0,4,5,3,0,250.0,test,1,M
2272.1259594,3,1000,4,1,2,1,0,4,5,3,0,250.0,test,3,M
944.262981415,5,1000,5,1,2,1,0,4,5,3,0,250.0,test,5,M
1712.08095551,2,1000,1,1,2,1,0,4,5,3,0,250.0,test,2,M
1008.08119774,0,1000,3,1,2,1,0,4,5,3,0,250.0,test,0,M
1392.36092567,2,1000,1,1,2,1,0,4,5,3,0,250.0,test,2,M
1680.11188507,3,1000,4,1,2,1,0,4,5,3,0,250.0,test,3,M
912.80412674,4,1000,2,1,2,1,0,4,5,3,0,250.0,test,4,M
880.259990692,0,1000,3,1,2,1,0,4,5,3,0,250.0,test,0,M
720.253944397,4,1000,2,1,2,1,0,4,5,3,0,250.0,test,4,M
1183.81381035,1,1000,0,1,2,1,0,4,5,3,0,250.0,test,1,M
656.069993973,1,1000,0,1,2,1,0,4,5,3,0,250.0,test,1,M
1375.2810955,3,1000,4,1,2,1,0,4,5,3,0,250.0,test,3,M
975.772857666,1,1000,0,1,2,1,0,4,5,3,0,250.0,test,1,M
1088.05799484,4,1000,2,1,2,1,0,4,5,3,0,250.0,test,4,M
832.036972046,5,1000,5,1,2,1,0,4,5,3,0,250.0,test,5,M
1152.33612061,2,1000,1,1,2,1,0,4,5,3,0,250.0,test,2,M
1120.20301819,5,1000,5,1,2,1,0,4,5,3,0,250.0,test,5,M
1807.84583092,3,1000,4,1,2,1,0,4,5,3,0,250.0,test,3,M
976.110935211,5,1000,5,1,2,1,0,4,5,3,0,250.0,test,5,M
1280.08699417,3,1000,4,1,2,1,0,4,5,3,0,250.0,test,3,M
960.523843765,2,1000,1,1,2,1,0,4,5,3,0,250.0,test,2,M
736.229896545,2,1000,1,1,2,1,0,4,5,3,0,250.0,test,2,M
704.091072083,0,1000,3,1,2,1,0,4,5,3,0,250.0,test,0,M
816.158771515,1,1000,0,1,2,1,0,4,5,3,0,250.0,test,1,M
816.096067429,0,1000,3,1,2,1,0,4,5,3,0,250.0,test,0,M
671.912193298,0,1000,3,1,2,1,0,4,5,3,0,250.0,test,0,M
1248.1148243,5,1000,5,1,2,1,0,4,5,3,0,250.0,test,5,M
656.233072281,4,1000,2,1,2,1,0,4,5,3,0,250.0,test,4,M
783.894062042,2,1000,1,1,2,1,0,4,5,3,0,250.0,test,2,M
784.216165543,3,1000,4,1,2,1,0,4,5,3,0,250.0,test,3,M
960.013866425,1,1000,0,1,2,1,0,4,5,3,0,250.0,test,1,M
704.216957092,0,1000,3,1,2,1,0,4,5,3,0,250.0,test,0,M
863.067865372,2,1000,1,1,2,1,0,4,5,3,0,250.0,test,2,M
672.128915787,0,1000,3,1,2,1,0,4,5,3,0,250.0,test,0,M
640.007019043,4,1000,2,1,2,1,0,4,5,3,0,250.0,test,4,M
656.26001358,1,1000,0,1,2,1,0,4,5,3,0,250.0,test,1,M
623.907804489,4,1000,2,1,2,1,0,4,5,3,0,250.0,test,4,M
960.25800705,3,1000,4,1,2,1,0,4,5,3,0,250.0,test,3,M
575.989961624,5,1000,5,1,2,1,0,4,5,3,0,250.0,test,5,M
1168.19691658,1,1000,0,1,2,1,0,4,5,3,0,250.0,test,1,M
480.226993561,5,1000,5,0,2,1,0,4,5,3,0,250.0,test,0,M
1344.23208237,3,1000,4,1,2,1,0,4,5,3,0,250.0,test,3,M
736.22918129,5,1000,5,1,2,1,0,4,5,3,0,250.0,test,5,M
768.296957016,1,1000,0,1,2,1,0,4,5,3,0,250.0,test,1,M
575.623035431,4,1000,2,1,2,1,0,4,5,3,0,250.0,test,4,M
576.287984848,0,1000,3,1,2,1,0,4,5,3,0,250.0,test,0,M
768.242835999,4,1000,2,1,2,1,0,4,5,3,0,250.0,test,4,M
976.676940918,1,1000,0,1,2,1,0,4,5,3,0,250.0,test,1,M
672.163009644,5,1000,5,0,2,1,0,4,5,3,0,250.0,test,0,M
1552.03795433,2,1000,1,1,2,1,0,4,5,3,0,250.0,test,2,M
992.150068283,0,1000,3,1,2,1,0,4,5,3,0,250.0,test,0,M
703.732967377,4,1000,2,1,2,1,0,4,5,3,0,250.0,test,4,M
928.193807602,3,1000,4,1,2,1,0,4,5,3,0,250.0,test,3,M
639.838933945,5,1000,5,1,2,1,0,4,5,3,0,250.0,test,5,M
577.11315155,5,1000,5,1,2,1,0,4,5,3,0,250.0,test,5,M
592.064142227,0,1000,3,1,2,1,0,4,5,3,0,250.0,test,0,M
1103.96409035,4,1000,2,1,2,1,0,4,5,3,0,250.0,test,4,M
928.160905838,0,1000,3,1,2,1,0,4,5,3,0,250.0,test,0,M
495.658874512,4,1000,2,1,2,1,0,4,5,3,0,250.0,test,4,M
704.184055328,1,1000,0,1,2,1,0,4,5,3,0,250.0,test,1,M
832.20410347,2,1000,1,1,2,1,0,4,5,3,0,250.0,test,2,M
831.702947617,4,1000,2,1,2,1,0,4,5,3,0,250.0,test,4,M
624.004840851,4,1000,2,1,2,1,0,4,5,3,0,250.0,test,4,M
895.849943161,0,1000,3,1,2,1,0,4,5,3,0,250.0,test,0,M
768.177986145,1,1000,0,1,2,1,0,4,5,3,0,250.0,test,1,M
736.222982407,0,1000,3,1,2,1,0,4,5,3,0,250.0,test,0,M
575.987100601,5,1000,5,1,2,1,0,4,5,3,0,250.0,test,5,M
608.401060104,4,1000,2,1,2,1,0,4,5,3,0,250.0,test,4,M
1056.8420887,5,1000,5,1,2,1,0,4,5,3,0,250.0,test,5,M
784.080982208,0,1000,3,1,2,1,0,4,5,3,0,250.0,test,0,M
687.999010086,0,1000,3,1,2,1,0,4,5,3,0,250.0,test,0,M
1040.38405418,1,1000,0,1,2,1,0,4,5,3,0,250.0,test,1,M
1104.20489311,3,1000,4,1,2,1,0,4,5,3,0,250.0,test,3,M
1152.23193169,3,1000,4,1,2,1,0,4,5,3,0,250.0,test,3,M
1008.2051754,1,1000,0,1,2,1,0,4,5,3,0,250.0,test,1,M
831.989049911,3,1000,4,1,2,1,0,4,5,3,0,250.0,test,3,M
672.285079956,0,1000,3,1,2,1,0,4,5,3,0,250.0,test,0,M
416.188955307,5,1000,5,1,2,1,0,4,5,3,0,250.0,test,5,M
768.166065216,3,1000,4,1,2,1,0,4,5,3,0,250.0,test,3,M
1072.30401039,2,1000,1,1,2,1,0,4,5,3,0,250.0,test,2,M
960.18409729,0,1000,3,1,2,1,0,4,5,3,0,250.0,test,0,M
704.253196716,3,1000,4,1,2,1,0,4,5,3,0,250.0,test,3,M
752.44808197,1,1000,0,1,2,1,0,4,5,3,0,250.0,test,1,M
528.220176697,1,1000,0,1,2,1,0,4,5,3,0,250.0,test,1,M
687.879085541,0,1000,3,1,2,1,0,4,5,3,0,250.0,test,0,M
944.782018661,5,1000,5,1,2,1,0,4,5,3,0,250.0,test,5,M
688.179969788,4,1000,2,1,2,1,0,4,5,3,0,250.0,test,4,M
735.841989517,1,1000,0,1,2,1,0,4,5,3,0,250.0,test,1,M
1056.50186539,2,1000,1,1,2,1,0,4,5,3,0,250.0,test,2,M
1008.46910477,4,1000,2,1,2,1,0,4,5,3,0,250.0,test,4,M
799.768924713,0,1000,3,1,2,1,0,4,5,3,0,250.0,test,0,M
656.120061874,4,1000,2,1,2,1,0,4,5,3,0,250.0,test,4,M
911.880970001,5,1000,5,1,2,1,0,4,5,3,0,250.0,test,5,M
1039.82901573,2,1000,1,1,2,1,0,4,5,3,0,250.0,test,2,M
736.207962036,0,1000,3,1,2,1,0,4,5,3,0,250.0,test,0,M
687.762975693,1,1000,0,1,2,1,0,4,5,3,0,250.0,test,1,M
815.769910812,0,1000,3,1,2,1,0,4,5,3,0,250.0,test,0,M
751.801013947,5,1000,5,1,2,1,0,4,5,3,0,250.0,test,5,M
1103.76000404,0,1000,3,1,2,1,0,4,5,3,0,250.0,test,0,M
1167.78707504,5,1000,5,1,2,1,0,4,5,3,0,250.0,test,5,M
1008.00585747,3,1000,4,1,2,1,0,4,5,3,0,250.0,test,3,M
719.710111618,4,1000,2,1,2,1,0,4,5,3,0,250.0,test,4,M
960.198879242,3,1000,4,1,2,1,0,4,5,3,0,250.0,test,3,M
975.417137146,0,1000,3,1,2,1,0,4,5,3,0,250.0,test,0,M
991.807937622,5,1000,5,1,2,1,0,4,5,3,0,250.0,test,5,M
1119.98701096,2,1000,1,1,2,1,0,4,5,3,0,250.0,test,2,M
719.955205917,2,1000,1,1,2,1,0,4,5,3,0,250.0,test,2,M
623.847007751,2,1000,1,1,2,1,0,4,5,3,0,250.0,test,2,M
1071.79713249,0,1000,3,1,2,1,0,4,5,3,0,250.0,test,0,M
927.794933319,1,1000,0,1,2,1,0,4,5,3,0,250.0,test,1,M
704.116821289,4,1000,2,1,2,1,0,4,5,3,0,250.0,test,4,M
751.916885376,0,1000,3,1,2,1,0,4,5,3,0,250.0,test,0,M
703.912973404,1,1000,0,1,2,1,0,4,5,3,0,250.0,test,1,M
720.310926437,2,1000,1,1,2,1,0,4,5,3,0,250.0,test,2,M
832.743167877,4,1000,2,1,2,1,0,4,5,3,0,250.0,test,4,M
608.017921448,4,1000,2,1,2,1,0,4,5,3,0,250.0,test,4,M
800.800085068,3,1000,4,1,2,1,0,4,5,3,0,250.0,test,3,M
991.026878357,2,1000,1,1,2,1,0,4,5,3,0,250.0,test,2,M
672.044038773,5,1000,5,1,2,1,0,4,5,3,0,250.0,test,5,M
447.808980942,5,1000,5,1,2,1,0,4,5,3,0,250.0,test,5,M
992.461919785,0,1000,3,1,2,1,0,4,5,3,0,250.0,test,0,M
368.365764618,1,1000,0,1,2,1,0,4,5,3,0,250.0,test,1,M
768.50605011,3,1000,4,1,2,1,0,4,5,3,0,250.0,test,3,M
704.408168793,0,1000,3,1,2,1,0,4,5,3,0,250.0,test,0,M
432.339191437,5,1000,5,1,2,1,0,4,5,3,0,250.0,test,5,M
800.397157669,2,1000,1,1,2,1,0,4,5,3,0,250.0,test,2,M
384.31096077,1,1000,0,1,2,1,0,4,5,3,0,250.0,test,1,M
736.367940903,3,1000,4,1,2,1,0,4,5,3,0,250.0,test,3,M
528.394937515,4,1000,2,1,2,1,0,4,5,3,0,250.0,test,4,M
592.297077179,3,1000,4,1,2,1,0,4,5,3,0,250.0,test,3,M
688.519001007,2,1000,1,1,2,1,0,4,5,3,0,250.0,test,2,M
592.306137085,4,1000,2,1,2,1,0,4,5,3,0,250.0,test,4,M
656.394004822,0,1000,3,1,2,1,0,4,5,3,0,250.0,test,0,M
704.491853714,1,1000,0,1,2,1,0,4,5,3,0,250.0,test,1,M
1296.35190964,2,1000,1,0,2,1,0,4,5,3,0,250.0,test,1,M
576.336145401,5,1000,5,1,2,1,0,4,5,3,0,250.0,test,5,M
912.448883057,1,1000,0,1,2,1,0,4,5,3,0,250.0,test,1,M
880.403995514,2,1000,1,1,2,1,0,4,5,3,0,250.0,test,2,M
832.358121872,3,1000,4,1,2,1,0,4,5,3,0,250.0,test,3,M
560.358047485,4,1000,2,1,2,1,0,4,5,3,0,250.0,test,4,M
737.447977066,0,1000,3,1,2,1,0,4,5,3,0,250.0,test,0,M
880.344152451,2,1000,1,1,2,1,0,4,5,3,0,250.0,test,2,M
624.300956726,0,1000,3,1,2,1,0,4,5,3,0,250.0,test,0,M
560.341119766,4,1000,2,1,2,1,0,4,5,3,0,250.0,test,4,M
832.291126251,2,1000,1,1,2,1,0,4,5,3,0,250.0,test,2,M
688.498020172,1,1000,0,1,2,1,0,4,5,3,0,250.0,test,1,M
624.382019043,4,1000,2,1,2,1,0,4,5,3,0,250.0,test,4,M
640.487909317,0,1000,3,1,2,1,0,4,5,3,0,250.0,test,0,M
1152.30298042,2,1000,1,1,2,1,0,4,5,3,0,250.0,test,2,M
576.444864273,2,1000,1,1,2,1,0,4,5,3,0,250.0,test,2,M
544.406890869,4,1000,2,1,2,1,0,4,5,3,0,250.0,test,4,M
576.427936554,5,1000,5,1,2,1,0,4,5,3,0,250.0,test,5,M
784.514904022,0,1000,3,1,2,1,0,4,5,3,0,250.0,test,0,M
736.366987228,4,1000,2,1,2,1,0,4,5,3,0,250.0,test,4,M
464.411020279,4,1000,2,1,2,1,0,4,5,3,0,250.0,test,4,M
800.344944,3,1000,4,1,2,1,0,4,5,3,0,250.0,test,3,M
528.228998184,3,1000,4,1,2,1,0,4,5,3,0,250.0,test,3,M
960.39390564,1,1000,0,1,2,1,0,4,5,3,0,250.0,test,1,M
1424.34191704,5,1000,5,1,2,1,0,4,5,3,0,250.0,test,5,M
784.296989441,2,1000,1,1,2,1,0,4,5,3,0,250.0,test,2,M
1024.32489395,1,1000,0,1,2,1,0,4,5,3,0,250.0,test,1,M
976.516008377,3,1000,4,1,2,1,0,4,5,3,0,250.0,test,3,M
1136.28005981,5,1000,5,1,2,1,0,4,5,3,0,250.0,test,5,M
784.447193146,3,1000,4,1,2,1,0,4,5,3,0,250.0,test,3,M
848.431825638,2,1000,1,0,2,1,0,4,5,3,0,250.0,test,1,M
688.324928284,5,1000,5,1,2,1,0,4,5,3,0,250.0,test,5,M
576.344966888,3,1000,4,1,2,1,0,4,5,3,0,250.0,test,3,M
640.351057053,5,1000,5,1,2,1,0,4,5,3,0,250.0,test,5,M
384.376049042,1,1000,0,1,2,1,0,4,5,3,0,250.0,test,1,M
592.46301651,0,1000,3,1,2,1,0,4,5,3,0,250.0,test,0,M
752.460956573,5,1000,5,1,2,1,0,4,5,3,0,250.0,test,5,M
768.5110569,1,1000,0,1,2,1,0,4,5,3,0,250.0,test,1,M
784.452915192,2,1000,1,1,2,1,0,4,5,3,0,250.0,test,2,M
623.907089233,0,1000,3,1,2,1,0,4,5,3,0,250.0,test,0,M
672.45388031,1,1000,0,1,2,1,0,4,5,3,0,250.0,test,1,M
576.192140579,5,1000,5,1,2,1,0,4,5,3,0,250.0,test,5,M
640.406847,4,1000,2,1,2,1,0,4,5,3,0,250.0,test,4,M
656.37087822,1,1000,0,1,2,1,0,4,5,3,0,250.0,test,1,M
384.298086166,3,1000,4,1,2,1,0,4,5,3,0,250.0,test,3,M
543.926954269,4,1000,2,1,2,1,0,4,5,3,0,250.0,test,4,M
752.804994583,1,1000,0,1,2,1,0,4,5,3,0,250.0,test,1,M
624.642848969,1,1000,0,1,2,1,0,4,5,3,0,250.0,test,1,M
752.810001373,4,1000,2,1,2,1,0,4,5,3,0,250.0,test,4,M
496.6609478,4,1000,2,1,2,1,0,4,5,3,0,250.0,test,4,M
591.745138168,1,1000,0,1,2,1,0,4,5,3,0,250.0,test,1,M
576.759815216,4,1000,2,1,2,1,0,4,5,3,0,250.0,test,4,M
575.590848923,5,1000,5,1,2,1,0,4,5,3,0,250.0,test,5,M
752.722024918,3,1000,4,1,2,1,0,4,5,3,0,250.0,test,3,M
576.869010925,3,1000,4,1,2,1,0,4,5,3,0,250.0,test,3,M
944.791793823,2,1000,1,1,2,1,0,4,5,3,0,250.0,test,2,M
624.768972397,4,1000,2,1,2,1,0,4,5,3,0,250.0,test,4,M
768.0311203,2,1000,1,1,2,1,0,4,5,3,0,250.0,test,2,M
624.717950821,5,1000,5,1,2,1,0,4,5,3,0,250.0,test,5,M
624.689817429,0,1000,3,1,2,1,0,4,5,3,0,250.0,test,0,M
656.723976135,4,1000,2,1,2,1,0,4,5,3,0,250.0,test,4,M
624.805927277,5,1000,5,1,2,1,0,4,5,3,0,250.0,test,5,M
639.858007431,3,1000,4,1,2,1,0,4,5,3,0,250.0,test,3,M
943.886041641,1,1000,0,1,2,1,0,4,5,3,0,250.0,test,1,M
719.871044159,3,1000,4,1,2,1,0,4,5,3,0,250.0,test,3,M
607.912063599,0,1000,3,1,2,1,0,4,5,3,0,250.0,test,0,M
1120.87893486,5,1000,5,0,2,1,0,4,5,3,0,250.0,test,1,M
560.708045959,0,1000,3,1,2,1,0,4,5,3,0,250.0,test,0,M
704.034805298,1,1000,0,1,2,1,0,4,5,3,0,250.0,test,1,M
751.597881317,3,1000,4,1,2,1,0,4,5,3,0,250.0,test,3,M
623.947143555,3,1000,4,1,2,1,0,4,5,3,0,250.0,test,3,M
688.296079636,2,1000,1,1,2,1,0,4,5,3,0,250.0,test,2,M
1008.2859993,5,1000,5,1,2,1,0,4,5,3,0,250.0,test,5,M
799.565076828,2,1000,1,1,2,1,0,4,5,3,0,250.0,test,2,M
528.336048126,2,1000,1,1,2,1,0,4,5,3,0,250.0,test,2,M
464.265108109,2,1000,1,1,2,1,0,4,5,3,0,250.0,test,2,M
559.711933136,0,1000,3,1,2,1,0,4,5,3,0,250.0,test,0,M
672.142028809,1,1000,0,1,2,1,0,4,5,3,0,250.0,test,1,M
592.309951782,3,1000,4,1,2,1,0,4,5,3,0,250.0,test,3,M
527.651071548,3,1000,4,1,2,1,0,4,5,3,0,250.0,test,3,M
559.955835342,5,1000,5,1,2,1,0,4,5,3,0,250.0,test,5,M
1039.83402252,0,1000,3,1,2,1,0,4,5,3,0,250.0,test,0,M
735.879898071,2,1000,1,1,2,1,0,4,5,3,0,250.0,test,2,M
704.491853714,0,1000,3,1,2,1,0,4,5,3,0,250.0,test,0,M
672.312021255,5,1000,5,1,2,1,0,4,5,3,0,250.0,test,5,M
656.391859055,3,1000,4,1,2,1,0,4,5,3,0,250.0,test,3,M
512.235164642,5,1000,5,1,2,1,0,4,5,3,0,250.0,test,5,M
1359.95388031,5,1000,5,1,2,1,0,4,5,3,0,250.0,test,5,M
656.254053116,2,1000,1,1,2,1,0,4,5,3,0,250.0,test,2,M
592.417001724,0,1000,3,1,2,1,0,4,5,3,0,250.0,test,0,M
624.763011932,5,1000,5,1,2,1,0,4,5,3,0,250.0,test,5,M
592.844963074,0,1000,3,1,2,1,0,4,5,3,0,250.0,test,0,M
736.470937729,1,1000,0,0,2,1,0,4,5,3,0,250.0,test,0,M
735.841035843,2,1000,1,1,2,1,0,4,5,3,0,250.0,test,2,M
623.66604805,3,1000,4,1,2,1,0,4,5,3,0,250.0,test,3,M
575.774908066,5,1000,5,1,2,1,0,4,5,3,0,250.0,test,5,M
639.711856842,5,1000,5,1,2,1,0,4,5,3,0,250.0,test,5,M
767.991065979,1,1000,0,1,2,1,0,4,5,3,0,250.0,test,1,M
783.928871155,2,1000,1,1,2,1,0,4,5,3,0,250.0,test,2,M
448.021888733,2,1000,1,1,2,1,0,4,5,3,0,250.0,test,2,M
559.78012085,2,1000,1,1,2,1,0,4,5,3,0,250.0,test,2,M
671.854972839,4,1000,2,1,2,1,0,4,5,3,0,250.0,test,4,M
736.29117012,3,1000,4,1,2,1,0,4,5,3,0,250.0,test,3,M
544.24905777,5,1000,5,1,2,1,0,4,5,3,0,250.0,test,5,M
816.293001175,0,1000,3,1,2,1,0,4,5,3,0,250.0,test,0,M
927.933931351,3,1000,4,0,2,1,0,4,5,3,0,250.0,test,4,M
815.571069717,1,1000,0,1,2,1,0,4,5,3,0,250.0,test,1,M
895.825862885,4,1000,2,1,2,1,0,4,5,3,0,250.0,test,4,M
