RT,correct_response,ms-prestimblank,curstim,correct,SRmap_1,SRmap_0,SRmap_3,SRmap_2,SRmap_5,SRmap_4,ms-precue,ntrials,type,response,condition
11295.4201698,4,1000,5,1,1,3,5,2,4,0,0,250.0,train,4,H-
3407.9887867,5,1000,3,1,1,3,5,2,4,0,0,250.0,train,5,H-
3072.27492332,3,1000,0,1,1,3,5,2,4,0,0,250.0,train,3,H-
880.213022232,5,1000,3,1,1,3,5,2,4,0,0,250.0,train,5,H-
1264.01996613,4,1000,5,1,1,3,5,2,4,0,0,250.0,train,4,H-
736.373901367,4,1000,5,1,1,3,5,2,4,0,0,250.0,train,4,H-
1151.93796158,3,1000,0,1,1,3,5,2,4,0,0,250.0,train,3,H-
879.853010178,5,1000,3,1,1,3,5,2,4,0,0,250.0,train,5,H-
1023.68617058,1,1000,1,1,1,3,5,2,4,0,0,250.0,train,1,H-
799.632787704,5,1000,3,1,1,3,5,2,4,0,0,250.0,train,5,H-
736.212968826,4,1000,5,1,1,3,5,2,4,0,0,250.0,train,4,H-
1231.64415359,0,1000,4,1,1,3,5,2,4,0,0,250.0,train,0,H-
1184.75294113,2,1000,2,1,1,3,5,2,4,0,0,250.0,train,2,H-
847.403049469,1,1000,1,1,1,3,5,2,4,0,0,250.0,train,1,H-
864.356994629,5,1000,3,0,1,3,5,2,4,0,0,250.0,train,4,H-
1039.73793983,0,1000,4,1,1,3,5,2,4,0,0,250.0,train,0,H-
799.75104332,4,1000,5,1,1,3,5,2,4,0,0,250.0,train,4,H-
1279.64711189,2,1000,2,1,1,3,5,2,4,0,0,250.0,train,2,H-
831.892967224,5,1000,3,0,1,3,5,2,4,0,0,250.0,train,4,H-
815.855979919,0,1000,4,1,1,3,5,2,4,0,0,250.0,train,0,H-
767.903089523,1,1000,1,1,1,3,5,2,4,0,0,250.0,train,1,H-
848.345994949,1,1000,1,1,1,3,5,2,4,0,0,250.0,train,1,H-
816.359043121,4,1000,5,1,1,3,5,2,4,0,0,250.0,train,4,H-
864.4490242,2,1000,2,1,1,3,5,2,4,0,0,250.0,train,2,H-
544.404983521,1,1000,1,1,1,3,5,2,4,0,0,250.0,train,1,H-
688.436985016,2,1000,2,1,1,3,5,2,4,0,0,250.0,train,2,H-
560.307025909,2,1000,2,1,1,3,5,2,4,0,0,250.0,train,2,H-
1360.15892029,3,1000,0,1,1,3,5,2,4,0,0,250.0,train,3,H-
848.394155502,5,1000,3,1,1,3,5,2,4,0,0,250.0,train,5,H-
1408.36119652,3,1000,0,0,1,3,5,2,4,0,0,250.0,train,2,H-
992.356061935,3,1000,0,1,1,3,5,2,4,0,0,250.0,train,3,H-
768.239974976,3,1000,0,1,1,3,5,2,4,0,0,250.0,train,3,H-
720.350027084,0,1000,4,1,1,3,5,2,4,0,0,250.0,train,0,H-
752.426862717,0,1000,4,1,1,3,5,2,4,0,0,250.0,train,0,H-
928.432941437,4,1000,5,0,1,3,5,2,4,0,0,250.0,train,5,H-
736.358165741,4,1000,5,1,1,3,5,2,4,0,0,250.0,train,4,H-
1152.41503716,2,1000,2,1,1,3,5,2,4,0,0,250.0,train,2,H-
960.309028625,5,1000,3,1,1,3,5,2,4,0,0,250.0,train,5,H-
608.294963837,4,1000,5,1,1,3,5,2,4,0,0,250.0,train,4,H-
688.482046127,2,1000,2,1,1,3,5,2,4,0,0,250.0,train,2,H-
656.241178513,0,1000,4,1,1,3,5,2,4,0,0,250.0,train,0,H-
768.443822861,5,1000,3,1,1,3,5,2,4,0,0,250.0,train,5,H-
608.654975891,2,1000,2,0,1,3,5,2,4,0,0,250.0,train,1,H-
1023.11301231,1,1000,1,1,1,3,5,2,4,0,0,250.0,train,1,H-
879.767894745,4,1000,5,1,1,3,5,2,4,0,0,250.0,train,4,H-
752.154827118,5,1000,3,1,1,3,5,2,4,0,0,250.0,train,5,H-
607.701063156,0,1000,4,1,1,3,5,2,4,0,0,250.0,train,0,H-
608.113050461,5,1000,3,1,1,3,5,2,4,0,0,250.0,train,5,H-
655.622959137,4,1000,5,1,1,3,5,2,4,0,0,250.0,train,4,H-
687.638044357,5,1000,3,1,1,3,5,2,4,0,0,250.0,train,5,H-
863.136053085,5,1000,3,1,1,3,5,2,4,0,0,250.0,train,5,H-
895.787000656,3,1000,0,1,1,3,5,2,4,0,0,250.0,train,3,H-
543.752908707,0,1000,4,1,1,3,5,2,4,0,0,250.0,train,0,H-
511.873006821,1,1000,1,1,1,3,5,2,4,0,0,250.0,train,1,H-
1407.86099434,3,1000,0,1,1,3,5,2,4,0,0,250.0,train,3,H-
672.608137131,4,1000,5,1,1,3,5,2,4,0,0,250.0,train,4,H-
783.732891083,4,1000,5,1,1,3,5,2,4,0,0,250.0,train,4,H-
639.964103699,0,1000,4,1,1,3,5,2,4,0,0,250.0,train,0,H-
735.813140869,2,1000,2,1,1,3,5,2,4,0,0,250.0,train,2,H-
799.868822098,5,1000,3,1,1,3,5,2,4,0,0,250.0,train,5,H-
847.727060318,4,1000,5,1,1,3,5,2,4,0,0,250.0,train,4,H-
639.475107193,0,1000,4,1,1,3,5,2,4,0,0,250.0,train,0,H-
448.039054871,0,1000,4,1,1,3,5,2,4,0,0,250.0,train,0,H-
1056.24890327,5,1000,3,1,1,3,5,2,4,0,0,250.0,train,5,H-
528.344869614,5,1000,3,1,1,3,5,2,4,0,0,250.0,train,5,H-
544.340848923,0,1000,4,1,1,3,5,2,4,0,0,250.0,train,0,H-
608.391046524,1,1000,1,1,1,3,5,2,4,0,0,250.0,train,1,H-
416.423797607,2,1000,2,1,1,3,5,2,4,0,0,250.0,train,2,H-
528.475999832,0,1000,4,1,1,3,5,2,4,0,0,250.0,train,0,H-
528.390884399,2,1000,2,0,1,3,5,2,4,0,0,250.0,train,1,H-
752.313137054,4,1000,5,0,1,3,5,2,4,0,0,250.0,train,5,H-
624.228000641,5,1000,3,1,1,3,5,2,4,0,0,250.0,train,5,H-
672.324180603,5,1000,3,1,1,3,5,2,4,0,0,250.0,train,5,H-
544.78597641,5,1000,3,1,1,3,5,2,4,0,0,250.0,train,5,H-
480.280160904,5,1000,3,1,1,3,5,2,4,0,0,250.0,train,5,H-
640.328168869,5,1000,3,1,1,3,5,2,4,0,0,250.0,train,5,H-
864.144086838,2,1000,2,1,1,3,5,2,4,0,0,250.0,train,2,H-
464.433908463,2,1000,2,1,1,3,5,2,4,0,0,250.0,train,2,H-
592.37408638,5,1000,3,1,1,3,5,2,4,0,0,250.0,train,5,H-
608.409881592,1,1000,1,1,1,3,5,2,4,0,0,250.0,train,1,H-
784.452915192,2,1000,2,1,1,3,5,2,4,0,0,250.0,train,2,H-
800.51612854,4,1000,5,1,1,3,5,2,4,0,0,250.0,train,4,H-
688.426017761,4,1000,5,1,1,3,5,2,4,0,0,250.0,train,4,H-
544.449090958,4,1000,5,1,1,3,5,2,4,0,0,250.0,train,4,H-
512.440919876,0,1000,4,1,1,3,5,2,4,0,0,250.0,train,0,H-
575.964927673,5,1000,3,1,1,3,5,2,4,0,0,250.0,train,5,H-
672.178030014,2,1000,2,0,1,3,5,2,4,0,0,250.0,train,1,H-
928.390026093,3,1000,0,1,1,3,5,2,4,0,0,250.0,train,3,H-
688.364028931,5,1000,3,1,1,3,5,2,4,0,0,250.0,train,5,H-
640.419960022,5,1000,3,1,1,3,5,2,4,0,0,250.0,train,5,H-
720.40104866,3,1000,0,1,1,3,5,2,4,0,0,250.0,train,3,H-
864.11190033,1,1000,1,1,1,3,5,2,4,0,0,250.0,train,1,H-
528.427124023,5,1000,3,1,1,3,5,2,4,0,0,250.0,train,5,H-
704.346895218,3,1000,0,1,1,3,5,2,4,0,0,250.0,train,3,H-
832.3969841,4,1000,5,1,1,3,5,2,4,0,0,250.0,train,4,H-
1040.48681259,1,1000,1,1,1,3,5,2,4,0,0,250.0,train,1,H-
864.207983017,4,1000,5,1,1,3,5,2,4,0,0,250.0,train,4,H-
464.215040207,5,1000,3,1,1,3,5,2,4,0,0,250.0,train,5,H-
416.416883469,0,1000,4,1,1,3,5,2,4,0,0,250.0,train,0,H-
400.424957275,0,1000,4,1,1,3,5,2,4,0,0,250.0,train,0,H-
1136.44814491,3,1000,0,1,1,3,5,2,4,0,0,250.0,train,3,H-
1088.23394775,1,1000,1,1,1,3,5,2,4,0,0,250.0,train,1,H-
544.345140457,1,1000,1,1,1,3,5,2,4,0,0,250.0,train,1,H-
592.356204987,1,1000,1,1,1,3,5,2,4,0,0,250.0,train,1,H-
528.277158737,0,1000,4,1,1,3,5,2,4,0,0,250.0,train,0,H-
848.42300415,2,1000,2,1,1,3,5,2,4,0,0,250.0,train,2,H-
688.25507164,3,1000,0,1,1,3,5,2,4,0,0,250.0,train,3,H-
528.405189514,3,1000,0,1,1,3,5,2,4,0,0,250.0,train,3,H-
384.462118149,5,1000,3,1,1,3,5,2,4,0,0,250.0,train,5,H-
576.44701004,0,1000,4,1,1,3,5,2,4,0,0,250.0,train,0,H-
768.265008926,4,1000,5,1,1,3,5,2,4,0,0,250.0,train,4,H-
624.295949936,4,1000,5,1,1,3,5,2,4,0,0,250.0,train,4,H-
880.321979523,1,1000,1,1,1,3,5,2,4,0,0,250.0,train,1,H-
848.440885544,3,1000,0,0,1,3,5,2,4,0,0,250.0,train,4,H-
592.378139496,5,1000,3,1,1,3,5,2,4,0,0,250.0,train,5,H-
400.287866592,5,1000,3,1,1,3,5,2,4,0,0,250.0,train,5,H-
784.415960312,3,1000,0,1,1,3,5,2,4,0,0,250.0,train,3,H-
640.290021896,3,1000,0,1,1,3,5,2,4,0,0,250.0,train,3,H-
736.445903778,3,1000,0,1,1,3,5,2,4,0,0,250.0,train,3,H-
512.364149094,2,1000,2,0,1,3,5,2,4,0,0,250.0,train,1,H-
576.797008514,2,1000,2,1,1,3,5,2,4,0,0,250.0,train,2,H-
480.267047882,1,1000,1,1,1,3,5,2,4,0,0,250.0,train,1,H-
496.325016022,0,1000,4,1,1,3,5,2,4,0,0,250.0,train,0,H-
944.091081619,2,1000,2,1,1,3,5,2,4,0,0,250.0,train,2,H-
512.272834778,0,1000,4,1,1,3,5,2,4,0,0,250.0,train,0,H-
816.28704071,2,1000,2,1,1,3,5,2,4,0,0,250.0,train,2,H-
576.502799988,5,1000,3,1,1,3,5,2,4,0,0,250.0,train,5,H-
528.402090073,0,1000,4,1,1,3,5,2,4,0,0,250.0,train,0,H-
672.068119049,3,1000,0,1,1,3,5,2,4,0,0,250.0,train,3,H-
528.406143188,0,1000,4,1,1,3,5,2,4,0,0,250.0,train,0,H-
480.308055878,5,1000,3,1,1,3,5,2,4,0,0,250.0,train,5,H-
416.424036026,0,1000,4,1,1,3,5,2,4,0,0,250.0,train,0,H-
400.279998779,0,1000,4,1,1,3,5,2,4,0,0,250.0,train,0,H-
576.374053955,1,1000,1,1,1,3,5,2,4,0,0,250.0,train,1,H-
848.38104248,4,1000,5,1,1,3,5,2,4,0,0,250.0,train,4,H-
528.367996216,0,1000,4,1,1,3,5,2,4,0,0,250.0,train,0,H-
400.342941284,0,1000,4,1,1,3,5,2,4,0,0,250.0,train,0,H-
528.405189514,1,1000,1,1,1,3,5,2,4,0,0,250.0,train,1,H-
848.441123962,3,1000,0,1,1,3,5,2,4,0,0,250.0,train,3,H-
768.357038498,2,1000,2,1,1,3,5,2,4,0,0,250.0,train,2,H-
512.367010117,1,1000,1,1,1,3,5,2,4,0,0,250.0,train,1,H-
448.429822922,2,1000,2,0,1,3,5,2,4,0,0,250.0,train,1,H-
576.757192612,2,1000,2,1,1,3,5,2,4,0,0,250.0,train,2,H-
464.454889297,1,1000,1,1,1,3,5,2,4,0,0,250.0,train,1,H-
592.456817627,5,1000,3,1,1,3,5,2,4,0,0,250.0,train,5,H-
560.460805893,0,1000,4,1,1,3,5,2,4,0,0,250.0,train,0,H-
464.320898056,0,1000,4,1,1,3,5,2,4,0,0,250.0,train,0,H-
512.325048447,5,1000,3,1,1,3,5,2,4,0,0,250.0,train,5,H-
400.219917297,5,1000,3,1,1,3,5,2,4,0,0,250.0,train,5,H-
512.391805649,5,1000,3,1,1,3,5,2,4,0,0,250.0,train,5,H-
496.332168579,5,1000,3,1,1,3,5,2,4,0,0,250.0,train,5,H-
512.442111969,1,1000,1,1,1,3,5,2,4,0,0,250.0,train,1,H-
528.533935547,5,1000,3,1,1,3,5,2,4,0,0,250.0,train,5,H-
464.385032654,1,1000,1,1,1,3,5,2,4,0,0,250.0,train,1,H-
608.280897141,3,1000,0,1,1,3,5,2,4,0,0,250.0,train,3,H-
496.406793594,5,1000,3,1,1,3,5,2,4,0,0,250.0,train,5,H-
400.366067886,0,1000,4,1,1,3,5,2,4,0,0,250.0,train,0,H-
480.392932892,0,1000,4,1,1,3,5,2,4,0,0,250.0,train,0,H-
768.358945847,3,1000,0,1,1,3,5,2,4,0,0,250.0,train,3,H-
544.147014618,5,1000,3,1,1,3,5,2,4,0,0,250.0,train,5,H-
576.33805275,2,1000,2,0,1,3,5,2,4,0,0,250.0,train,1,H-
736.357927322,4,1000,5,1,1,3,5,2,4,0,0,250.0,train,4,H-
640.198945999,2,1000,2,1,1,3,5,2,4,0,0,250.0,train,2,H-
688.34900856,3,1000,0,1,1,3,5,2,4,0,0,250.0,train,3,H-
784.523010254,2,1000,2,1,1,3,5,2,4,0,0,250.0,train,2,H-
800.516843796,4,1000,5,1,1,3,5,2,4,0,0,250.0,train,4,H-
624.423027039,2,1000,2,1,1,3,5,2,4,0,0,250.0,train,2,H-
496.476888657,2,1000,2,1,1,3,5,2,4,0,0,250.0,train,2,H-
528.492927551,2,1000,2,1,1,3,5,2,4,0,0,250.0,train,2,H-
784.512996674,3,1000,0,1,1,3,5,2,4,0,0,250.0,train,3,H-
528.367996216,0,1000,4,1,1,3,5,2,4,0,0,250.0,train,0,H-
480.15499115,0,1000,4,1,1,3,5,2,4,0,0,250.0,train,0,H-
384.301185608,5,1000,3,1,1,3,5,2,4,0,0,250.0,train,5,H-
608.211994171,2,1000,2,1,1,3,5,2,4,0,0,250.0,train,2,H-
544.289827347,2,1000,2,1,1,3,5,2,4,0,0,250.0,train,2,H-
560.41097641,2,1000,2,1,1,3,5,2,4,0,0,250.0,train,2,H-
896.298885345,3,1000,0,1,1,3,5,2,4,0,0,250.0,train,3,H-
512.363195419,5,1000,3,1,1,3,5,2,4,0,0,250.0,train,5,H-
400.390863419,0,1000,4,1,1,3,5,2,4,0,0,250.0,train,0,H-
592.395067215,2,1000,2,1,1,3,5,2,4,0,0,250.0,train,2,H-
608.537912369,3,1000,0,1,1,3,5,2,4,0,0,250.0,train,3,H-
592.385053635,1,1000,1,1,1,3,5,2,4,0,0,250.0,train,1,H-
368.000984192,3,1000,0,0,1,3,5,2,4,0,0,250.0,train,0,H-
767.61507988,3,1000,0,1,1,3,5,2,4,0,0,250.0,train,3,H-
575.932025909,0,1000,4,1,1,3,5,2,4,0,0,250.0,train,0,H-
560.155153275,1,1000,1,1,1,3,5,2,4,0,0,250.0,train,1,H-
528.774023056,0,1000,4,1,1,3,5,2,4,0,0,250.0,train,0,H-
720.645904541,4,1000,5,1,1,3,5,2,4,0,0,250.0,train,4,H-
912.319898605,3,1000,0,1,1,3,5,2,4,0,0,250.0,train,3,H-
576.428174973,2,1000,2,1,1,3,5,2,4,0,0,250.0,train,2,H-
592.257022858,2,1000,2,1,1,3,5,2,4,0,0,250.0,train,2,H-
448.302030563,2,1000,2,1,1,3,5,2,4,0,0,250.0,train,2,H-
927.730083466,5,1000,3,1,1,3,5,2,4,0,0,250.0,train,5,H-
383.802890778,5,1000,3,1,1,3,5,2,4,0,0,250.0,train,5,H-
592.411994934,2,1000,2,1,1,3,5,2,4,0,0,250.0,train,2,H-
464.346885681,1,1000,1,1,1,3,5,2,4,0,0,250.0,train,1,H-
432.234048843,1,1000,1,1,1,3,5,2,4,0,0,250.0,train,1,H-
400.345802307,0,1000,4,1,1,3,5,2,4,0,0,250.0,train,0,H-
528.422832489,1,1000,1,1,1,3,5,2,4,0,0,250.0,train,1,H-
448.475837708,1,1000,1,1,1,3,5,2,4,0,0,250.0,train,1,H-
608.347177505,5,1000,3,1,1,3,5,2,4,0,0,250.0,train,5,H-
640.429019928,3,1000,0,1,1,3,5,2,4,0,0,250.0,train,3,H-
544.385194778,2,1000,2,0,1,3,5,2,4,0,0,250.0,train,1,H-
432.247161865,2,1000,2,1,1,3,5,2,4,0,0,250.0,train,2,H-
512.105941772,2,1000,2,1,1,3,5,2,4,0,0,250.0,train,2,H-
544.221878052,5,1000,3,1,1,3,5,2,4,0,0,250.0,train,5,H-
895.719051361,3,1000,0,1,1,3,5,2,4,0,0,250.0,train,3,H-
495.814085007,2,1000,2,1,1,3,5,2,4,0,0,250.0,train,2,H-
383.625030518,3,1000,0,0,1,3,5,2,4,0,0,250.0,train,0,H-
767.956972122,3,1000,0,1,1,3,5,2,4,0,0,250.0,train,3,H-
527.689933777,5,1000,3,1,1,3,5,2,4,0,0,250.0,train,5,H-
623.7180233,3,1000,0,1,1,3,5,2,4,0,0,250.0,train,3,H-
895.752906799,4,1000,5,1,1,3,5,2,4,0,0,250.0,train,4,H-
543.473958969,5,1000,3,1,1,3,5,2,4,0,0,250.0,train,5,H-
576.717853546,4,1000,5,1,1,3,5,2,4,0,0,250.0,train,4,H-
527.680158615,5,1000,3,1,1,3,5,2,4,0,0,250.0,train,5,H-
607.651948929,0,1000,4,1,1,3,5,2,4,0,0,250.0,train,0,H-
1391.80898666,0,1000,4,1,1,3,5,2,4,0,0,250.0,train,0,H-
591.721057892,1,1000,1,1,1,3,5,2,4,0,0,250.0,train,1,H-
560.220003128,5,1000,3,1,1,3,5,2,4,0,0,250.0,train,5,H-
768.249034882,3,1000,0,1,1,3,5,2,4,0,0,250.0,train,3,H-
528.124094009,5,1000,3,1,1,3,5,2,4,0,0,250.0,train,5,H-
560.08887291,0,1000,4,1,1,3,5,2,4,0,0,250.0,train,0,H-
672.011137009,4,1000,5,1,1,3,5,2,4,0,0,250.0,train,4,H-
544.332027435,5,1000,3,1,1,3,5,2,4,0,0,250.0,train,5,H-
496.402025223,1,1000,1,1,1,3,5,2,4,0,0,250.0,train,1,H-
544.21210289,2,1000,2,1,1,3,5,2,4,0,0,250.0,train,2,H-
575.50907135,5,1000,3,0,1,3,5,2,4,0,0,250.0,train,2,H-
848.84095192,3,1000,0,1,1,3,5,2,4,0,0,250.0,train,3,H-
592.310190201,1,1000,1,1,1,3,5,2,4,0,0,250.0,train,1,H-
720.116853714,4,1000,5,1,1,3,5,2,4,0,0,250.0,train,4,H-
592.777013779,4,1000,5,1,1,3,5,2,4,0,0,250.0,train,4,H-
480.298042297,5,1000,3,1,1,3,5,2,4,0,0,250.0,train,5,H-
495.82695961,1,1000,1,1,1,3,5,2,4,0,0,250.0,train,1,H-
576.056003571,4,1000,5,1,1,3,5,2,4,0,0,250.0,train,4,H-
608.275175095,2,1000,2,1,1,3,5,2,4,0,0,250.0,train,2,H-
592.034816742,1,1000,1,1,1,3,5,2,4,0,0,250.0,train,1,H-
511.979103088,1,1000,1,1,1,3,5,2,4,0,0,250.0,train,1,H-
384.389877319,3,1000,0,0,1,3,5,2,4,0,0,250.0,train,0,H-
1152.14204788,3,1000,0,1,1,3,5,2,4,0,0,250.0,train,3,H-
496.330976486,0,1000,4,1,1,3,5,2,4,0,0,250.0,train,0,H-
480.139017105,5,1000,3,1,1,3,5,2,4,0,0,250.0,train,5,H-
415.922880173,0,1000,4,1,1,3,5,2,4,0,0,250.0,train,0,H-
784.367084503,3,1000,0,1,1,3,5,2,4,0,0,250.0,train,3,H-
575.902938843,2,1000,2,1,1,3,5,2,4,0,0,250.0,train,2,H-
495.794057846,1,1000,1,0,1,3,5,2,4,0,0,250.0,train,2,H-
543.819904327,2,1000,2,1,1,3,5,2,4,0,0,250.0,train,2,H-
831.588983536,4,1000,5,1,1,3,5,2,4,0,0,250.0,train,4,H-
543.499946594,5,1000,3,1,1,3,5,2,4,0,0,250.0,train,5,H-
399.793148041,0,1000,4,1,1,3,5,2,4,0,0,250.0,train,0,H-
1344.08998489,0,1000,2,1,1,4,2,0,5,3,0,250.0,test,0,H-
496.653795242,0,1000,2,1,1,4,2,0,5,3,0,250.0,test,0,H-
416.129112244,5,1000,5,1,1,4,2,0,5,3,0,250.0,test,5,H-
879.779815674,0,1000,2,1,1,4,2,0,5,3,0,250.0,test,0,H-
1263.68713379,3,1000,4,1,1,4,2,0,5,3,0,250.0,test,3,H-
463.77491951,3,1000,4,1,1,4,2,0,5,3,0,250.0,test,3,H-
591.814994812,2,1000,3,0,1,4,2,0,5,3,0,250.0,test,5,H-
528.121948242,2,1000,3,1,1,4,2,0,5,3,0,250.0,test,2,H-
960.262060165,3,1000,4,1,1,4,2,0,5,3,0,250.0,test,3,H-
623.876094818,1,1000,1,1,1,4,2,0,5,3,0,250.0,test,1,H-
720.231056213,4,1000,0,1,1,4,2,0,5,3,0,250.0,test,4,H-
720.278024673,3,1000,4,1,1,4,2,0,5,3,0,250.0,test,3,H-
848.751068115,4,1000,0,1,1,4,2,0,5,3,0,250.0,test,4,H-
672.332048416,3,1000,4,1,1,4,2,0,5,3,0,250.0,test,3,H-
1264.33300972,4,1000,0,1,1,4,2,0,5,3,0,250.0,test,4,H-
735.764980316,2,1000,3,1,1,4,2,0,5,3,0,250.0,test,2,H-
1407.66692162,5,1000,5,1,1,4,2,0,5,3,0,250.0,test,5,H-
607.805013657,1,1000,1,0,1,4,2,0,5,3,0,250.0,test,2,H-
575.788021088,1,1000,1,1,1,4,2,0,5,3,0,250.0,test,1,H-
1119.69184875,4,1000,0,1,1,4,2,0,5,3,0,250.0,test,4,H-
863.290071487,2,1000,3,1,1,4,2,0,5,3,0,250.0,test,2,H-
623.684167862,5,1000,5,1,1,4,2,0,5,3,0,250.0,test,5,H-
607.880830765,4,1000,0,1,1,4,2,0,5,3,0,250.0,test,4,H-
559.885978699,1,1000,1,1,1,4,2,0,5,3,0,250.0,test,1,H-
751.966953278,3,1000,4,1,1,4,2,0,5,3,0,250.0,test,3,H-
735.737800598,2,1000,3,1,1,4,2,0,5,3,0,250.0,test,2,H-
720.081806183,4,1000,0,1,1,4,2,0,5,3,0,250.0,test,4,H-
623.955965042,5,1000,5,1,1,4,2,0,5,3,0,250.0,test,5,H-
607.777118683,0,1000,2,0,1,4,2,0,5,3,0,250.0,test,1,H-
832.764148712,3,1000,4,1,1,4,2,0,5,3,0,250.0,test,3,H-
688.165903091,4,1000,0,1,1,4,2,0,5,3,0,250.0,test,4,H-
736.423015594,1,1000,1,1,1,4,2,0,5,3,0,250.0,test,1,H-
768.146038055,3,1000,4,1,1,4,2,0,5,3,0,250.0,test,3,H-
559.714078903,2,1000,3,1,1,4,2,0,5,3,0,250.0,test,2,H-
575.195789337,5,1000,5,1,1,4,2,0,5,3,0,250.0,test,5,H-
607.961893082,5,1000,5,1,1,4,2,0,5,3,0,250.0,test,5,H-
655.906915665,2,1000,3,1,1,4,2,0,5,3,0,250.0,test,2,H-
416.024923325,2,1000,3,1,1,4,2,0,5,3,0,250.0,test,2,H-
752.403974533,3,1000,4,1,1,4,2,0,5,3,0,250.0,test,3,H-
944.756984711,4,1000,0,1,1,4,2,0,5,3,0,250.0,test,4,H-
672.311067581,5,1000,5,0,1,4,2,0,5,3,0,250.0,test,2,H-
720.358848572,5,1000,5,1,1,4,2,0,5,3,0,250.0,test,5,H-
751.978874207,1,1000,1,1,1,4,2,0,5,3,0,250.0,test,1,H-
688.369035721,5,1000,5,1,1,4,2,0,5,3,0,250.0,test,5,H-
656.23497963,4,1000,0,1,1,4,2,0,5,3,0,250.0,test,4,H-
543.663978577,5,1000,5,0,1,4,2,0,5,3,0,250.0,test,4,H-
1455.68799973,0,1000,2,1,1,4,2,0,5,3,0,250.0,test,0,H-
848.162889481,0,1000,2,1,1,4,2,0,5,3,0,250.0,test,0,H-
896.004915237,4,1000,0,1,1,4,2,0,5,3,0,250.0,test,4,H-
624.382972717,5,1000,5,1,1,4,2,0,5,3,0,250.0,test,5,H-
624.266862869,4,1000,0,1,1,4,2,0,5,3,0,250.0,test,4,H-
591.84217453,1,1000,1,1,1,4,2,0,5,3,0,250.0,test,1,H-
655.719995499,2,1000,3,1,1,4,2,0,5,3,0,250.0,test,2,H-
767.868041992,3,1000,4,0,1,4,2,0,5,3,0,250.0,test,4,H-
655.732154846,5,1000,5,1,1,4,2,0,5,3,0,250.0,test,5,H-
639.822006226,0,1000,2,1,1,4,2,0,5,3,0,250.0,test,0,H-
591.768026352,1,1000,1,1,1,4,2,0,5,3,0,250.0,test,1,H-
495.82195282,1,1000,1,1,1,4,2,0,5,3,0,250.0,test,1,H-
447.780847549,0,1000,2,0,1,4,2,0,5,3,0,250.0,test,1,H-
1135.90192795,4,1000,0,1,1,4,2,0,5,3,0,250.0,test,4,H-
559.787988663,1,1000,1,1,1,4,2,0,5,3,0,250.0,test,1,H-
575.845003128,5,1000,5,1,1,4,2,0,5,3,0,250.0,test,5,H-
479.830026627,3,1000,4,0,1,4,2,0,5,3,0,250.0,test,0,H-
735.717058182,0,1000,2,1,1,4,2,0,5,3,0,250.0,test,0,H-
992.01798439,4,1000,0,1,1,4,2,0,5,3,0,250.0,test,4,H-
687.428951263,4,1000,0,1,1,4,2,0,5,3,0,250.0,test,4,H-
527.916193008,5,1000,5,1,1,4,2,0,5,3,0,250.0,test,5,H-
624.882936478,4,1000,0,1,1,4,2,0,5,3,0,250.0,test,4,H-
719.769954681,0,1000,2,1,1,4,2,0,5,3,0,250.0,test,0,H-
431.810855865,0,1000,2,1,1,4,2,0,5,3,0,250.0,test,0,H-
543.936014175,2,1000,3,0,1,4,2,0,5,3,0,250.0,test,5,H-
479.854106903,0,1000,2,1,1,4,2,0,5,3,0,250.0,test,0,H-
720.777988434,5,1000,5,0,1,4,2,0,5,3,0,250.0,test,4,H-
1040.30799866,4,1000,0,1,1,4,2,0,5,3,0,250.0,test,4,H-
624.400138855,5,1000,5,1,1,4,2,0,5,3,0,250.0,test,5,H-
624.836921692,3,1000,4,1,1,4,2,0,5,3,0,250.0,test,3,H-
560.23311615,1,1000,1,1,1,4,2,0,5,3,0,250.0,test,1,H-
1071.8998909,4,1000,0,1,1,4,2,0,5,3,0,250.0,test,4,H-
543.7541008,1,1000,1,1,1,4,2,0,5,3,0,250.0,test,1,H-
655.943870544,2,1000,3,1,1,4,2,0,5,3,0,250.0,test,2,H-
607.871055603,0,1000,2,1,1,4,2,0,5,3,0,250.0,test,0,H-
592.106103897,5,1000,5,0,1,4,2,0,5,3,0,250.0,test,2,H-
799.910068512,4,1000,0,1,1,4,2,0,5,3,0,250.0,test,4,H-
768.430948257,2,1000,3,1,1,4,2,0,5,3,0,250.0,test,2,H-
751.825094223,3,1000,4,1,1,4,2,0,5,3,0,250.0,test,3,H-
639.936923981,4,1000,0,1,1,4,2,0,5,3,0,250.0,test,4,H-
560.20116806,2,1000,3,1,1,4,2,0,5,3,0,250.0,test,2,H-
528.780937195,1,1000,1,1,1,4,2,0,5,3,0,250.0,test,1,H-
479.321956635,1,1000,1,1,1,4,2,0,5,3,0,250.0,test,1,H-
624.800205231,2,1000,3,1,1,4,2,0,5,3,0,250.0,test,2,H-
576.683998108,2,1000,3,1,1,4,2,0,5,3,0,250.0,test,2,H-
688.777923584,4,1000,0,1,1,4,2,0,5,3,0,250.0,test,4,H-
831.820011139,3,1000,4,1,1,4,2,0,5,3,0,250.0,test,3,H-
639.699935913,0,1000,2,1,1,4,2,0,5,3,0,250.0,test,0,H-
1040.80700874,5,1000,5,0,1,4,2,0,5,3,0,250.0,test,4,H-
559.891939163,2,1000,3,1,1,4,2,0,5,3,0,250.0,test,2,H-
624.304056168,5,1000,5,1,1,4,2,0,5,3,0,250.0,test,5,H-
639.698982239,4,1000,0,1,1,4,2,0,5,3,0,250.0,test,4,H-
943.67814064,0,1000,2,0,1,4,2,0,5,3,0,250.0,test,1,H-
767.457008362,3,1000,4,1,1,4,2,0,5,3,0,250.0,test,3,H-
720.02696991,2,1000,3,1,1,4,2,0,5,3,0,250.0,test,2,H-
751.5001297,4,1000,0,1,1,4,2,0,5,3,0,250.0,test,4,H-
527.74310112,1,1000,1,0,1,4,2,0,5,3,0,250.0,test,2,H-
591.734886169,4,1000,0,1,1,4,2,0,5,3,0,250.0,test,4,H-
768.203020096,0,1000,2,1,1,4,2,0,5,3,0,250.0,test,0,H-
672.265052795,3,1000,4,1,1,4,2,0,5,3,0,250.0,test,3,H-
576.179027557,1,1000,1,1,1,4,2,0,5,3,0,250.0,test,1,H-
655.402183533,4,1000,0,1,1,4,2,0,5,3,0,250.0,test,4,H-
528.160095215,4,1000,0,1,1,4,2,0,5,3,0,250.0,test,4,H-
672.3279953,4,1000,0,1,1,4,2,0,5,3,0,250.0,test,4,H-
480.27586937,4,1000,0,1,1,4,2,0,5,3,0,250.0,test,4,H-
624.758958817,2,1000,3,1,1,4,2,0,5,3,0,250.0,test,2,H-
976.021051407,0,1000,2,0,1,4,2,0,5,3,0,250.0,test,1,H-
656.33893013,2,1000,3,1,1,4,2,0,5,3,0,250.0,test,2,H-
559.788942337,0,1000,2,0,1,4,2,0,5,3,0,250.0,test,1,H-
655.80701828,3,1000,4,1,1,4,2,0,5,3,0,250.0,test,3,H-
1488.65103722,5,1000,5,1,1,4,2,0,5,3,0,250.0,test,5,H-
719.98000145,0,1000,2,1,1,4,2,0,5,3,0,250.0,test,0,H-
480.762004852,0,1000,2,1,1,4,2,0,5,3,0,250.0,test,0,H-
704.005002975,2,1000,3,1,1,4,2,0,5,3,0,250.0,test,2,H-
575.268983841,1,1000,1,1,1,4,2,0,5,3,0,250.0,test,1,H-
767.832994461,4,1000,0,1,1,4,2,0,5,3,0,250.0,test,4,H-
751.996994019,1,1000,1,1,1,4,2,0,5,3,0,250.0,test,1,H-
591.623067856,3,1000,4,1,1,4,2,0,5,3,0,250.0,test,3,H-
495.981931686,1,1000,1,1,1,4,2,0,5,3,0,250.0,test,1,H-
608.44707489,4,1000,0,1,1,4,2,0,5,3,0,250.0,test,4,H-
576.206922531,5,1000,5,1,1,4,2,0,5,3,0,250.0,test,5,H-
544.225931168,1,1000,1,0,1,4,2,0,5,3,0,250.0,test,0,H-
767.335891724,5,1000,5,1,1,4,2,0,5,3,0,250.0,test,5,H-
592.766046524,5,1000,5,1,1,4,2,0,5,3,0,250.0,test,5,H-
623.566865921,4,1000,0,1,1,4,2,0,5,3,0,250.0,test,4,H-
544.0928936,1,1000,1,1,1,4,2,0,5,3,0,250.0,test,1,H-
591.846942902,4,1000,0,1,1,4,2,0,5,3,0,250.0,test,4,H-
704.161167145,4,1000,0,1,1,4,2,0,5,3,0,250.0,test,4,H-
592.82207489,3,1000,4,1,1,4,2,0,5,3,0,250.0,test,3,H-
639.966011047,4,1000,0,1,1,4,2,0,5,3,0,250.0,test,4,H-
527.735948563,1,1000,1,1,1,4,2,0,5,3,0,250.0,test,1,H-
623.913049698,3,1000,4,1,1,4,2,0,5,3,0,250.0,test,3,H-
527.792930603,3,1000,4,1,1,4,2,0,5,3,0,250.0,test,3,H-
623.982906342,2,1000,3,1,1,4,2,0,5,3,0,250.0,test,2,H-
464.357852936,1,1000,1,1,1,4,2,0,5,3,0,250.0,test,1,H-
592.303991318,2,1000,3,1,1,4,2,0,5,3,0,250.0,test,2,H-
816.337108612,0,1000,2,1,1,4,2,0,5,3,0,250.0,test,0,H-
639.914035797,3,1000,4,1,1,4,2,0,5,3,0,250.0,test,3,H-
591.886043549,5,1000,5,1,1,4,2,0,5,3,0,250.0,test,5,H-
544.004917145,2,1000,3,1,1,4,2,0,5,3,0,250.0,test,2,H-
527.902126312,2,1000,3,1,1,4,2,0,5,3,0,250.0,test,2,H-
592.242002487,0,1000,2,0,1,4,2,0,5,3,0,250.0,test,1,H-
544.733047485,1,1000,1,1,1,4,2,0,5,3,0,250.0,test,1,H-
639.758110046,2,1000,3,1,1,4,2,0,5,3,0,250.0,test,2,H-
639.758825302,5,1000,5,1,1,4,2,0,5,3,0,250.0,test,5,H-
559.680938721,2,1000,3,1,1,4,2,0,5,3,0,250.0,test,2,H-
751.815080643,3,1000,4,1,1,4,2,0,5,3,0,250.0,test,3,H-
543.980121613,3,1000,4,1,1,4,2,0,5,3,0,250.0,test,3,H-
415.981054306,3,1000,4,1,1,4,2,0,5,3,0,250.0,test,3,H-
656.692028046,5,1000,5,0,1,4,2,0,5,3,0,250.0,test,2,H-
655.828952789,0,1000,2,0,1,4,2,0,5,3,0,250.0,test,1,H-
703.840017319,3,1000,4,1,1,4,2,0,5,3,0,250.0,test,3,H-
624.279022217,2,1000,3,1,1,4,2,0,5,3,0,250.0,test,2,H-
544.389009476,1,1000,1,1,1,4,2,0,5,3,0,250.0,test,1,H-
479.708194733,1,1000,1,1,1,4,2,0,5,3,0,250.0,test,1,H-
495.780944824,1,1000,1,1,1,4,2,0,5,3,0,250.0,test,1,H-
623.937129974,5,1000,5,1,1,4,2,0,5,3,0,250.0,test,5,H-
688.728809357,4,1000,0,1,1,4,2,0,5,3,0,250.0,test,4,H-
592.236995697,1,1000,1,1,1,4,2,0,5,3,0,250.0,test,1,H-
575.824975967,0,1000,2,0,1,4,2,0,5,3,0,250.0,test,1,H-
527.531147003,1,1000,1,1,1,4,2,0,5,3,0,250.0,test,1,H-
1008.27598572,5,1000,5,1,1,4,2,0,5,3,0,250.0,test,5,H-
688.403129578,3,1000,4,1,1,4,2,0,5,3,0,250.0,test,3,H-
864.320039749,2,1000,3,1,1,4,2,0,5,3,0,250.0,test,2,H-
496.299982071,2,1000,3,1,1,4,2,0,5,3,0,250.0,test,2,H-
480.392932892,1,1000,1,1,1,4,2,0,5,3,0,250.0,test,1,H-
448.681116104,1,1000,1,1,1,4,2,0,5,3,0,250.0,test,1,H-
591.810941696,4,1000,0,1,1,4,2,0,5,3,0,250.0,test,4,H-
383.944988251,5,1000,5,1,1,4,2,0,5,3,0,250.0,test,5,H-
495.851039886,1,1000,1,1,1,4,2,0,5,3,0,250.0,test,1,H-
815.857887268,0,1000,2,1,1,4,2,0,5,3,0,250.0,test,0,H-
592.592000961,1,1000,1,1,1,4,2,0,5,3,0,250.0,test,1,H-
559.78012085,0,1000,2,1,1,4,2,0,5,3,0,250.0,test,0,H-
575.839042664,5,1000,5,1,1,4,2,0,5,3,0,250.0,test,5,H-
592.759847641,3,1000,4,1,1,4,2,0,5,3,0,250.0,test,3,H-
672.848939896,2,1000,3,1,1,4,2,0,5,3,0,250.0,test,2,H-
608.741998672,0,1000,2,1,1,4,2,0,5,3,0,250.0,test,0,H-
431.922912598,1,1000,1,1,1,4,2,0,5,3,0,250.0,test,1,H-
432.645082474,2,1000,3,0,1,4,2,0,5,3,0,250.0,test,5,H-
623.576879501,4,1000,0,1,1,4,2,0,5,3,0,250.0,test,4,H-
607.690811157,1,1000,1,1,1,4,2,0,5,3,0,250.0,test,1,H-
431.469917297,0,1000,2,1,1,4,2,0,5,3,0,250.0,test,0,H-
879.956960678,4,1000,0,1,1,4,2,0,5,3,0,250.0,test,4,H-
559.921979904,2,1000,3,1,1,4,2,0,5,3,0,250.0,test,2,H-
591.346025467,3,1000,4,1,1,4,2,0,5,3,0,250.0,test,3,H-
960.010051727,4,1000,0,1,1,4,2,0,5,3,0,250.0,test,4,H-
591.847896576,1,1000,1,1,1,4,2,0,5,3,0,250.0,test,1,H-
736.398935318,5,1000,5,1,1,4,2,0,5,3,0,250.0,test,5,H-
640.347957611,3,1000,4,1,1,4,2,0,5,3,0,250.0,test,3,H-
640.767812729,2,1000,3,1,1,4,2,0,5,3,0,250.0,test,2,H-
576.673984528,2,1000,3,1,1,4,2,0,5,3,0,250.0,test,2,H-
576.803922653,5,1000,5,1,1,4,2,0,5,3,0,250.0,test,5,H-
640.717029572,2,1000,3,1,1,4,2,0,5,3,0,250.0,test,2,H-
688.060045242,4,1000,0,1,1,4,2,0,5,3,0,250.0,test,4,H-
608.127117157,5,1000,5,1,1,4,2,0,5,3,0,250.0,test,5,H-
495.918989182,5,1000,5,1,1,4,2,0,5,3,0,250.0,test,5,H-
560.407876968,1,1000,1,1,1,4,2,0,5,3,0,250.0,test,1,H-
575.945854187,2,1000,3,1,1,4,2,0,5,3,0,250.0,test,2,H-
544.843912125,1,1000,1,1,1,4,2,0,5,3,0,250.0,test,1,H-
719.752073288,4,1000,0,1,1,4,2,0,5,3,0,250.0,test,4,H-
496.381044388,0,1000,2,1,1,4,2,0,5,3,0,250.0,test,0,H-
608.135938644,2,1000,3,1,1,4,2,0,5,3,0,250.0,test,2,H-
544.783115387,4,1000,0,1,1,4,2,0,5,3,0,250.0,test,4,H-
463.629007339,5,1000,5,1,1,4,2,0,5,3,0,250.0,test,5,H-
608.762979507,3,1000,4,1,1,4,2,0,5,3,0,250.0,test,3,H-
768.38183403,4,1000,0,1,1,4,2,0,5,3,0,250.0,test,4,H-
543.881177902,4,1000,0,1,1,4,2,0,5,3,0,250.0,test,4,H-
559.903860092,5,1000,5,1,1,4,2,0,5,3,0,250.0,test,5,H-
591.778039932,3,1000,4,1,1,4,2,0,5,3,0,250.0,test,3,H-
655.861854553,0,1000,2,1,1,4,2,0,5,3,0,250.0,test,0,H-
607.388973236,3,1000,4,1,1,4,2,0,5,3,0,250.0,test,3,H-
575.870990753,5,1000,5,1,1,4,2,0,5,3,0,250.0,test,5,H-
655.750989914,3,1000,4,1,1,4,2,0,5,3,0,250.0,test,3,H-
639.892816544,5,1000,5,1,1,4,2,0,5,3,0,250.0,test,5,H-
623.952150345,4,1000,0,1,1,4,2,0,5,3,0,250.0,test,4,H-
575.85811615,3,1000,4,1,1,4,2,0,5,3,0,250.0,test,3,H-
543.851137161,5,1000,5,1,1,4,2,0,5,3,0,250.0,test,5,H-
607.707977295,0,1000,2,1,1,4,2,0,5,3,0,250.0,test,0,H-
607.796192169,1,1000,1,1,1,4,2,0,5,3,0,250.0,test,1,H-
559.479951859,1,1000,1,0,1,4,2,0,5,3,0,250.0,test,0,H-
544.891834259,2,1000,3,1,1,4,2,0,5,3,0,250.0,test,2,H-
687.698125839,3,1000,4,1,1,4,2,0,5,3,0,250.0,test,3,H-
559.647083282,1,1000,1,1,1,4,2,0,5,3,0,250.0,test,1,H-
479.946136475,2,1000,3,1,1,4,2,0,5,3,0,250.0,test,2,H-
607.362985611,0,1000,2,1,1,4,2,0,5,3,0,250.0,test,0,H-
624.041080475,3,1000,4,1,1,4,2,0,5,3,0,250.0,test,3,H-
480.720043182,2,1000,3,1,1,4,2,0,5,3,0,250.0,test,2,H-
576.706886292,4,1000,0,1,1,4,2,0,5,3,0,250.0,test,4,H-
512.679100037,5,1000,5,1,1,4,2,0,5,3,0,250.0,test,5,H-
543.812036514,5,1000,5,1,1,4,2,0,5,3,0,250.0,test,5,H-
464.164972305,2,1000,3,1,1,4,2,0,5,3,0,250.0,test,2,H-
544.100999832,0,1000,2,1,1,4,2,0,5,3,0,250.0,test,0,H-
559.898138046,1,1000,1,1,1,4,2,0,5,3,0,250.0,test,1,H-
544.098138809,0,1000,2,1,1,4,2,0,5,3,0,250.0,test,0,H-
511.650800705,0,1000,2,1,1,4,2,0,5,3,0,250.0,test,0,H-
624.294042587,3,1000,4,1,1,4,2,0,5,3,0,250.0,test,3,H-
496.407985687,5,1000,5,1,1,4,2,0,5,3,0,250.0,test,5,H-
608.0930233,4,1000,0,1,1,4,2,0,5,3,0,250.0,test,4,H-
544.295072556,5,1000,5,0,1,4,2,0,5,3,0,250.0,test,2,H-
576.205015182,0,1000,2,1,1,4,2,0,5,3,0,250.0,test,0,H-
640.290021896,3,1000,4,1,1,4,2,0,5,3,0,250.0,test,3,H-
528.394937515,3,1000,4,0,1,4,2,0,5,3,0,250.0,test,2,H-
734.935045242,4,1000,0,1,1,4,2,0,5,3,0,250.0,test,4,H-
527.909994125,0,1000,2,1,1,4,2,0,5,3,0,250.0,test,0,H-
