RT,correct_response,ms-prestimblank,curstim,correct,SRmap_1,SRmap_0,SRmap_3,SRmap_2,SRmap_5,SRmap_4,ms-precue,ntrials,type,response,condition
2825.88291168,3,1000,0,1,1,3,5,4,2,0,0,250.0,train,3,H+
3433.93206596,4,1000,2,1,1,3,5,4,2,0,0,250.0,train,4,H+
1227.78105736,5,1000,3,1,1,3,5,4,2,0,0,250.0,train,5,H+
2570.37687302,0,1000,4,1,1,3,5,4,2,0,0,250.0,train,0,H+
1306.35499954,0,1000,4,1,1,3,5,4,2,0,0,250.0,train,0,H+
1722.39899635,2,1000,5,1,1,3,5,4,2,0,0,250.0,train,2,H+
1291.77808762,0,1000,4,1,1,3,5,4,2,0,0,250.0,train,0,H+
1002.30407715,2,1000,5,0,1,3,5,4,2,0,0,250.0,train,3,H+
922.291994095,2,1000,5,1,1,3,5,4,2,0,0,250.0,train,2,H+
1418.36690903,4,1000,2,1,1,3,5,4,2,0,0,250.0,train,4,H+
874.23491478,3,1000,0,1,1,3,5,4,2,0,0,250.0,train,3,H+
699.583053589,2,1000,5,1,1,3,5,4,2,0,0,250.0,train,2,H+
810.373067856,4,1000,2,1,1,3,5,4,2,0,0,250.0,train,4,H+
1018.40281487,0,1000,4,1,1,3,5,4,2,0,0,250.0,train,0,H+
762.328147888,5,1000,3,1,1,3,5,4,2,0,0,250.0,train,5,H+
1306.42795563,0,1000,4,1,1,3,5,4,2,0,0,250.0,train,0,H+
987.80298233,5,1000,3,1,1,3,5,4,2,0,0,250.0,train,5,H+
763.057947159,3,1000,0,1,1,3,5,4,2,0,0,250.0,train,3,H+
1082.40199089,2,1000,5,1,1,3,5,4,2,0,0,250.0,train,2,H+
810.274124146,1,1000,1,1,1,3,5,4,2,0,0,250.0,train,1,H+
970.736026764,0,1000,4,1,1,3,5,4,2,0,0,250.0,train,0,H+
842.423915863,4,1000,2,1,1,3,5,4,2,0,0,250.0,train,4,H+
554.318904877,2,1000,5,1,1,3,5,4,2,0,0,250.0,train,2,H+
730.391025543,4,1000,2,1,1,3,5,4,2,0,0,250.0,train,4,H+
970.417022705,2,1000,5,1,1,3,5,4,2,0,0,250.0,train,2,H+
970.335006714,1,1000,1,1,1,3,5,4,2,0,0,250.0,train,1,H+
875.813961029,2,1000,5,1,1,3,5,4,2,0,0,250.0,train,2,H+
587.049007416,3,1000,0,1,1,3,5,4,2,0,0,250.0,train,3,H+
666.420936584,3,1000,0,1,1,3,5,4,2,0,0,250.0,train,3,H+
1338.40107918,3,1000,0,1,1,3,5,4,2,0,0,250.0,train,3,H+
794.211149216,1,1000,1,1,1,3,5,4,2,0,0,250.0,train,1,H+
571.031808853,4,1000,2,1,1,3,5,4,2,0,0,250.0,train,4,H+
603.604793549,0,1000,4,1,1,3,5,4,2,0,0,250.0,train,0,H+
698.273897171,1,1000,1,1,1,3,5,4,2,0,0,250.0,train,1,H+
986.373186111,1,1000,1,1,1,3,5,4,2,0,0,250.0,train,1,H+
762.456893921,0,1000,4,1,1,3,5,4,2,0,0,250.0,train,0,H+
1002.39706039,2,1000,5,0,1,3,5,4,2,0,0,250.0,train,5,H+
731.691122055,2,1000,5,1,1,3,5,4,2,0,0,250.0,train,2,H+
683.043956757,0,1000,4,1,1,3,5,4,2,0,0,250.0,train,0,H+
1050.39286613,1,1000,1,0,1,3,5,4,2,0,0,250.0,train,0,H+
651.705980301,5,1000,3,1,1,3,5,4,2,0,0,250.0,train,5,H+
843.773841858,5,1000,3,1,1,3,5,4,2,0,0,250.0,train,5,H+
683.790922165,0,1000,4,1,1,3,5,4,2,0,0,250.0,train,0,H+
698.453903198,4,1000,2,1,1,3,5,4,2,0,0,250.0,train,4,H+
633.150100708,1,1000,1,1,1,3,5,4,2,0,0,250.0,train,1,H+
1035.10713577,5,1000,3,1,1,3,5,4,2,0,0,250.0,train,5,H+
714.405059814,5,1000,3,1,1,3,5,4,2,0,0,250.0,train,5,H+
778.369903564,3,1000,0,1,1,3,5,4,2,0,0,250.0,train,3,H+
794.455051422,1,1000,1,0,1,3,5,4,2,0,0,250.0,train,0,H+
683.780908585,1,1000,1,1,1,3,5,4,2,0,0,250.0,train,1,H+
730.387926102,3,1000,0,1,1,3,5,4,2,0,0,250.0,train,3,H+
987.113952637,4,1000,2,1,1,3,5,4,2,0,0,250.0,train,4,H+
634.385108948,3,1000,0,1,1,3,5,4,2,0,0,250.0,train,3,H+
538.676977158,2,1000,5,1,1,3,5,4,2,0,0,250.0,train,2,H+
522.300004959,3,1000,0,1,1,3,5,4,2,0,0,250.0,train,3,H+
810.405015945,2,1000,5,1,1,3,5,4,2,0,0,250.0,train,2,H+
1051.09786987,1,1000,1,1,1,3,5,4,2,0,0,250.0,train,1,H+
698.32611084,3,1000,0,1,1,3,5,4,2,0,0,250.0,train,3,H+
458.357095718,2,1000,5,1,1,3,5,4,2,0,0,250.0,train,2,H+
842.318058014,0,1000,4,1,1,3,5,4,2,0,0,250.0,train,0,H+
570.355892181,2,1000,5,0,1,3,5,4,2,0,0,250.0,train,3,H+
810.343980789,3,1000,0,1,1,3,5,4,2,0,0,250.0,train,3,H+
602.365016937,3,1000,0,1,1,3,5,4,2,0,0,250.0,train,3,H+
506.334066391,5,1000,3,1,1,3,5,4,2,0,0,250.0,train,5,H+
1019.85502243,5,1000,3,1,1,3,5,4,2,0,0,250.0,train,5,H+
907.798051834,4,1000,2,1,1,3,5,4,2,0,0,250.0,train,4,H+
602.402925491,3,1000,0,1,1,3,5,4,2,0,0,250.0,train,3,H+
793.206930161,1,1000,1,1,1,3,5,4,2,0,0,250.0,train,1,H+
651.841878891,3,1000,0,1,1,3,5,4,2,0,0,250.0,train,3,H+
907.788991928,0,1000,4,1,1,3,5,4,2,0,0,250.0,train,0,H+
683.738946915,1,1000,1,1,1,3,5,4,2,0,0,250.0,train,1,H+
666.445016861,4,1000,2,1,1,3,5,4,2,0,0,250.0,train,4,H+
618.453979492,0,1000,4,1,1,3,5,4,2,0,0,250.0,train,0,H+
650.411128998,0,1000,4,1,1,3,5,4,2,0,0,250.0,train,0,H+
490.398168564,5,1000,3,1,1,3,5,4,2,0,0,250.0,train,5,H+
698.390007019,5,1000,3,1,1,3,5,4,2,0,0,250.0,train,5,H+
634.378910065,0,1000,4,1,1,3,5,4,2,0,0,250.0,train,0,H+
475.035905838,0,1000,4,1,1,3,5,4,2,0,0,250.0,train,0,H+
522.337913513,5,1000,3,1,1,3,5,4,2,0,0,250.0,train,5,H+
506.366014481,3,1000,0,1,1,3,5,4,2,0,0,250.0,train,3,H+
602.406978607,1,1000,1,1,1,3,5,4,2,0,0,250.0,train,1,H+
618.335008621,5,1000,3,1,1,3,5,4,2,0,0,250.0,train,5,H+
571.719169617,1,1000,1,1,1,3,5,4,2,0,0,250.0,train,1,H+
650.401830673,0,1000,4,1,1,3,5,4,2,0,0,250.0,train,0,H+
555.768013,1,1000,1,0,1,3,5,4,2,0,0,250.0,train,0,H+
762.33291626,2,1000,5,1,1,3,5,4,2,0,0,250.0,train,2,H+
794.389009476,2,1000,5,1,1,3,5,4,2,0,0,250.0,train,2,H+
634.320020676,0,1000,4,1,1,3,5,4,2,0,0,250.0,train,0,H+
651.618003845,3,1000,0,1,1,3,5,4,2,0,0,250.0,train,3,H+
682.461977005,0,1000,4,1,1,3,5,4,2,0,0,250.0,train,0,H+
506.233930588,0,1000,4,1,1,3,5,4,2,0,0,250.0,train,0,H+
810.347080231,2,1000,5,1,1,3,5,4,2,0,0,250.0,train,2,H+
603.844165802,0,1000,4,1,1,3,5,4,2,0,0,250.0,train,0,H+
523.03814888,5,1000,3,1,1,3,5,4,2,0,0,250.0,train,5,H+
683.865070343,1,1000,1,1,1,3,5,4,2,0,0,250.0,train,1,H+
522.325992584,3,1000,0,1,1,3,5,4,2,0,0,250.0,train,3,H+
554.407119751,0,1000,4,1,1,3,5,4,2,0,0,250.0,train,0,H+
442.37780571,4,1000,2,1,1,3,5,4,2,0,0,250.0,train,4,H+
443.770885468,4,1000,2,1,1,3,5,4,2,0,0,250.0,train,4,H+
491.780042648,4,1000,2,1,1,3,5,4,2,0,0,250.0,train,4,H+
651.051998138,5,1000,3,1,1,3,5,4,2,0,0,250.0,train,5,H+
730.362892151,2,1000,5,1,1,3,5,4,2,0,0,250.0,train,2,H+
538.347959518,4,1000,2,1,1,3,5,4,2,0,0,250.0,train,4,H+
1258.18800926,2,1000,5,1,1,3,5,4,2,0,0,250.0,train,2,H+
666.393041611,1,1000,1,1,1,3,5,4,2,0,0,250.0,train,1,H+
490.360021591,2,1000,5,1,1,3,5,4,2,0,0,250.0,train,2,H+
570.377826691,1,1000,1,1,1,3,5,4,2,0,0,250.0,train,1,H+
586.437940598,0,1000,4,1,1,3,5,4,2,0,0,250.0,train,0,H+
602.37622261,0,1000,4,1,1,3,5,4,2,0,0,250.0,train,0,H+
603.790044785,2,1000,5,1,1,3,5,4,2,0,0,250.0,train,2,H+
634.387016296,0,1000,4,1,1,3,5,4,2,0,0,250.0,train,0,H+
379.806041718,2,1000,5,1,1,3,5,4,2,0,0,250.0,train,2,H+
443.766117096,2,1000,5,1,1,3,5,4,2,0,0,250.0,train,2,H+
587.822198868,5,1000,3,1,1,3,5,4,2,0,0,250.0,train,5,H+
555.762052536,2,1000,5,1,1,3,5,4,2,0,0,250.0,train,2,H+
618.3822155,0,1000,4,1,1,3,5,4,2,0,0,250.0,train,0,H+
602.321863174,2,1000,5,1,1,3,5,4,2,0,0,250.0,train,2,H+
635.615110397,1,1000,1,1,1,3,5,4,2,0,0,250.0,train,1,H+
538.344144821,0,1000,4,1,1,3,5,4,2,0,0,250.0,train,0,H+
650.475978851,4,1000,2,0,1,3,5,4,2,0,0,250.0,train,1,H+
586.422920227,0,1000,4,1,1,3,5,4,2,0,0,250.0,train,0,H+
411.834001541,4,1000,2,1,1,3,5,4,2,0,0,250.0,train,4,H+
554.399013519,0,1000,4,1,1,3,5,4,2,0,0,250.0,train,0,H+
762.954950333,1,1000,1,1,1,3,5,4,2,0,0,250.0,train,1,H+
523.811101913,4,1000,2,1,1,3,5,4,2,0,0,250.0,train,4,H+
555.047035217,1,1000,1,1,1,3,5,4,2,0,0,250.0,train,1,H+
491.809129715,4,1000,2,1,1,3,5,4,2,0,0,250.0,train,4,H+
810.407161713,3,1000,0,1,1,3,5,4,2,0,0,250.0,train,3,H+
507.025957108,4,1000,2,1,1,3,5,4,2,0,0,250.0,train,4,H+
474.328041077,3,1000,0,1,1,3,5,4,2,0,0,250.0,train,3,H+
490.13710022,4,1000,2,1,1,3,5,4,2,0,0,250.0,train,4,H+
682.348012924,0,1000,4,1,1,3,5,4,2,0,0,250.0,train,0,H+
570.293903351,3,1000,0,0,1,3,5,4,2,0,0,250.0,train,2,H+
475.725889206,4,1000,2,1,1,3,5,4,2,0,0,250.0,train,4,H+
586.392879486,0,1000,4,1,1,3,5,4,2,0,0,250.0,train,0,H+
586.324930191,2,1000,5,1,1,3,5,4,2,0,0,250.0,train,2,H+
539.853096008,4,1000,2,1,1,3,5,4,2,0,0,250.0,train,4,H+
715.088129044,1,1000,1,1,1,3,5,4,2,0,0,250.0,train,1,H+
490.284919739,1,1000,1,1,1,3,5,4,2,0,0,250.0,train,1,H+
490.742921829,2,1000,5,1,1,3,5,4,2,0,0,250.0,train,2,H+
539.834022522,1,1000,1,1,1,3,5,4,2,0,0,250.0,train,1,H+
506.299972534,5,1000,3,1,1,3,5,4,2,0,0,250.0,train,5,H+
651.68094635,0,1000,4,1,1,3,5,4,2,0,0,250.0,train,0,H+
619.135856628,1,1000,1,1,1,3,5,4,2,0,0,250.0,train,1,H+
970.394849777,2,1000,5,1,1,3,5,4,2,0,0,250.0,train,2,H+
379.652023315,3,1000,0,1,1,3,5,4,2,0,0,250.0,train,3,H+
1018.30101013,4,1000,2,1,1,3,5,4,2,0,0,250.0,train,4,H+
874.398946762,1,1000,1,1,1,3,5,4,2,0,0,250.0,train,1,H+
778.435945511,5,1000,3,1,1,3,5,4,2,0,0,250.0,train,5,H+
570.395946503,4,1000,2,1,1,3,5,4,2,0,0,250.0,train,4,H+
538.295984268,3,1000,0,1,1,3,5,4,2,0,0,250.0,train,3,H+
539.777040482,1,1000,1,1,1,3,5,4,2,0,0,250.0,train,1,H+
666.359186172,2,1000,5,1,1,3,5,4,2,0,0,250.0,train,2,H+
522.505998611,3,1000,0,1,1,3,5,4,2,0,0,250.0,train,3,H+
683.657169342,0,1000,4,1,1,3,5,4,2,0,0,250.0,train,0,H+
571.77400589,1,1000,1,1,1,3,5,4,2,0,0,250.0,train,1,H+
618.264913559,1,1000,1,1,1,3,5,4,2,0,0,250.0,train,1,H+
650.417089462,0,1000,4,1,1,3,5,4,2,0,0,250.0,train,0,H+
554.20088768,1,1000,1,1,1,3,5,4,2,0,0,250.0,train,1,H+
538.467884064,3,1000,0,1,1,3,5,4,2,0,0,250.0,train,3,H+
474.407911301,1,1000,1,1,1,3,5,4,2,0,0,250.0,train,1,H+
618.389129639,4,1000,2,1,1,3,5,4,2,0,0,250.0,train,4,H+
490.463972092,5,1000,3,1,1,3,5,4,2,0,0,250.0,train,5,H+
586.408853531,0,1000,4,1,1,3,5,4,2,0,0,250.0,train,0,H+
459.836006165,0,1000,4,1,1,3,5,4,2,0,0,250.0,train,0,H+
730.396986008,2,1000,5,0,1,3,5,4,2,0,0,250.0,train,3,H+
586.378097534,2,1000,5,1,1,3,5,4,2,0,0,250.0,train,2,H+
538.261890411,4,1000,2,1,1,3,5,4,2,0,0,250.0,train,4,H+
778.403043747,5,1000,3,1,1,3,5,4,2,0,0,250.0,train,5,H+
714.959859848,1,1000,1,1,1,3,5,4,2,0,0,250.0,train,1,H+
507.755994797,1,1000,1,1,1,3,5,4,2,0,0,250.0,train,1,H+
555.724143982,4,1000,2,1,1,3,5,4,2,0,0,250.0,train,4,H+
634.351015091,1,1000,1,1,1,3,5,4,2,0,0,250.0,train,1,H+
602.326869965,0,1000,4,1,1,3,5,4,2,0,0,250.0,train,0,H+
619.693040848,4,1000,2,1,1,3,5,4,2,0,0,250.0,train,4,H+
634.360074997,1,1000,1,1,1,3,5,4,2,0,0,250.0,train,1,H+
747.701883316,3,1000,0,1,1,3,5,4,2,0,0,250.0,train,3,H+
555.633068085,5,1000,3,1,1,3,5,4,2,0,0,250.0,train,5,H+
459.062099457,5,1000,3,1,1,3,5,4,2,0,0,250.0,train,5,H+
554.461956024,3,1000,0,1,1,3,5,4,2,0,0,250.0,train,3,H+
554.412126541,4,1000,2,1,1,3,5,4,2,0,0,250.0,train,4,H+
586.351156235,0,1000,4,1,1,3,5,4,2,0,0,250.0,train,0,H+
523.822069168,5,1000,3,1,1,3,5,4,2,0,0,250.0,train,5,H+
747.754096985,2,1000,5,1,1,3,5,4,2,0,0,250.0,train,2,H+
443.323135376,2,1000,5,1,1,3,5,4,2,0,0,250.0,train,2,H+
554.495096207,4,1000,2,1,1,3,5,4,2,0,0,250.0,train,4,H+
729.157924652,3,1000,0,1,1,3,5,4,2,0,0,250.0,train,3,H+
491.820812225,3,1000,0,1,1,3,5,4,2,0,0,250.0,train,3,H+
554.386854172,4,1000,2,1,1,3,5,4,2,0,0,250.0,train,4,H+
715.786933899,0,1000,4,1,1,3,5,4,2,0,0,250.0,train,0,H+
555.693149567,1,1000,1,1,1,3,5,4,2,0,0,250.0,train,1,H+
522.402048111,4,1000,2,1,1,3,5,4,2,0,0,250.0,train,4,H+
666.303873062,2,1000,5,1,1,3,5,4,2,0,0,250.0,train,2,H+
554.36706543,1,1000,1,1,1,3,5,4,2,0,0,250.0,train,1,H+
666.433095932,0,1000,4,1,1,3,5,4,2,0,0,250.0,train,0,H+
586.408853531,5,1000,3,1,1,3,5,4,2,0,0,250.0,train,5,H+
554.388046265,3,1000,0,1,1,3,5,4,2,0,0,250.0,train,3,H+
458.320140839,3,1000,0,1,1,3,5,4,2,0,0,250.0,train,3,H+
554.376125336,5,1000,3,1,1,3,5,4,2,0,0,250.0,train,5,H+
570.281028748,1,1000,1,1,1,3,5,4,2,0,0,250.0,train,1,H+
586.326122284,1,1000,1,1,1,3,5,4,2,0,0,250.0,train,1,H+
634.303808212,0,1000,4,1,1,3,5,4,2,0,0,250.0,train,0,H+
539.798974991,5,1000,3,1,1,3,5,4,2,0,0,250.0,train,5,H+
459.735870361,4,1000,2,1,1,3,5,4,2,0,0,250.0,train,4,H+
731.034994125,4,1000,2,1,1,3,5,4,2,0,0,250.0,train,4,H+
555.798053741,5,1000,3,1,1,3,5,4,2,0,0,250.0,train,5,H+
570.326089859,1,1000,1,1,1,3,5,4,2,0,0,250.0,train,1,H+
762.420892715,2,1000,5,1,1,3,5,4,2,0,0,250.0,train,2,H+
554.379940033,1,1000,1,1,1,3,5,4,2,0,0,250.0,train,1,H+
523.059844971,3,1000,0,1,1,3,5,4,2,0,0,250.0,train,3,H+
571.676969528,5,1000,3,1,1,3,5,4,2,0,0,250.0,train,5,H+
698.361158371,2,1000,5,1,1,3,5,4,2,0,0,250.0,train,2,H+
602.374076843,0,1000,4,1,1,3,5,4,2,0,0,250.0,train,0,H+
586.352109909,2,1000,5,1,1,3,5,4,2,0,0,250.0,train,2,H+
587.001085281,5,1000,3,1,1,3,5,4,2,0,0,250.0,train,5,H+
522.247076035,5,1000,3,1,1,3,5,4,2,0,0,250.0,train,5,H+
650.449037552,1,1000,1,1,1,3,5,4,2,0,0,250.0,train,1,H+
874.345064163,3,1000,0,1,1,3,5,4,2,0,0,250.0,train,3,H+
764.735937119,4,1000,2,1,1,3,5,4,2,0,0,250.0,train,4,H+
539.827108383,5,1000,3,1,1,3,5,4,2,0,0,250.0,train,5,H+
571.805000305,2,1000,5,1,1,3,5,4,2,0,0,250.0,train,2,H+
794.440031052,5,1000,3,1,1,3,5,4,2,0,0,250.0,train,5,H+
954.418182373,1,1000,1,1,1,3,5,4,2,0,0,250.0,train,1,H+
667.157173157,2,1000,5,1,1,3,5,4,2,0,0,250.0,train,2,H+
442.417860031,3,1000,0,1,1,3,5,4,2,0,0,250.0,train,3,H+
714.225053787,5,1000,3,1,1,3,5,4,2,0,0,250.0,train,5,H+
634.394884109,0,1000,4,1,1,3,5,4,2,0,0,250.0,train,0,H+
538.232088089,1,1000,1,1,1,3,5,4,2,0,0,250.0,train,1,H+
602.321863174,0,1000,4,1,1,3,5,4,2,0,0,250.0,train,0,H+
522.356033325,0,1000,4,1,1,3,5,4,2,0,0,250.0,train,0,H+
619.119882584,3,1000,0,1,1,3,5,4,2,0,0,250.0,train,3,H+
554.36205864,1,1000,1,1,1,3,5,4,2,0,0,250.0,train,1,H+
506.428956985,3,1000,0,1,1,3,5,4,2,0,0,250.0,train,3,H+
522.316932678,4,1000,2,1,1,3,5,4,2,0,0,250.0,train,4,H+
490.402936935,5,1000,3,1,1,3,5,4,2,0,0,250.0,train,5,H+
667.762994766,0,1000,4,1,1,3,5,4,2,0,0,250.0,train,0,H+
507.705926895,0,1000,4,1,1,3,5,4,2,0,0,250.0,train,0,H+
619.750022888,4,1000,2,1,1,3,5,4,2,0,0,250.0,train,4,H+
554.324150085,5,1000,3,1,1,3,5,4,2,0,0,250.0,train,5,H+
522.407054901,5,1000,3,1,1,3,5,4,2,0,0,250.0,train,5,H+
570.40309906,1,1000,1,1,1,3,5,4,2,0,0,250.0,train,1,H+
570.327043533,3,1000,0,1,1,3,5,4,2,0,0,250.0,train,3,H+
587.579011917,1,1000,1,1,1,3,5,4,2,0,0,250.0,train,1,H+
571.614027023,3,1000,0,1,1,3,5,4,2,0,0,250.0,train,3,H+
474.303007126,3,1000,0,1,1,3,5,4,2,0,0,250.0,train,3,H+
538.279771805,4,1000,2,1,1,3,5,4,2,0,0,250.0,train,4,H+
410.295009613,4,1000,2,1,1,3,5,4,2,0,0,250.0,train,4,H+
570.326089859,2,1000,5,0,1,3,5,4,2,0,0,250.0,train,3,H+
443.683862686,2,1000,5,1,1,3,5,4,2,0,0,250.0,train,2,H+
522.440910339,4,1000,2,1,1,3,5,4,2,0,0,250.0,train,4,H+
970.231056213,3,1000,0,1,1,3,5,4,2,0,0,250.0,test,3,H+
762.448072433,4,1000,2,1,1,3,5,4,2,0,0,250.0,test,4,H+
730.38315773,4,1000,2,1,1,3,5,4,2,0,0,250.0,test,4,H+
825.396060944,4,1000,2,1,1,3,5,4,2,0,0,250.0,test,4,H+
474.40290451,1,1000,1,0,1,3,5,4,2,0,0,250.0,test,4,H+
794.363021851,5,1000,3,1,1,3,5,4,2,0,0,250.0,test,5,H+
666.399002075,5,1000,3,1,1,3,5,4,2,0,0,250.0,test,5,H+
778.446912766,0,1000,4,1,1,3,5,4,2,0,0,250.0,test,0,H+
538.452863693,0,1000,4,1,1,3,5,4,2,0,0,250.0,test,0,H+
586.415052414,5,1000,3,1,1,3,5,4,2,0,0,250.0,test,5,H+
635.060071945,0,1000,4,1,1,3,5,4,2,0,0,250.0,test,0,H+
682.08193779,1,1000,1,1,1,3,5,4,2,0,0,250.0,test,1,H+
698.4770298,4,1000,2,1,1,3,5,4,2,0,0,250.0,test,4,H+
634.392023087,1,1000,1,1,1,3,5,4,2,0,0,250.0,test,1,H+
779.727935791,0,1000,4,1,1,3,5,4,2,0,0,250.0,test,0,H+
554.464817047,5,1000,3,1,1,3,5,4,2,0,0,250.0,test,5,H+
698.469161987,2,1000,5,1,1,3,5,4,2,0,0,250.0,test,2,H+
619.858980179,0,1000,4,1,1,3,5,4,2,0,0,250.0,test,0,H+
571.830034256,0,1000,4,1,1,3,5,4,2,0,0,250.0,test,0,H+
731.141090393,1,1000,1,1,1,3,5,4,2,0,0,250.0,test,1,H+
682.327985764,2,1000,5,1,1,3,5,4,2,0,0,250.0,test,2,H+
762.395858765,3,1000,0,1,1,3,5,4,2,0,0,250.0,test,3,H+
458.356142044,3,1000,0,1,1,3,5,4,2,0,0,250.0,test,3,H+
538.34104538,4,1000,2,1,1,3,5,4,2,0,0,250.0,test,4,H+
570.320129395,3,1000,0,1,1,3,5,4,2,0,0,250.0,test,3,H+
554.412126541,5,1000,3,1,1,3,5,4,2,0,0,250.0,test,5,H+
554.332971573,5,1000,3,1,1,3,5,4,2,0,0,250.0,test,5,H+
490.41891098,5,1000,3,1,1,3,5,4,2,0,0,250.0,test,5,H+
570.431947708,1,1000,1,1,1,3,5,4,2,0,0,250.0,test,1,H+
826.421022415,5,1000,3,1,1,3,5,4,2,0,0,250.0,test,5,H+
554.41904068,4,1000,2,1,1,3,5,4,2,0,0,250.0,test,4,H+
571.119070053,5,1000,3,1,1,3,5,4,2,0,0,250.0,test,5,H+
570.457935333,1,1000,1,1,1,3,5,4,2,0,0,250.0,test,1,H+
683.832883835,5,1000,3,1,1,3,5,4,2,0,0,250.0,test,5,H+
635.736942291,0,1000,4,1,1,3,5,4,2,0,0,250.0,test,0,H+
649.833202362,1,1000,1,1,1,3,5,4,2,0,0,250.0,test,1,H+
442.312955856,5,1000,3,1,1,3,5,4,2,0,0,250.0,test,5,H+
570.401906967,4,1000,2,1,1,3,5,4,2,0,0,250.0,test,4,H+
474.411964417,5,1000,3,1,1,3,5,4,2,0,0,250.0,test,5,H+
362.349033356,5,1000,3,1,1,3,5,4,2,0,0,250.0,test,5,H+
410.416841507,5,1000,3,1,1,3,5,4,2,0,0,250.0,test,5,H+
667.100906372,1,1000,1,1,1,3,5,4,2,0,0,250.0,test,1,H+
682.434082031,3,1000,0,1,1,3,5,4,2,0,0,250.0,test,3,H+
634.354829788,0,1000,4,1,1,3,5,4,2,0,0,250.0,test,0,H+
586.371183395,3,1000,0,1,1,3,5,4,2,0,0,250.0,test,3,H+
602.362155914,2,1000,5,0,1,3,5,4,2,0,0,250.0,test,1,H+
635.823965073,2,1000,5,1,1,3,5,4,2,0,0,250.0,test,2,H+
554.350137711,5,1000,3,1,1,3,5,4,2,0,0,250.0,test,5,H+
603.785037994,1,1000,1,1,1,3,5,4,2,0,0,250.0,test,1,H+
651.885986328,4,1000,2,1,1,3,5,4,2,0,0,250.0,test,4,H+
923.032045364,1,1000,1,1,1,3,5,4,2,0,0,250.0,test,1,H+
555.840015411,3,1000,0,1,1,3,5,4,2,0,0,250.0,test,3,H+
635.69688797,3,1000,0,1,1,3,5,4,2,0,0,250.0,test,3,H+
507.647037506,5,1000,3,1,1,3,5,4,2,0,0,250.0,test,5,H+
683.56180191,0,1000,4,1,1,3,5,4,2,0,0,250.0,test,0,H+
665.962934494,2,1000,5,1,1,3,5,4,2,0,0,250.0,test,2,H+
522.402048111,3,1000,0,1,1,3,5,4,2,0,0,250.0,test,3,H+
538.146972656,0,1000,4,1,1,3,5,4,2,0,0,250.0,test,0,H+
554.455041885,2,1000,5,1,1,3,5,4,2,0,0,250.0,test,2,H+
762.390136719,4,1000,2,1,1,3,5,4,2,0,0,250.0,test,4,H+
667.787075043,3,1000,0,1,1,3,5,4,2,0,0,250.0,test,3,H+
506.374835968,3,1000,0,1,1,3,5,4,2,0,0,250.0,test,3,H+
475.019931793,3,1000,0,1,1,3,5,4,2,0,0,250.0,test,3,H+
539.753198624,5,1000,3,1,1,3,5,4,2,0,0,250.0,test,5,H+
506.37793541,4,1000,2,1,1,3,5,4,2,0,0,250.0,test,4,H+
554.402112961,1,1000,1,1,1,3,5,4,2,0,0,250.0,test,1,H+
538.450956345,1,1000,1,1,1,3,5,4,2,0,0,250.0,test,1,H+
570.40810585,2,1000,5,1,1,3,5,4,2,0,0,250.0,test,2,H+
554.391145706,3,1000,0,1,1,3,5,4,2,0,0,250.0,test,3,H+
538.431167603,4,1000,2,1,1,3,5,4,2,0,0,250.0,test,4,H+
570.348978043,0,1000,4,1,1,3,5,4,2,0,0,250.0,test,0,H+
570.35112381,2,1000,5,1,1,3,5,4,2,0,0,250.0,test,2,H+
554.418087006,5,1000,3,1,1,3,5,4,2,0,0,250.0,test,5,H+
603.802919388,0,1000,4,1,1,3,5,4,2,0,0,250.0,test,0,H+
490.32998085,2,1000,5,1,1,3,5,4,2,0,0,250.0,test,2,H+
650.429010391,4,1000,2,1,1,3,5,4,2,0,0,250.0,test,4,H+
554.419994354,2,1000,5,1,1,3,5,4,2,0,0,250.0,test,2,H+
522.489070892,4,1000,2,1,1,3,5,4,2,0,0,250.0,test,4,H+
666.332006454,4,1000,2,1,1,3,5,4,2,0,0,250.0,test,4,H+
538.434028625,3,1000,0,1,1,3,5,4,2,0,0,250.0,test,3,H+
587.854146957,0,1000,4,1,1,3,5,4,2,0,0,250.0,test,0,H+
491.533041,5,1000,3,0,1,3,5,4,2,0,0,250.0,test,3,H+
538.331985474,4,1000,2,1,1,3,5,4,2,0,0,250.0,test,4,H+
539.717912674,4,1000,2,1,1,3,5,4,2,0,0,250.0,test,4,H+
619.632005692,2,1000,5,0,1,3,5,4,2,0,0,250.0,test,3,H+
538.338899612,1,1000,1,1,1,3,5,4,2,0,0,250.0,test,1,H+
538.39802742,1,1000,1,1,1,3,5,4,2,0,0,250.0,test,1,H+
538.415908813,3,1000,0,1,1,3,5,4,2,0,0,250.0,test,3,H+
411.082983017,3,1000,0,1,1,3,5,4,2,0,0,250.0,test,3,H+
539.809942245,5,1000,3,1,1,3,5,4,2,0,0,250.0,test,5,H+
699.11980629,2,1000,5,1,1,3,5,4,2,0,0,250.0,test,2,H+
554.658889771,0,1000,4,1,1,3,5,4,2,0,0,250.0,test,0,H+
586.305141449,0,1000,4,1,1,3,5,4,2,0,0,250.0,test,0,H+
618.483781815,3,1000,0,1,1,3,5,4,2,0,0,250.0,test,3,H+
635.803937912,0,1000,4,1,1,3,5,4,2,0,0,250.0,test,0,H+
507.780075073,3,1000,0,1,1,3,5,4,2,0,0,250.0,test,3,H+
474.400043488,3,1000,0,1,1,3,5,4,2,0,0,250.0,test,3,H+
554.460048676,1,1000,1,1,1,3,5,4,2,0,0,250.0,test,1,H+
570.401906967,4,1000,2,1,1,3,5,4,2,0,0,250.0,test,4,H+
443.808078766,5,1000,3,1,1,3,5,4,2,0,0,250.0,test,5,H+
554.4090271,1,1000,1,1,1,3,5,4,2,0,0,250.0,test,1,H+
490.427017212,1,1000,1,1,1,3,5,4,2,0,0,250.0,test,1,H+
522.365093231,5,1000,3,1,1,3,5,4,2,0,0,250.0,test,5,H+
585.121870041,1,1000,1,1,1,3,5,4,2,0,0,250.0,test,1,H+
554.37207222,3,1000,0,1,1,3,5,4,2,0,0,250.0,test,3,H+
506.381988525,5,1000,3,1,1,3,5,4,2,0,0,250.0,test,5,H+
570.374011993,0,1000,4,1,1,3,5,4,2,0,0,250.0,test,0,H+
538.44499588,3,1000,0,1,1,3,5,4,2,0,0,250.0,test,3,H+
442.400932312,4,1000,2,1,1,3,5,4,2,0,0,250.0,test,4,H+
490.419149399,5,1000,3,1,1,3,5,4,2,0,0,250.0,test,5,H+
538.282155991,5,1000,3,1,1,3,5,4,2,0,0,250.0,test,5,H+
537.104129791,0,1000,4,1,1,3,5,4,2,0,0,250.0,test,0,H+
475.723028183,2,1000,5,1,1,3,5,4,2,0,0,250.0,test,2,H+
587.79501915,5,1000,3,1,1,3,5,4,2,0,0,250.0,test,5,H+
490.33498764,3,1000,0,1,1,3,5,4,2,0,0,250.0,test,3,H+
491.837024689,5,1000,3,1,1,3,5,4,2,0,0,250.0,test,5,H+
491.754055023,3,1000,0,1,1,3,5,4,2,0,0,250.0,test,3,H+
602.337121964,2,1000,5,1,1,3,5,4,2,0,0,250.0,test,2,H+
730.438947678,0,1000,4,1,1,3,5,4,2,0,0,250.0,test,0,H+
602.279901505,3,1000,0,0,1,3,5,4,2,0,0,250.0,test,2,H+
506.258010864,5,1000,3,1,1,3,5,4,2,0,0,250.0,test,5,H+
394.266843796,3,1000,0,1,1,3,5,4,2,0,0,250.0,test,3,H+
538.092136383,0,1000,4,1,1,3,5,4,2,0,0,250.0,test,0,H+
522.310018539,5,1000,3,1,1,3,5,4,2,0,0,250.0,test,5,H+
506.301879883,0,1000,4,1,1,3,5,4,2,0,0,250.0,test,0,H+
522.403001785,3,1000,0,1,1,3,5,4,2,0,0,250.0,test,3,H+
539.87121582,0,1000,4,1,1,3,5,4,2,0,0,250.0,test,0,H+
522.406816483,1,1000,1,1,1,3,5,4,2,0,0,250.0,test,1,H+
602.496147156,4,1000,2,1,1,3,5,4,2,0,0,250.0,test,4,H+
603.824853897,0,1000,4,1,1,3,5,4,2,0,0,250.0,test,0,H+
507.652997971,4,1000,2,1,1,3,5,4,2,0,0,250.0,test,4,H+
426.428079605,4,1000,2,1,1,3,5,4,2,0,0,250.0,test,4,H+
506.433010101,0,1000,4,1,1,3,5,4,2,0,0,250.0,test,0,H+
570.383071899,0,1000,4,1,1,3,5,4,2,0,0,250.0,test,0,H+
395.570993423,0,1000,4,1,1,3,5,4,2,0,0,250.0,test,0,H+
490.305900574,2,1000,5,1,1,3,5,4,2,0,0,250.0,test,2,H+
442.353010178,3,1000,0,1,1,3,5,4,2,0,0,250.0,test,3,H+
506.386041641,1,1000,1,1,1,3,5,4,2,0,0,250.0,test,1,H+
426.424026489,1,1000,1,1,1,3,5,4,2,0,0,250.0,test,1,H+
506.410837173,5,1000,3,1,1,3,5,4,2,0,0,250.0,test,5,H+
587.731838226,2,1000,5,1,1,3,5,4,2,0,0,250.0,test,2,H+
427.073955536,2,1000,5,1,1,3,5,4,2,0,0,250.0,test,2,H+
506.396055222,4,1000,2,1,1,3,5,4,2,0,0,250.0,test,4,H+
522.332906723,1,1000,1,0,1,3,5,4,2,0,0,250.0,test,0,H+
522.374153137,2,1000,5,1,1,3,5,4,2,0,0,250.0,test,2,H+
603.78909111,0,1000,4,1,1,3,5,4,2,0,0,250.0,test,0,H+
538.332939148,0,1000,4,1,1,3,5,4,2,0,0,250.0,test,0,H+
634.444952011,4,1000,2,1,1,3,5,4,2,0,0,250.0,test,4,H+
1131.85787201,2,1000,5,1,1,3,5,4,2,0,0,250.0,test,2,H+
474.428892136,3,1000,0,1,1,3,5,4,2,0,0,250.0,test,3,H+
522.358894348,3,1000,0,1,1,3,5,4,2,0,0,250.0,test,3,H+
410.961866379,3,1000,0,1,1,3,5,4,2,0,0,250.0,test,3,H+
507.555007935,4,1000,2,1,1,3,5,4,2,0,0,250.0,test,4,H+
506.997823715,3,1000,0,1,1,3,5,4,2,0,0,250.0,test,3,H+
538.338899612,4,1000,2,1,1,3,5,4,2,0,0,250.0,test,4,H+
554.028987885,1,1000,1,1,1,3,5,4,2,0,0,250.0,test,1,H+
603.807926178,5,1000,3,1,1,3,5,4,2,0,0,250.0,test,5,H+
522.984027863,4,1000,2,1,1,3,5,4,2,0,0,250.0,test,4,H+
555.800914764,0,1000,4,0,1,3,5,4,2,0,0,250.0,test,1,H+
714.330911636,1,1000,1,1,1,3,5,4,2,0,0,250.0,test,1,H+
634.238004684,0,1000,4,1,1,3,5,4,2,0,0,250.0,test,0,H+
540.807008743,2,1000,5,1,1,3,5,4,2,0,0,250.0,test,2,H+
442.267894745,2,1000,5,1,1,3,5,4,2,0,0,250.0,test,2,H+
522.389888763,1,1000,1,1,1,3,5,4,2,0,0,250.0,test,1,H+
699.038982391,3,1000,0,1,1,3,5,4,2,0,0,250.0,test,3,H+
522.443056107,1,1000,1,1,1,3,5,4,2,0,0,250.0,test,1,H+
554.309844971,5,1000,3,1,1,3,5,4,2,0,0,250.0,test,5,H+
538.424968719,5,1000,3,1,1,3,5,4,2,0,0,250.0,test,5,H+
650.385141373,1,1000,1,1,1,3,5,4,2,0,0,250.0,test,1,H+
474.365949631,3,1000,0,1,1,3,5,4,2,0,0,250.0,test,3,H+
522.410869598,1,1000,1,1,1,3,5,4,2,0,0,250.0,test,1,H+
475.718021393,1,1000,1,1,1,3,5,4,2,0,0,250.0,test,1,H+
522.408008575,2,1000,5,1,1,3,5,4,2,0,0,250.0,test,2,H+
426.418066025,2,1000,5,1,1,3,5,4,2,0,0,250.0,test,2,H+
666.457891464,0,1000,4,1,1,3,5,4,2,0,0,250.0,test,0,H+
426.43404007,0,1000,4,1,1,3,5,4,2,0,0,250.0,test,0,H+
474.46513176,4,1000,2,1,1,3,5,4,2,0,0,250.0,test,4,H+
378.401994705,4,1000,2,1,1,3,5,4,2,0,0,250.0,test,4,H+
571.841001511,1,1000,1,1,1,3,5,4,2,0,0,250.0,test,1,H+
427.78301239,3,1000,0,0,1,3,5,4,2,0,0,250.0,test,2,H+
507.746934891,1,1000,1,1,1,3,5,4,2,0,0,250.0,test,1,H+
683.71295929,2,1000,5,1,1,3,5,4,2,0,0,250.0,test,2,H+
571.864843369,5,1000,3,1,1,3,5,4,2,0,0,250.0,test,5,H+
474.300861359,5,1000,3,1,1,3,5,4,2,0,0,250.0,test,5,H+
523.447036743,4,1000,2,1,1,3,5,4,2,0,0,250.0,test,4,H+
602.382898331,5,1000,3,1,1,3,5,4,2,0,0,250.0,test,5,H+
666.378974915,0,1000,4,1,1,3,5,4,2,0,0,250.0,test,0,H+
538.352966309,1,1000,1,1,1,3,5,4,2,0,0,250.0,test,1,H+
586.422920227,0,1000,4,1,1,3,5,4,2,0,0,250.0,test,0,H+
698.393106461,3,1000,0,1,1,3,5,4,2,0,0,250.0,test,3,H+
522.358894348,4,1000,2,1,1,3,5,4,2,0,0,250.0,test,4,H+
459.805011749,4,1000,2,1,1,3,5,4,2,0,0,250.0,test,4,H+
652.19783783,3,1000,0,1,1,3,5,4,2,0,0,250.0,test,3,H+
474.48682785,4,1000,2,1,1,3,5,4,2,0,0,250.0,test,4,H+
650.349855423,2,1000,5,1,1,3,5,4,2,0,0,250.0,test,2,H+
539.762020111,5,1000,3,1,1,3,5,4,2,0,0,250.0,test,5,H+
603.800058365,2,1000,5,1,1,3,5,4,2,0,0,250.0,test,2,H+
571.753978729,1,1000,1,1,1,3,5,4,2,0,0,250.0,test,1,H+
537.895917892,2,1000,5,1,1,3,5,4,2,0,0,250.0,test,2,H+
458.452939987,4,1000,2,1,1,3,5,4,2,0,0,250.0,test,4,H+
618.41917038,1,1000,1,1,1,3,5,4,2,0,0,250.0,test,1,H+
586.385011673,4,1000,2,1,1,3,5,4,2,0,0,250.0,test,4,H+
506.365060806,2,1000,5,1,1,3,5,4,2,0,0,250.0,test,2,H+
522.459983826,1,1000,1,1,1,3,5,4,2,0,0,250.0,test,1,H+
570.385932922,0,1000,4,1,1,3,5,4,2,0,0,250.0,test,0,H+
554.415941238,5,1000,3,1,1,3,5,4,2,0,0,250.0,test,5,H+
490.401983261,3,1000,0,1,1,3,5,4,2,0,0,250.0,test,3,H+
474.396944046,2,1000,5,1,1,3,5,4,2,0,0,250.0,test,2,H+
683.818817139,3,1000,0,1,1,3,5,4,2,0,0,250.0,test,3,H+
442.383050919,2,1000,5,1,1,3,5,4,2,0,0,250.0,test,2,H+
490.32998085,2,1000,5,1,1,3,5,4,2,0,0,250.0,test,2,H+
395.758867264,2,1000,5,1,1,3,5,4,2,0,0,250.0,test,2,H+
571.672916412,0,1000,4,0,1,3,5,4,2,0,0,250.0,test,1,H+
27.6329517365,5,1000,3,0,1,3,5,4,2,0,0,250.0,test,0,H+
441.89786911,5,1000,3,1,1,3,5,4,2,0,0,250.0,test,5,H+
699.84793663,1,1000,1,1,1,3,5,4,2,0,0,250.0,test,1,H+
587.712049484,0,1000,4,1,1,3,5,4,2,0,0,250.0,test,0,H+
522.315979004,4,1000,2,1,1,3,5,4,2,0,0,250.0,test,4,H+
459.688901901,4,1000,2,1,1,3,5,4,2,0,0,250.0,test,4,H+
458.389997482,4,1000,2,1,1,3,5,4,2,0,0,250.0,test,4,H+
666.363954544,0,1000,4,1,1,3,5,4,2,0,0,250.0,test,0,H+
458.379983902,0,1000,4,1,1,3,5,4,2,0,0,250.0,test,0,H+
587.656974792,1,1000,1,1,1,3,5,4,2,0,0,250.0,test,1,H+
537.189006805,5,1000,3,1,1,3,5,4,2,0,0,250.0,test,5,H+
731.760978699,0,1000,4,1,1,3,5,4,2,0,0,250.0,test,0,H+
586.386919022,4,1000,2,1,1,3,5,4,2,0,0,250.0,test,4,H+
570.409059525,1,1000,1,1,1,3,5,4,2,0,0,250.0,test,1,H+
571.888923645,2,1000,5,1,1,3,5,4,2,0,0,250.0,test,2,H+
458.300113678,2,1000,5,1,1,3,5,4,2,0,0,250.0,test,2,H+
443.768978119,4,1000,2,1,1,3,5,4,2,0,0,250.0,test,4,H+
635.848999023,0,1000,4,1,1,3,5,4,2,0,0,250.0,test,0,H+
474.424123764,2,1000,5,1,1,3,5,4,2,0,0,250.0,test,2,H+
426.383972168,2,1000,5,1,1,3,5,4,2,0,0,250.0,test,2,H+
569.868803024,1,1000,1,1,1,3,5,4,2,0,0,250.0,test,1,H+
554.414987564,3,1000,0,1,1,3,5,4,2,0,0,250.0,test,3,H+
427.088022232,2,1000,5,1,1,3,5,4,2,0,0,250.0,test,2,H+
490.452051163,3,1000,0,1,1,3,5,4,2,0,0,250.0,test,3,H+
650.40397644,5,1000,3,1,1,3,5,4,2,0,0,250.0,test,5,H+
602.375984192,1,1000,1,1,1,3,5,4,2,0,0,250.0,test,1,H+
474.420070648,1,1000,1,1,1,3,5,4,2,0,0,250.0,test,1,H+
490.378856659,2,1000,5,1,1,3,5,4,2,0,0,250.0,test,2,H+
570.377111435,5,1000,3,1,1,3,5,4,2,0,0,250.0,test,5,H+
618.371963501,0,1000,4,1,1,3,5,4,2,0,0,250.0,test,0,H+
538.36107254,5,1000,3,1,1,3,5,4,2,0,0,250.0,test,5,H+
635.765075684,0,1000,4,1,1,3,5,4,2,0,0,250.0,test,0,H+
458.435058594,0,1000,4,1,1,3,5,4,2,0,0,250.0,test,0,H+
490.384817123,2,1000,5,1,1,3,5,4,2,0,0,250.0,test,2,H+
490.41891098,4,1000,2,1,1,3,5,4,2,0,0,250.0,test,4,H+
554.369926453,2,1000,5,1,1,3,5,4,2,0,0,250.0,test,2,H+
585.116147995,3,1000,0,1,1,3,5,4,2,0,0,250.0,test,3,H+
