RT,correct_response,ms-prestimblank,curstim,correct,SRmap_1,SRmap_0,SRmap_3,SRmap_2,SRmap_5,SRmap_4,ms-precue,ntrials,type,response,condition
1886.4440918,1,600,1,1,1,5,0,4,2,3,400,250.0,train,1,E-
494.945049286,0,600,3,1,1,5,0,4,2,3,400,250.0,train,0,E-
639.113903046,1,600,1,1,1,5,0,4,2,3,400,250.0,train,1,E-
1149.39904213,3,600,4,1,1,5,0,4,2,3,400,250.0,train,3,E-
525.736093521,4,600,2,1,1,5,0,4,2,3,400,250.0,train,4,E-
253.8189888,0,600,3,1,1,5,0,4,2,3,400,250.0,train,0,E-
431.490182877,2,600,5,0,1,5,0,4,2,3,400,250.0,train,1,E-
1343.58501434,3,600,4,1,1,5,0,4,2,3,400,250.0,train,3,E-
606.58288002,3,600,4,1,1,5,0,4,2,3,400,250.0,train,3,E-
607.018947601,1,600,1,1,1,5,0,4,2,3,400,250.0,train,1,E-
766.971111298,5,600,0,1,1,5,0,4,2,3,400,250.0,train,5,E-
447.103023529,0,600,3,1,1,5,0,4,2,3,400,250.0,train,0,E-
301.920890808,0,600,3,1,1,5,0,4,2,3,400,250.0,train,0,E-
686.329841614,4,600,2,1,1,5,0,4,2,3,400,250.0,train,4,E-
350.827932358,5,600,0,1,1,5,0,4,2,3,400,250.0,train,5,E-
447.535991669,4,600,2,1,1,5,0,4,2,3,400,250.0,train,4,E-
638.187885284,5,600,0,1,1,5,0,4,2,3,400,250.0,train,5,E-
303.00617218,0,600,3,1,1,5,0,4,2,3,400,250.0,train,0,E-
350.749015808,2,600,5,1,1,5,0,4,2,3,400,250.0,train,2,E-
47.091960907,0,600,3,1,1,5,0,4,2,3,400,250.0,train,0,E-
239.593982697,2,600,5,1,1,5,0,4,2,3,400,250.0,train,2,E-
287.775993347,3,600,4,1,1,5,0,4,2,3,400,250.0,train,3,E-
414.199113846,2,600,5,0,1,5,0,4,2,3,400,250.0,train,1,E-
526.329040527,4,600,2,1,1,5,0,4,2,3,400,250.0,train,4,E-
143.689155579,4,600,2,1,1,5,0,4,2,3,400,250.0,train,4,E-
127.638101578,2,600,5,0,1,5,0,4,2,3,400,250.0,train,1,E-
335.588932037,5,600,0,1,1,5,0,4,2,3,400,250.0,train,5,E-
191.598892212,5,600,0,1,1,5,0,4,2,3,400,250.0,train,5,E-
207.628011703,4,600,2,1,1,5,0,4,2,3,400,250.0,train,4,E-
510.880947113,5,600,0,1,1,5,0,4,2,3,400,250.0,train,5,E-
238.982915878,2,600,5,1,1,5,0,4,2,3,400,250.0,train,2,E-
126.080036163,5,600,0,1,1,5,0,4,2,3,400,250.0,train,5,E-
47.0929145813,5,600,0,1,1,5,0,4,2,3,400,250.0,train,5,E-
159.66296196,4,600,2,1,1,5,0,4,2,3,400,250.0,train,4,E-
319.641113281,2,600,5,1,1,5,0,4,2,3,400,250.0,train,2,E-
1247.44009972,0,600,3,1,1,5,0,4,2,3,400,250.0,train,0,E-
31.2080383301,0,600,3,1,1,5,0,4,2,3,400,250.0,train,0,E-
127.718925476,2,600,5,1,1,5,0,4,2,3,400,250.0,train,2,E-
127.639055252,4,600,2,1,1,5,0,4,2,3,400,250.0,train,4,E-
206.90703392,3,600,4,1,1,5,0,4,2,3,400,250.0,train,3,E-
127.233028412,2,600,5,1,1,5,0,4,2,3,400,250.0,train,2,E-
31.7001342773,0,600,3,1,1,5,0,4,2,3,400,250.0,train,0,E-
79.6229839325,2,600,5,1,1,5,0,4,2,3,400,250.0,train,2,E-
111.638069153,1,600,1,1,1,5,0,4,2,3,400,250.0,train,1,E-
31.0020446777,1,600,1,1,1,5,0,4,2,3,400,250.0,train,1,E-
815.585136414,0,600,3,1,1,5,0,4,2,3,400,250.0,train,0,E-
191.632032394,5,600,0,1,1,5,0,4,2,3,400,250.0,train,5,E-
95.7140922546,1,600,1,1,1,5,0,4,2,3,400,250.0,train,1,E-
127.592086792,4,600,2,0,1,5,0,4,2,3,400,250.0,train,3,E-
303.597211838,3,600,4,1,1,5,0,4,2,3,400,250.0,train,3,E-
31.5210819244,2,600,5,0,1,5,0,4,2,3,400,250.0,train,1,E-
95.8452224731,2,600,5,1,1,5,0,4,2,3,400,250.0,train,2,E-
302.334785461,4,600,2,1,1,5,0,4,2,3,400,250.0,train,4,E-
31.7850112915,4,600,2,1,1,5,0,4,2,3,400,250.0,train,4,E-
78.3698558807,0,600,3,1,1,5,0,4,2,3,400,250.0,train,0,E-
79.715013504,5,600,0,1,1,5,0,4,2,3,400,250.0,train,5,E-
175.671100616,2,600,5,1,1,5,0,4,2,3,400,250.0,train,2,E-
94.2528247833,1,600,1,1,1,5,0,4,2,3,400,250.0,train,1,E-
0.0569820404053,0,600,3,1,1,5,0,4,2,3,400,250.0,train,0,E-
654.477834702,1,600,1,1,1,5,0,4,2,3,400,250.0,train,1,E-
254.743099213,5,600,0,1,1,5,0,4,2,3,400,250.0,train,5,E-
159.674882889,3,600,4,0,1,5,0,4,2,3,400,250.0,train,4,E-
127.717971802,1,600,1,1,1,5,0,4,2,3,400,250.0,train,1,E-
15.6841278076,0,600,3,1,1,5,0,4,2,3,400,250.0,train,0,E-
255.551099777,3,600,4,0,1,5,0,4,2,3,400,250.0,train,4,E-
95.7019329071,2,600,5,1,1,5,0,4,2,3,400,250.0,train,2,E-
702.334880829,0,600,3,1,1,5,0,4,2,3,400,250.0,train,0,E-
542.3579216,1,600,1,1,1,5,0,4,2,3,400,250.0,train,1,E-
414.974927902,5,600,0,1,1,5,0,4,2,3,400,250.0,train,5,E-
62.7429485321,1,600,1,1,1,5,0,4,2,3,400,250.0,train,1,E-
191.576004028,4,600,2,1,1,5,0,4,2,3,400,250.0,train,4,E-
31.6631793976,4,600,2,1,1,5,0,4,2,3,400,250.0,train,4,E-
206.910133362,2,600,5,1,1,5,0,4,2,3,400,250.0,train,2,E-
110.70394516,3,600,4,1,1,5,0,4,2,3,400,250.0,train,3,E-
110.612869263,0,600,3,1,1,5,0,4,2,3,400,250.0,train,0,E-
47.7619171143,5,600,0,1,1,5,0,4,2,3,400,250.0,train,5,E-
46.4560985565,2,600,5,1,1,5,0,4,2,3,400,250.0,train,2,E-
30.9519767761,5,600,0,1,1,5,0,4,2,3,400,250.0,train,5,E-
286.818981171,3,600,4,1,1,5,0,4,2,3,400,250.0,train,3,E-
47.6009845734,0,600,3,1,1,5,0,4,2,3,400,250.0,train,0,E-
95.2939987183,5,600,0,1,1,5,0,4,2,3,400,250.0,train,5,E-
95.7939624786,5,600,0,1,1,5,0,4,2,3,400,250.0,train,5,E-
46.3109016418,4,600,2,1,1,5,0,4,2,3,400,250.0,train,4,E-
79.6940326691,2,600,5,1,1,5,0,4,2,3,400,250.0,train,2,E-
63.7028217316,1,600,1,1,1,5,0,4,2,3,400,250.0,train,1,E-
95.7021713257,5,600,0,1,1,5,0,4,2,3,400,250.0,train,5,E-
31.60405159,0,600,3,1,1,5,0,4,2,3,400,250.0,train,0,E-
111.266851425,2,600,5,1,1,5,0,4,2,3,400,250.0,train,2,E-
846.419095993,1,600,1,1,1,5,0,4,2,3,400,250.0,train,1,E-
126.65104866,4,600,2,1,1,5,0,4,2,3,400,250.0,train,4,E-
46.835899353,4,600,2,1,1,5,0,4,2,3,400,250.0,train,4,E-
79.1530609131,2,600,5,1,1,5,0,4,2,3,400,250.0,train,2,E-
143.606901169,4,600,2,1,1,5,0,4,2,3,400,250.0,train,4,E-
143.607854843,1,600,1,1,1,5,0,4,2,3,400,250.0,train,1,E-
383.296966553,3,600,4,0,1,5,0,4,2,3,400,250.0,train,4,E-
111.778020859,2,600,5,1,1,5,0,4,2,3,400,250.0,train,2,E-
159.651041031,3,600,4,1,1,5,0,4,2,3,400,250.0,train,3,E-
62.7701282501,3,600,4,1,1,5,0,4,2,3,400,250.0,train,3,E-
62.4849796295,5,600,0,1,1,5,0,4,2,3,400,250.0,train,5,E-
47.6381778717,0,600,3,1,1,5,0,4,2,3,400,250.0,train,0,E-
79.7960758209,2,600,5,1,1,5,0,4,2,3,400,250.0,train,2,E-
0.0529289245605,1,600,1,1,1,5,0,4,2,3,400,250.0,train,1,E-
127.78711319,4,600,2,0,1,5,0,4,2,3,400,250.0,train,3,E-
143.718004227,5,600,0,1,1,5,0,4,2,3,400,250.0,train,5,E-
495.630979538,5,600,0,1,1,5,0,4,2,3,400,250.0,train,5,E-
47.2211837769,3,600,4,1,1,5,0,4,2,3,400,250.0,train,3,E-
47.5921630859,5,600,0,1,1,5,0,4,2,3,400,250.0,train,5,E-
15.7799720764,0,600,3,1,1,5,0,4,2,3,400,250.0,train,0,E-
447.562932968,1,600,1,1,1,5,0,4,2,3,400,250.0,train,1,E-
78.4950256348,4,600,2,1,1,5,0,4,2,3,400,250.0,train,4,E-
15.7430171967,4,600,2,1,1,5,0,4,2,3,400,250.0,train,4,E-
79.6399116516,5,600,0,1,1,5,0,4,2,3,400,250.0,train,5,E-
111.763954163,3,600,4,1,1,5,0,4,2,3,400,250.0,train,3,E-
14.720916748,4,600,2,1,1,5,0,4,2,3,400,250.0,train,4,E-
462.27312088,0,600,3,1,1,5,0,4,2,3,400,250.0,train,0,E-
543.591022491,3,600,4,0,1,5,0,4,2,3,400,250.0,train,4,E-
366.944074631,3,600,4,1,1,5,0,4,2,3,400,250.0,train,3,E-
175.241947174,3,600,4,1,1,5,0,4,2,3,400,250.0,train,3,E-
335.000991821,1,600,1,1,1,5,0,4,2,3,400,250.0,train,1,E-
0.0560283660889,0,600,3,1,1,5,0,4,2,3,400,250.0,train,0,E-
78.446149826,2,600,5,1,1,5,0,4,2,3,400,250.0,train,2,E-
510.256052017,3,600,4,1,1,5,0,4,2,3,400,250.0,train,3,E-
366.352081299,4,600,2,1,1,5,0,4,2,3,400,250.0,train,4,E-
62.9348754883,4,600,2,0,1,5,0,4,2,3,400,250.0,train,3,E-
126.245975494,1,600,1,1,1,5,0,4,2,3,400,250.0,train,1,E-
719.610929489,4,600,2,1,1,5,0,4,2,3,400,250.0,train,4,E-
126.582860947,5,600,0,1,1,5,0,4,2,3,400,250.0,train,5,E-
63.3261203766,3,600,4,0,1,5,0,4,2,3,400,250.0,train,4,E-
318.243026733,2,600,5,1,1,5,0,4,2,3,400,250.0,train,2,E-
95.6830978394,1,600,1,1,1,5,0,4,2,3,400,250.0,train,1,E-
399.105072021,1,600,1,1,1,5,0,4,2,3,400,250.0,train,1,E-
30.5321216583,0,600,3,1,1,5,0,4,2,3,400,250.0,train,0,E-
446.953058243,0,600,3,1,1,5,0,4,2,3,400,250.0,train,0,E-
79.2891979218,1,600,1,1,1,5,0,4,2,3,400,250.0,train,1,E-
271.15893364,3,600,4,1,1,5,0,4,2,3,400,250.0,train,3,E-
62.5019073486,1,600,1,1,1,5,0,4,2,3,400,250.0,train,1,E-
206.752061844,4,600,2,1,1,5,0,4,2,3,400,250.0,train,4,E-
63.6258125305,1,600,1,0,1,5,0,4,2,3,400,250.0,train,4,E-
814.428091049,5,600,0,1,1,5,0,4,2,3,400,250.0,train,5,E-
222.733020782,3,600,4,1,1,5,0,4,2,3,400,250.0,train,3,E-
207.43393898,2,600,5,1,1,5,0,4,2,3,400,250.0,train,2,E-
15.7179832458,2,600,5,1,1,5,0,4,2,3,400,250.0,train,2,E-
367.591142654,1,600,1,1,1,5,0,4,2,3,400,250.0,train,1,E-
111.809015274,5,600,0,1,1,5,0,4,2,3,400,250.0,train,5,E-
79.745054245,4,600,2,1,1,5,0,4,2,3,400,250.0,train,4,E-
31.8121910095,0,600,3,1,1,5,0,4,2,3,400,250.0,train,0,E-
30.8640003204,1,600,1,1,1,5,0,4,2,3,400,250.0,train,1,E-
143.718957901,2,600,5,1,1,5,0,4,2,3,400,250.0,train,2,E-
143.58997345,4,600,2,1,1,5,0,4,2,3,400,250.0,train,4,E-
111.243009567,1,600,1,1,1,5,0,4,2,3,400,250.0,train,1,E-
351.592063904,0,600,3,1,1,5,0,4,2,3,400,250.0,train,0,E-
79.4730186462,2,600,5,1,1,5,0,4,2,3,400,250.0,train,2,E-
111.593008041,4,600,2,0,1,5,0,4,2,3,400,250.0,train,3,E-
335.618019104,2,600,5,1,1,5,0,4,2,3,400,250.0,train,2,E-
95.6721305847,1,600,1,1,1,5,0,4,2,3,400,250.0,train,1,E-
47.709941864,1,600,1,1,1,5,0,4,2,3,400,250.0,train,1,E-
127.645015717,5,600,0,1,1,5,0,4,2,3,400,250.0,train,5,E-
287.648916245,2,600,5,1,1,5,0,4,2,3,400,250.0,train,2,E-
127.086877823,3,600,4,0,1,5,0,4,2,3,400,250.0,train,4,E-
110.323905945,5,600,0,1,1,5,0,4,2,3,400,250.0,train,5,E-
270.514011383,1,600,1,1,1,5,0,4,2,3,400,250.0,train,1,E-
46.9391345978,1,600,1,1,1,5,0,4,2,3,400,250.0,train,1,E-
79.167842865,2,600,5,1,1,5,0,4,2,3,400,250.0,train,2,E-
63.7810230255,1,600,1,1,1,5,0,4,2,3,400,250.0,train,1,E-
207.041025162,2,600,5,1,1,5,0,4,2,3,400,250.0,train,2,E-
63.7230873108,0,600,3,1,1,5,0,4,2,3,400,250.0,train,0,E-
254.297971725,4,600,2,1,1,5,0,4,2,3,400,250.0,train,4,E-
95.2370166779,2,600,5,1,1,5,0,4,2,3,400,250.0,train,2,E-
79.7469615936,0,600,3,1,1,5,0,4,2,3,400,250.0,train,0,E-
0.0560283660889,1,600,1,1,1,5,0,4,2,3,400,250.0,train,1,E-
78.8998603821,1,600,1,1,1,5,0,4,2,3,400,250.0,train,1,E-
111.718893051,4,600,2,0,1,5,0,4,2,3,400,250.0,train,3,E-
14.3868923187,4,600,2,1,1,5,0,4,2,3,400,250.0,train,4,E-
462.472915649,5,600,0,1,1,5,0,4,2,3,400,250.0,train,5,E-
62.6561641693,2,600,5,0,1,5,0,4,2,3,400,250.0,train,3,E-
78.8989067078,1,600,1,1,1,5,0,4,2,3,400,250.0,train,1,E-
79.5521736145,2,600,5,1,1,5,0,4,2,3,400,250.0,train,2,E-
95.556974411,2,600,5,1,1,5,0,4,2,3,400,250.0,train,2,E-
127.753019333,5,600,0,1,1,5,0,4,2,3,400,250.0,train,5,E-
671.071052551,4,600,2,1,1,5,0,4,2,3,400,250.0,train,4,E-
159.114837646,4,600,2,1,1,5,0,4,2,3,400,250.0,train,4,E-
463.307857513,3,600,4,1,1,5,0,4,2,3,400,250.0,train,3,E-
63.3800029755,0,600,3,1,1,5,0,4,2,3,400,250.0,train,0,E-
479.668140411,3,600,4,1,1,5,0,4,2,3,400,250.0,train,3,E-
47.7738380432,5,600,0,1,1,5,0,4,2,3,400,250.0,train,5,E-
383.493900299,4,600,2,1,1,5,0,4,2,3,400,250.0,train,4,E-
0.0560283660889,4,600,2,1,1,5,0,4,2,3,400,250.0,train,4,E-
318.192958832,4,600,2,1,1,5,0,4,2,3,400,250.0,train,4,E-
207.614183426,2,600,5,1,1,5,0,4,2,3,400,250.0,train,2,E-
95.6637859344,4,600,2,1,1,5,0,4,2,3,400,250.0,train,4,E-
319.500923157,4,600,2,1,1,5,0,4,2,3,400,250.0,train,4,E-
271.637916565,3,600,4,1,1,5,0,4,2,3,400,250.0,train,3,E-
0.0560283660889,3,600,4,1,1,5,0,4,2,3,400,250.0,train,3,E-
111.703872681,5,600,0,1,1,5,0,4,2,3,400,250.0,train,5,E-
63.7218952179,0,600,3,0,1,5,0,4,2,3,400,250.0,train,3,E-
78.3751010895,5,600,0,1,1,5,0,4,2,3,400,250.0,train,5,E-
351.496934891,4,600,2,1,1,5,0,4,2,3,400,250.0,train,4,E-
238.379955292,1,600,1,1,1,5,0,4,2,3,400,250.0,train,1,E-
111.249923706,5,600,0,1,1,5,0,4,2,3,400,250.0,train,5,E-
318.323850632,4,600,2,1,1,5,0,4,2,3,400,250.0,train,4,E-
127.225875854,0,600,3,1,1,5,0,4,2,3,400,250.0,train,0,E-
0.0522136688232,0,600,3,1,1,5,0,4,2,3,400,250.0,train,0,E-
0.0557899475098,1,600,1,1,1,5,0,4,2,3,400,250.0,train,1,E-
127.686023712,0,600,3,1,1,5,0,4,2,3,400,250.0,train,0,E-
62.390089035,1,600,1,1,1,5,0,4,2,3,400,250.0,train,1,E-
127.179145813,2,600,5,1,1,5,0,4,2,3,400,250.0,train,2,E-
127.743005753,5,600,0,1,1,5,0,4,2,3,400,250.0,train,5,E-
447.674036026,3,600,4,1,1,5,0,4,2,3,400,250.0,train,3,E-
46.3311672211,0,600,3,1,1,5,0,4,2,3,400,250.0,train,0,E-
46.9360351562,1,600,1,1,1,5,0,4,2,3,400,250.0,train,1,E-
15.7918930054,0,600,3,1,1,5,0,4,2,3,400,250.0,train,0,E-
159.583091736,4,600,2,0,1,5,0,4,2,3,400,250.0,train,2,E-
175.695896149,1,600,1,1,1,5,0,4,2,3,400,250.0,train,1,E-
366.848945618,3,600,4,1,1,5,0,4,2,3,400,250.0,train,3,E-
95.0529575348,0,600,3,1,1,5,0,4,2,3,400,250.0,train,0,E-
15.7179832458,1,600,1,1,1,5,0,4,2,3,400,250.0,train,1,E-
0.0770092010498,2,600,5,1,1,5,0,4,2,3,400,250.0,train,2,E-
78.430891037,2,600,5,1,1,5,0,4,2,3,400,250.0,train,2,E-
15.762090683,1,600,1,1,1,5,0,4,2,3,400,250.0,train,1,E-
95.0169563293,4,600,2,0,1,5,0,4,2,3,400,250.0,train,3,E-
287.65296936,2,600,5,1,1,5,0,4,2,3,400,250.0,train,2,E-
78.9630413055,3,600,4,1,1,5,0,4,2,3,400,250.0,train,3,E-
463.587999344,4,600,2,1,1,5,0,4,2,3,400,250.0,train,4,E-
47.71900177,5,600,0,1,1,5,0,4,2,3,400,250.0,train,5,E-
0.0629425048828,4,600,2,0,1,5,0,4,2,3,400,250.0,train,5,E-
238.790988922,2,600,5,1,1,5,0,4,2,3,400,250.0,train,2,E-
30.8480262756,1,600,1,1,1,5,0,4,2,3,400,250.0,train,1,E-
0.032901763916,3,600,4,1,1,5,0,4,2,3,400,250.0,train,3,E-
239.08996582,2,600,5,1,1,5,0,4,2,3,400,250.0,train,2,E-
127.113819122,5,600,0,1,1,5,0,4,2,3,400,250.0,train,5,E-
190.88101387,3,600,4,1,1,5,0,4,2,3,400,250.0,train,3,E-
46.3140010834,4,600,2,1,1,5,0,4,2,3,400,250.0,train,4,E-
143.6419487,1,600,1,1,1,5,0,4,2,3,400,250.0,train,1,E-
31.8291187286,1,600,1,1,1,5,0,4,2,3,400,250.0,train,1,E-
351.534128189,1,600,1,1,1,5,0,4,2,3,400,250.0,train,1,E-
63.6029243469,5,600,0,1,1,5,0,4,2,3,400,250.0,train,5,E-
63.5621547699,1,600,1,1,1,5,0,4,2,3,400,250.0,train,1,E-
191.015958786,4,600,2,1,1,5,0,4,2,3,400,250.0,train,4,E-
63.8198852539,5,600,0,1,1,5,0,4,2,3,400,250.0,train,5,E-
47.6839542389,0,600,3,1,1,5,0,4,2,3,400,250.0,train,0,E-
0.0541210174561,1,600,1,1,1,5,0,4,2,3,400,250.0,train,1,E-
15.7918930054,5,600,0,1,1,5,0,4,2,3,400,250.0,train,5,E-
15.6829357147,4,600,2,1,1,5,0,4,2,3,400,250.0,train,4,E-
95.7469940186,5,600,0,1,1,5,0,4,2,3,400,250.0,train,5,E-
287.484169006,4,600,2,1,1,5,0,4,2,3,400,250.0,train,4,E-
95.8127975464,4,600,2,1,1,5,0,4,2,3,400,250.0,train,4,E-
78.9740085602,0,600,3,1,1,5,0,4,2,3,400,250.0,train,0,E-
63.6320114136,5,600,0,1,1,5,0,4,2,3,400,250.0,train,5,E-
158.826112747,1,600,1,1,1,5,0,4,2,3,400,250.0,train,1,E-
15.7949924469,5,600,0,1,1,5,0,4,2,3,400,250.0,train,5,E-
1198.28987122,1,1000,3,1,4,0,1,3,5,2,0,250.0,test,1,E-
687.557935715,4,1000,1,1,4,0,1,3,5,2,0,250.0,test,4,E-
1086.18283272,5,1000,5,1,4,0,1,3,5,2,0,250.0,test,5,E-
446.777820587,5,1000,5,1,4,0,1,3,5,2,0,250.0,test,5,E-
701.698064804,0,1000,0,1,4,0,1,3,5,2,0,250.0,test,0,E-
638.625144958,3,1000,2,1,4,0,1,3,5,2,0,250.0,test,3,E-
1151.1259079,0,1000,0,1,4,0,1,3,5,2,0,250.0,test,0,E-
878.481864929,1,1000,3,1,4,0,1,3,5,2,0,250.0,test,1,E-
495.77498436,2,1000,4,1,4,0,1,3,5,2,0,250.0,test,2,E-
559.11397934,2,1000,4,1,4,0,1,3,5,2,0,250.0,test,2,E-
783.637046814,5,1000,5,1,4,0,1,3,5,2,0,250.0,test,5,E-
462.358951569,1,1000,3,1,4,0,1,3,5,2,0,250.0,test,1,E-
319.658041,0,1000,0,1,4,0,1,3,5,2,0,250.0,test,0,E-
398.902177811,0,1000,0,1,4,0,1,3,5,2,0,250.0,test,0,E-
479.61306572,4,1000,1,0,4,0,1,3,5,2,0,250.0,test,5,E-
495.693922043,5,1000,5,1,4,0,1,3,5,2,0,250.0,test,5,E-
413.185119629,1,1000,3,1,4,0,1,3,5,2,0,250.0,test,1,E-
382.420063019,5,1000,5,1,4,0,1,3,5,2,0,250.0,test,5,E-
398.913860321,1,1000,3,1,4,0,1,3,5,2,0,250.0,test,1,E-
590.996980667,4,1000,1,0,4,0,1,3,5,2,0,250.0,test,5,E-
478.204011917,1,1000,3,1,4,0,1,3,5,2,0,250.0,test,1,E-
687.572956085,4,1000,1,1,4,0,1,3,5,2,0,250.0,test,4,E-
623.661994934,3,1000,2,1,4,0,1,3,5,2,0,250.0,test,3,E-
527.624130249,3,1000,2,1,4,0,1,3,5,2,0,250.0,test,3,E-
495.756864548,4,1000,1,1,4,0,1,3,5,2,0,250.0,test,4,E-
686.511039734,2,1000,4,1,4,0,1,3,5,2,0,250.0,test,2,E-
543.057918549,3,1000,2,0,4,0,1,3,5,2,0,250.0,test,4,E-
783.070087433,1,1000,3,1,4,0,1,3,5,2,0,250.0,test,1,E-
398.452997208,1,1000,3,1,4,0,1,3,5,2,0,250.0,test,1,E-
511.598110199,3,1000,2,1,4,0,1,3,5,2,0,250.0,test,3,E-
575.111865997,5,1000,5,1,4,0,1,3,5,2,0,250.0,test,5,E-
526.762962341,3,1000,2,1,4,0,1,3,5,2,0,250.0,test,3,E-
414.200782776,5,1000,5,1,4,0,1,3,5,2,0,250.0,test,5,E-
479.666948318,1,1000,3,1,4,0,1,3,5,2,0,250.0,test,1,E-
478.563785553,1,1000,3,1,4,0,1,3,5,2,0,250.0,test,1,E-
494.611978531,3,1000,2,1,4,0,1,3,5,2,0,250.0,test,3,E-
478.800058365,0,1000,0,1,4,0,1,3,5,2,0,250.0,test,0,E-
542.579889297,3,1000,2,0,4,0,1,3,5,2,0,250.0,test,2,E-
415.678977966,3,1000,2,1,4,0,1,3,5,2,0,250.0,test,3,E-
542.644023895,4,1000,1,1,4,0,1,3,5,2,0,250.0,test,4,E-
622.919082642,0,1000,0,1,4,0,1,3,5,2,0,250.0,test,0,E-
494.157075882,3,1000,2,1,4,0,1,3,5,2,0,250.0,test,3,E-
543.0560112,4,1000,1,1,4,0,1,3,5,2,0,250.0,test,4,E-
542.971134186,0,1000,0,1,4,0,1,3,5,2,0,250.0,test,0,E-
622.55191803,1,1000,3,1,4,0,1,3,5,2,0,250.0,test,1,E-
591.520786285,5,1000,5,1,4,0,1,3,5,2,0,250.0,test,5,E-
511.08288765,2,1000,4,1,4,0,1,3,5,2,0,250.0,test,2,E-
575.623035431,5,1000,5,0,4,0,1,3,5,2,0,250.0,test,3,E-
719.043970108,1,1000,3,1,4,0,1,3,5,2,0,250.0,test,1,E-
510.447025299,0,1000,0,1,4,0,1,3,5,2,0,250.0,test,0,E-
510.459184647,2,1000,4,1,4,0,1,3,5,2,0,250.0,test,2,E-
607.536077499,5,1000,5,1,4,0,1,3,5,2,0,250.0,test,5,E-
607.604026794,0,1000,0,1,4,0,1,3,5,2,0,250.0,test,0,E-
637.461900711,3,1000,2,1,4,0,1,3,5,2,0,250.0,test,3,E-
366.920948029,0,1000,0,0,4,0,1,3,5,2,0,250.0,test,5,E-
703.701019287,1,1000,3,1,4,0,1,3,5,2,0,250.0,test,1,E-
623.726129532,1,1000,3,1,4,0,1,3,5,2,0,250.0,test,1,E-
590.312004089,4,1000,1,1,4,0,1,3,5,2,0,250.0,test,4,E-
719.033002853,2,1000,4,1,4,0,1,3,5,2,0,250.0,test,2,E-
495.396852493,1,1000,3,1,4,0,1,3,5,2,0,250.0,test,1,E-
511.057138443,2,1000,4,1,4,0,1,3,5,2,0,250.0,test,2,E-
479.376792908,3,1000,2,1,4,0,1,3,5,2,0,250.0,test,3,E-
414.855003357,5,1000,5,1,4,0,1,3,5,2,0,250.0,test,5,E-
463.428020477,4,1000,1,1,4,0,1,3,5,2,0,250.0,test,4,E-
414.978027344,0,1000,0,1,4,0,1,3,5,2,0,250.0,test,0,E-
318.289995193,1,1000,3,1,4,0,1,3,5,2,0,250.0,test,1,E-
335.600852966,0,1000,0,1,4,0,1,3,5,2,0,250.0,test,0,E-
430.88889122,3,1000,2,1,4,0,1,3,5,2,0,250.0,test,3,E-
478.307962418,2,1000,4,1,4,0,1,3,5,2,0,250.0,test,2,E-
430.769920349,4,1000,1,0,4,0,1,3,5,2,0,250.0,test,5,E-
478.94692421,5,1000,5,1,4,0,1,3,5,2,0,250.0,test,5,E-
350.514888763,0,1000,0,1,4,0,1,3,5,2,0,250.0,test,0,E-
479.036808014,2,1000,4,1,4,0,1,3,5,2,0,250.0,test,2,E-
479.120016098,4,1000,1,0,4,0,1,3,5,2,0,250.0,test,3,E-
815.672159195,2,1000,4,1,4,0,1,3,5,2,0,250.0,test,2,E-
575.560092926,3,1000,2,1,4,0,1,3,5,2,0,250.0,test,3,E-
607.038021088,4,1000,1,1,4,0,1,3,5,2,0,250.0,test,4,E-
926.186084747,3,1000,2,1,4,0,1,3,5,2,0,250.0,test,3,E-
461.925983429,2,1000,4,1,4,0,1,3,5,2,0,250.0,test,2,E-
398.494958878,1,1000,3,1,4,0,1,3,5,2,0,250.0,test,1,E-
495.038032532,4,1000,1,0,4,0,1,3,5,2,0,250.0,test,3,E-
495.604991913,3,1000,2,1,4,0,1,3,5,2,0,250.0,test,3,E-
446.785926819,0,1000,0,1,4,0,1,3,5,2,0,250.0,test,0,E-
462.633132935,3,1000,2,1,4,0,1,3,5,2,0,250.0,test,3,E-
429.446935654,4,1000,1,1,4,0,1,3,5,2,0,250.0,test,4,E-
399.024009705,5,1000,5,1,4,0,1,3,5,2,0,250.0,test,5,E-
333.309173584,0,1000,0,1,4,0,1,3,5,2,0,250.0,test,0,E-
510.968923569,5,1000,5,0,4,0,1,3,5,2,0,250.0,test,3,E-
494.351863861,5,1000,5,1,4,0,1,3,5,2,0,250.0,test,5,E-
415.596008301,5,1000,5,1,4,0,1,3,5,2,0,250.0,test,5,E-
429.891109467,5,1000,5,1,4,0,1,3,5,2,0,250.0,test,5,E-
463.642120361,3,1000,2,1,4,0,1,3,5,2,0,250.0,test,3,E-
463.613986969,0,1000,0,1,4,0,1,3,5,2,0,250.0,test,0,E-
479.676008224,4,1000,1,1,4,0,1,3,5,2,0,250.0,test,4,E-
463.130950928,3,1000,2,1,4,0,1,3,5,2,0,250.0,test,3,E-
543.001890182,5,1000,5,1,4,0,1,3,5,2,0,250.0,test,5,E-
511.847019196,2,1000,4,1,4,0,1,3,5,2,0,250.0,test,2,E-
463.608980179,4,1000,1,0,4,0,1,3,5,2,0,250.0,test,3,E-
445.693016052,4,1000,1,1,4,0,1,3,5,2,0,250.0,test,4,E-
399.636030197,3,1000,2,1,4,0,1,3,5,2,0,250.0,test,3,E-
574.790000916,1,1000,3,1,4,0,1,3,5,2,0,250.0,test,1,E-
414.501905441,2,1000,4,1,4,0,1,3,5,2,0,250.0,test,2,E-
494.604110718,5,1000,5,1,4,0,1,3,5,2,0,250.0,test,5,E-
511.120080948,2,1000,4,1,4,0,1,3,5,2,0,250.0,test,2,E-
511.13986969,2,1000,4,1,4,0,1,3,5,2,0,250.0,test,2,E-
431.605100632,0,1000,0,1,4,0,1,3,5,2,0,250.0,test,0,E-
494.318008423,4,1000,1,0,4,0,1,3,5,2,0,250.0,test,5,E-
431.589126587,0,1000,0,1,4,0,1,3,5,2,0,250.0,test,0,E-
494.614124298,5,1000,5,1,4,0,1,3,5,2,0,250.0,test,5,E-
510.901927948,2,1000,4,1,4,0,1,3,5,2,0,250.0,test,2,E-
511.470794678,3,1000,2,1,4,0,1,3,5,2,0,250.0,test,3,E-
463.549852371,3,1000,2,1,4,0,1,3,5,2,0,250.0,test,3,E-
510.848999023,4,1000,1,1,4,0,1,3,5,2,0,250.0,test,4,E-
461.951971054,3,1000,2,1,4,0,1,3,5,2,0,250.0,test,3,E-
543.008089066,4,1000,1,1,4,0,1,3,5,2,0,250.0,test,4,E-
591.665029526,0,1000,0,1,4,0,1,3,5,2,0,250.0,test,0,E-
831.00104332,2,1000,4,1,4,0,1,3,5,2,0,250.0,test,2,E-
766.986131668,4,1000,1,1,4,0,1,3,5,2,0,250.0,test,4,E-
638.849973679,5,1000,5,1,4,0,1,3,5,2,0,250.0,test,5,E-
414.911985397,0,1000,0,1,4,0,1,3,5,2,0,250.0,test,0,E-
414.855003357,0,1000,0,1,4,0,1,3,5,2,0,250.0,test,0,E-
397.655963898,0,1000,0,1,4,0,1,3,5,2,0,250.0,test,0,E-
655.726909637,5,1000,5,1,4,0,1,3,5,2,0,250.0,test,5,E-
431.711196899,3,1000,2,1,4,0,1,3,5,2,0,250.0,test,3,E-
413.444042206,0,1000,0,0,4,0,1,3,5,2,0,250.0,test,3,E-
495.059967041,4,1000,1,1,4,0,1,3,5,2,0,250.0,test,4,E-
383.593082428,1,1000,3,1,4,0,1,3,5,2,0,250.0,test,1,E-
399.218082428,1,1000,3,1,4,0,1,3,5,2,0,250.0,test,1,E-
430.453062057,1,1000,3,1,4,0,1,3,5,2,0,250.0,test,1,E-
351.623058319,1,1000,3,1,4,0,1,3,5,2,0,250.0,test,1,E-
415.256977081,0,1000,0,1,4,0,1,3,5,2,0,250.0,test,0,E-
382.272005081,1,1000,3,1,4,0,1,3,5,2,0,250.0,test,1,E-
478.996038437,3,1000,2,1,4,0,1,3,5,2,0,250.0,test,3,E-
429.790973663,4,1000,1,1,4,0,1,3,5,2,0,250.0,test,4,E-
351.561069489,4,1000,1,1,4,0,1,3,5,2,0,250.0,test,4,E-
446.306943893,1,1000,3,1,4,0,1,3,5,2,0,250.0,test,1,E-
543.529033661,3,1000,2,0,4,0,1,3,5,2,0,250.0,test,2,E-
382.769107819,0,1000,0,1,4,0,1,3,5,2,0,250.0,test,0,E-
654.544830322,3,1000,2,1,4,0,1,3,5,2,0,250.0,test,3,E-
543.108940125,1,1000,3,1,4,0,1,3,5,2,0,250.0,test,1,E-
559.634923935,3,1000,2,1,4,0,1,3,5,2,0,250.0,test,3,E-
431.664943695,4,1000,1,1,4,0,1,3,5,2,0,250.0,test,4,E-
527.66084671,2,1000,4,1,4,0,1,3,5,2,0,250.0,test,2,E-
799.70908165,5,1000,5,0,4,0,1,3,5,2,0,250.0,test,3,E-
398.375988007,5,1000,5,1,4,0,1,3,5,2,0,250.0,test,5,E-
335.645914078,4,1000,1,1,4,0,1,3,5,2,0,250.0,test,4,E-
607.72395134,1,1000,3,1,4,0,1,3,5,2,0,250.0,test,1,E-
399.767875671,1,1000,3,1,4,0,1,3,5,2,0,250.0,test,1,E-
367.620944977,0,1000,0,1,4,0,1,3,5,2,0,250.0,test,0,E-
511.693000793,3,1000,2,1,4,0,1,3,5,2,0,250.0,test,3,E-
542.520999908,2,1000,4,1,4,0,1,3,5,2,0,250.0,test,2,E-
479.144096375,1,1000,3,1,4,0,1,3,5,2,0,250.0,test,1,E-
446.332931519,0,1000,0,1,4,0,1,3,5,2,0,250.0,test,0,E-
591.567993164,4,1000,1,0,4,0,1,3,5,2,0,250.0,test,3,E-
463.644981384,5,1000,5,1,4,0,1,3,5,2,0,250.0,test,5,E-
446.748018265,5,1000,5,1,4,0,1,3,5,2,0,250.0,test,5,E-
367.01798439,2,1000,4,1,4,0,1,3,5,2,0,250.0,test,2,E-
446.655988693,1,1000,3,1,4,0,1,3,5,2,0,250.0,test,1,E-
477.916002274,5,1000,5,1,4,0,1,3,5,2,0,250.0,test,5,E-
447.134971619,0,1000,0,1,4,0,1,3,5,2,0,250.0,test,0,E-
718.802928925,3,1000,2,1,4,0,1,3,5,2,0,250.0,test,3,E-
543.272018433,1,1000,3,1,4,0,1,3,5,2,0,250.0,test,1,E-
558.716058731,3,1000,2,1,4,0,1,3,5,2,0,250.0,test,3,E-
526.6289711,2,1000,4,1,4,0,1,3,5,2,0,250.0,test,2,E-
381.843090057,2,1000,4,1,4,0,1,3,5,2,0,250.0,test,2,E-
399.017810822,1,1000,3,1,4,0,1,3,5,2,0,250.0,test,1,E-
639.487981796,3,1000,2,1,4,0,1,3,5,2,0,250.0,test,3,E-
574.92685318,2,1000,4,1,4,0,1,3,5,2,0,250.0,test,2,E-
831.722974777,5,1000,5,1,4,0,1,3,5,2,0,250.0,test,5,E-
510.391950607,1,1000,3,1,4,0,1,3,5,2,0,250.0,test,1,E-
494.900941849,2,1000,4,1,4,0,1,3,5,2,0,250.0,test,2,E-
415.525913239,0,1000,0,1,4,0,1,3,5,2,0,250.0,test,0,E-
526.458978653,3,1000,2,1,4,0,1,3,5,2,0,250.0,test,3,E-
430.428981781,5,1000,5,1,4,0,1,3,5,2,0,250.0,test,5,E-
556.125879288,4,1000,1,1,4,0,1,3,5,2,0,250.0,test,4,E-
413.263082504,0,1000,0,1,4,0,1,3,5,2,0,250.0,test,0,E-
462.046146393,0,1000,0,1,4,0,1,3,5,2,0,250.0,test,0,E-
542.752027512,2,1000,4,1,4,0,1,3,5,2,0,250.0,test,2,E-
462.515830994,4,1000,1,1,4,0,1,3,5,2,0,250.0,test,4,E-
590.975046158,2,1000,4,0,4,0,1,3,5,2,0,250.0,test,3,E-
479.13479805,0,1000,0,1,4,0,1,3,5,2,0,250.0,test,0,E-
573.775053024,0,1000,0,1,4,0,1,3,5,2,0,250.0,test,0,E-
431.638002396,2,1000,4,1,4,0,1,3,5,2,0,250.0,test,2,E-
382.421970367,0,1000,0,1,4,0,1,3,5,2,0,250.0,test,0,E-
381.656885147,1,1000,3,1,4,0,1,3,5,2,0,250.0,test,1,E-
430.25803566,5,1000,5,0,4,0,1,3,5,2,0,250.0,test,3,E-
446.045875549,3,1000,2,1,4,0,1,3,5,2,0,250.0,test,3,E-
398.288965225,0,1000,0,1,4,0,1,3,5,2,0,250.0,test,0,E-
655.641794205,4,1000,1,1,4,0,1,3,5,2,0,250.0,test,4,E-
478.106021881,3,1000,2,1,4,0,1,3,5,2,0,250.0,test,3,E-
415.619134903,0,1000,0,1,4,0,1,3,5,2,0,250.0,test,0,E-
382.441997528,0,1000,0,1,4,0,1,3,5,2,0,250.0,test,0,E-
399.612903595,1,1000,3,1,4,0,1,3,5,2,0,250.0,test,1,E-
415.6498909,0,1000,0,1,4,0,1,3,5,2,0,250.0,test,0,E-
558.547973633,3,1000,2,1,4,0,1,3,5,2,0,250.0,test,3,E-
558.623075485,2,1000,4,1,4,0,1,3,5,2,0,250.0,test,2,E-
478.999137878,3,1000,2,1,4,0,1,3,5,2,0,250.0,test,3,E-
654.777050018,0,1000,0,1,4,0,1,3,5,2,0,250.0,test,0,E-
526.794910431,5,1000,5,1,4,0,1,3,5,2,0,250.0,test,5,E-
479.172945023,2,1000,4,1,4,0,1,3,5,2,0,250.0,test,2,E-
382.466077805,0,1000,0,1,4,0,1,3,5,2,0,250.0,test,0,E-
479.088068008,3,1000,2,1,4,0,1,3,5,2,0,250.0,test,3,E-
494.626998901,4,1000,1,1,4,0,1,3,5,2,0,250.0,test,4,E-
750.5671978,4,1000,1,1,4,0,1,3,5,2,0,250.0,test,4,E-
719.522953033,4,1000,1,1,4,0,1,3,5,2,0,250.0,test,4,E-
478.89995575,1,1000,3,1,4,0,1,3,5,2,0,250.0,test,1,E-
382.350921631,0,1000,0,1,4,0,1,3,5,2,0,250.0,test,0,E-
383.529186249,1,1000,3,1,4,0,1,3,5,2,0,250.0,test,1,E-
414.647102356,1,1000,3,0,4,0,1,3,5,2,0,250.0,test,0,E-
414.469957352,1,1000,3,1,4,0,1,3,5,2,0,250.0,test,1,E-
766.247034073,4,1000,1,1,4,0,1,3,5,2,0,250.0,test,4,E-
447.403907776,3,1000,2,1,4,0,1,3,5,2,0,250.0,test,3,E-
382.863998413,2,1000,4,1,4,0,1,3,5,2,0,250.0,test,2,E-
398.78988266,2,1000,4,1,4,0,1,3,5,2,0,250.0,test,2,E-
415.547132492,2,1000,4,1,4,0,1,3,5,2,0,250.0,test,2,E-
350.842952728,1,1000,3,1,4,0,1,3,5,2,0,250.0,test,1,E-
351.562023163,0,1000,0,1,4,0,1,3,5,2,0,250.0,test,0,E-
461.243152618,3,1000,2,1,4,0,1,3,5,2,0,250.0,test,3,E-
447.672843933,2,1000,4,1,4,0,1,3,5,2,0,250.0,test,2,E-
334.375858307,1,1000,3,1,4,0,1,3,5,2,0,250.0,test,1,E-
447.67999649,4,1000,1,0,4,0,1,3,5,2,0,250.0,test,5,E-
543.082952499,4,1000,1,1,4,0,1,3,5,2,0,250.0,test,4,E-
446.574926376,2,1000,4,1,4,0,1,3,5,2,0,250.0,test,2,E-
430.559873581,4,1000,1,1,4,0,1,3,5,2,0,250.0,test,4,E-
335.666179657,4,1000,1,1,4,0,1,3,5,2,0,250.0,test,4,E-
429.277896881,5,1000,5,1,4,0,1,3,5,2,0,250.0,test,5,E-
399.661064148,5,1000,5,0,4,0,1,3,5,2,0,250.0,test,4,E-
463.710069656,4,1000,1,1,4,0,1,3,5,2,0,250.0,test,4,E-
863.650083542,3,1000,2,1,4,0,1,3,5,2,0,250.0,test,3,E-
383.017063141,0,1000,0,1,4,0,1,3,5,2,0,250.0,test,0,E-
430.707931519,5,1000,5,1,4,0,1,3,5,2,0,250.0,test,5,E-
333.604097366,2,1000,4,1,4,0,1,3,5,2,0,250.0,test,2,E-
397.902011871,0,1000,0,1,4,0,1,3,5,2,0,250.0,test,0,E-
415.636062622,2,1000,4,1,4,0,1,3,5,2,0,250.0,test,2,E-
494.822978973,3,1000,2,1,4,0,1,3,5,2,0,250.0,test,3,E-
477.807998657,5,1000,5,1,4,0,1,3,5,2,0,250.0,test,5,E-
415.148973465,5,1000,5,1,4,0,1,3,5,2,0,250.0,test,5,E-
383.109092712,5,1000,5,1,4,0,1,3,5,2,0,250.0,test,5,E-
399.067163467,5,1000,5,1,4,0,1,3,5,2,0,250.0,test,5,E-
559.762001038,4,1000,1,1,4,0,1,3,5,2,0,250.0,test,4,E-
398.991107941,4,1000,1,1,4,0,1,3,5,2,0,250.0,test,4,E-
414.441108704,5,1000,5,1,4,0,1,3,5,2,0,250.0,test,5,E-
574.87487793,2,1000,4,1,4,0,1,3,5,2,0,250.0,test,2,E-
350.41308403,1,1000,3,1,4,0,1,3,5,2,0,250.0,test,1,E-
414.840936661,5,1000,5,1,4,0,1,3,5,2,0,250.0,test,5,E-
511.566877365,1,1000,3,1,4,0,1,3,5,2,0,250.0,test,1,E-
431.612968445,4,1000,1,0,4,0,1,3,5,2,0,250.0,test,5,E-
478.38306427,5,1000,5,1,4,0,1,3,5,2,0,250.0,test,5,E-
415.699005127,5,1000,5,1,4,0,1,3,5,2,0,250.0,test,5,E-
350.499868393,5,1000,5,1,4,0,1,3,5,2,0,250.0,test,5,E-
