RT,correct_response,ms-prestimblank,curstim,correct,SRmap_1,SRmap_0,SRmap_3,SRmap_2,SRmap_5,SRmap_4,ms-precue,ntrials,type,response,condition
5801.73301697,0,1000,2,1,1,2,4,0,5,3,0,250.0,train,0,H+
3131.71195984,1,1000,1,1,1,2,4,0,5,3,0,250.0,train,1,H+
1466.29095078,4,1000,3,1,1,2,4,0,5,3,0,250.0,train,4,H+
1290.21787643,0,1000,2,1,1,2,4,0,5,3,0,250.0,train,0,H+
2282.36198425,1,1000,1,1,1,2,4,0,5,3,0,250.0,train,1,H+
2362.35785484,2,1000,0,1,1,2,4,0,5,3,0,250.0,train,2,H+
1051.77116394,4,1000,3,1,1,2,4,0,5,3,0,250.0,train,4,H+
1019.135952,0,1000,2,1,1,2,4,0,5,3,0,250.0,train,0,H+
1019.68884468,3,1000,4,1,1,2,4,0,5,3,0,250.0,train,3,H+
938.395023346,0,1000,2,1,1,2,4,0,5,3,0,250.0,train,0,H+
1259.73391533,5,1000,5,1,1,2,4,0,5,3,0,250.0,train,5,H+
1035.19487381,3,1000,4,1,1,2,4,0,5,3,0,250.0,train,3,H+
954.337120056,5,1000,5,1,1,2,4,0,5,3,0,250.0,train,5,H+
747.781991959,5,1000,5,1,1,2,4,0,5,3,0,250.0,train,5,H+
987.411975861,3,1000,4,1,1,2,4,0,5,3,0,250.0,train,3,H+
618.305921555,0,1000,2,1,1,2,4,0,5,3,0,250.0,train,0,H+
890.331983566,4,1000,3,1,1,2,4,0,5,3,0,250.0,train,4,H+
650.291204453,5,1000,5,1,1,2,4,0,5,3,0,250.0,train,5,H+
795.739173889,3,1000,4,1,1,2,4,0,5,3,0,250.0,train,3,H+
907.779932022,1,1000,1,1,1,2,4,0,5,3,0,250.0,train,1,H+
715.761899948,0,1000,2,1,1,2,4,0,5,3,0,250.0,train,0,H+
714.278936386,1,1000,1,0,1,2,4,0,5,3,0,250.0,train,0,H+
1178.13897133,2,1000,0,1,1,2,4,0,5,3,0,250.0,train,2,H+
857.792139053,4,1000,3,1,1,2,4,0,5,3,0,250.0,train,4,H+
714.241027832,4,1000,3,1,1,2,4,0,5,3,0,250.0,train,4,H+
810.492038727,5,1000,5,1,1,2,4,0,5,3,0,250.0,train,5,H+
699.699878693,4,1000,3,0,1,2,4,0,5,3,0,250.0,train,5,H+
746.288061142,5,1000,5,1,1,2,4,0,5,3,0,250.0,train,5,H+
603.759050369,4,1000,3,0,1,2,4,0,5,3,0,250.0,train,5,H+
1594.43187714,2,1000,0,1,1,2,4,0,5,3,0,250.0,train,2,H+
858.303070068,4,1000,3,1,1,2,4,0,5,3,0,250.0,train,4,H+
890.299081802,1,1000,1,1,1,2,4,0,5,3,0,250.0,train,1,H+
826.319217682,0,1000,2,1,1,2,4,0,5,3,0,250.0,train,0,H+
810.389995575,4,1000,3,1,1,2,4,0,5,3,0,250.0,train,4,H+
906.352043152,0,1000,2,1,1,2,4,0,5,3,0,250.0,train,0,H+
698.341846466,0,1000,2,1,1,2,4,0,5,3,0,250.0,train,0,H+
682.358980179,0,1000,2,1,1,2,4,0,5,3,0,250.0,train,0,H+
1066.39194489,3,1000,4,1,1,2,4,0,5,3,0,250.0,train,3,H+
730.266094208,0,1000,2,1,1,2,4,0,5,3,0,250.0,train,0,H+
874.210119247,5,1000,5,1,1,2,4,0,5,3,0,250.0,train,5,H+
842.247009277,1,1000,1,1,1,2,4,0,5,3,0,250.0,train,1,H+
395.613908768,4,1000,3,1,1,2,4,0,5,3,0,250.0,train,4,H+
474.154949188,5,1000,5,1,1,2,4,0,5,3,0,250.0,train,5,H+
906.253099442,3,1000,4,1,1,2,4,0,5,3,0,250.0,train,3,H+
554.239034653,5,1000,5,0,1,2,4,0,5,3,0,250.0,train,4,H+
1226.38392448,2,1000,0,1,1,2,4,0,5,3,0,250.0,train,2,H+
874.101877213,3,1000,4,1,1,2,4,0,5,3,0,250.0,train,3,H+
682.302951813,0,1000,2,1,1,2,4,0,5,3,0,250.0,train,0,H+
779.703855515,5,1000,5,1,1,2,4,0,5,3,0,250.0,train,5,H+
555.782079697,5,1000,5,1,1,2,4,0,5,3,0,250.0,train,5,H+
955.86180687,3,1000,4,1,1,2,4,0,5,3,0,250.0,train,3,H+
603.147983551,5,1000,5,1,1,2,4,0,5,3,0,250.0,train,5,H+
538.372039795,5,1000,5,1,1,2,4,0,5,3,0,250.0,train,5,H+
906.306028366,3,1000,4,1,1,2,4,0,5,3,0,250.0,train,3,H+
650.354146957,2,1000,0,0,1,2,4,0,5,3,0,250.0,train,3,H+
618.330001831,0,1000,2,1,1,2,4,0,5,3,0,250.0,train,0,H+
938.354969025,2,1000,0,1,1,2,4,0,5,3,0,250.0,train,2,H+
602.349042892,0,1000,2,1,1,2,4,0,5,3,0,250.0,train,0,H+
1018.3069706,1,1000,1,1,1,2,4,0,5,3,0,250.0,train,1,H+
778.455018997,1,1000,1,1,1,2,4,0,5,3,0,250.0,train,1,H+
538.255929947,0,1000,2,1,1,2,4,0,5,3,0,250.0,train,0,H+
1034.35587883,5,1000,5,1,1,2,4,0,5,3,0,250.0,train,5,H+
795.178174973,0,1000,2,1,1,2,4,0,5,3,0,250.0,train,0,H+
874.36413765,3,1000,4,1,1,2,4,0,5,3,0,250.0,train,3,H+
810.389995575,0,1000,2,1,1,2,4,0,5,3,0,250.0,train,0,H+
1259.80997086,2,1000,0,1,1,2,4,0,5,3,0,250.0,train,2,H+
923.780918121,4,1000,3,1,1,2,4,0,5,3,0,250.0,train,4,H+
939.783096313,2,1000,0,1,1,2,4,0,5,3,0,250.0,train,2,H+
635.080099106,0,1000,2,1,1,2,4,0,5,3,0,250.0,train,0,H+
939.609050751,3,1000,4,1,1,2,4,0,5,3,0,250.0,train,3,H+
858.240842819,5,1000,5,1,1,2,4,0,5,3,0,250.0,train,5,H+
522.330999374,5,1000,5,1,1,2,4,0,5,3,0,250.0,train,5,H+
1098.31118584,2,1000,0,1,1,2,4,0,5,3,0,250.0,train,2,H+
587.164878845,5,1000,5,1,1,2,4,0,5,3,0,250.0,train,5,H+
922.241210938,1,1000,1,1,1,2,4,0,5,3,0,250.0,train,1,H+
602.329015732,0,1000,2,1,1,2,4,0,5,3,0,250.0,train,0,H+
842.310905457,2,1000,0,1,1,2,4,0,5,3,0,250.0,train,2,H+
858.366012573,3,1000,4,1,1,2,4,0,5,3,0,250.0,train,3,H+
650.279998779,3,1000,4,1,1,2,4,0,5,3,0,250.0,train,3,H+
507.822990417,3,1000,4,1,1,2,4,0,5,3,0,250.0,train,3,H+
715.759038925,3,1000,4,1,1,2,4,0,5,3,0,250.0,train,3,H+
715.893030167,1,1000,1,1,1,2,4,0,5,3,0,250.0,train,1,H+
714.345932007,1,1000,1,1,1,2,4,0,5,3,0,250.0,train,1,H+
522.430181503,0,1000,2,1,1,2,4,0,5,3,0,250.0,train,0,H+
650.396823883,0,1000,2,1,1,2,4,0,5,3,0,250.0,train,0,H+
490.346193314,0,1000,2,1,1,2,4,0,5,3,0,250.0,train,0,H+
683.145046234,0,1000,2,1,1,2,4,0,5,3,0,250.0,train,0,H+
714.339017868,3,1000,4,1,1,2,4,0,5,3,0,250.0,train,3,H+
746.412992477,4,1000,3,1,1,2,4,0,5,3,0,250.0,train,4,H+
826.472997665,5,1000,5,1,1,2,4,0,5,3,0,250.0,train,5,H+
826.382875443,2,1000,0,0,1,2,4,0,5,3,0,250.0,train,3,H+
650.212049484,3,1000,4,1,1,2,4,0,5,3,0,250.0,train,3,H+
458.164930344,3,1000,4,1,1,2,4,0,5,3,0,250.0,train,3,H+
922.394990921,5,1000,5,1,1,2,4,0,5,3,0,250.0,train,5,H+
794.776916504,1,1000,1,1,1,2,4,0,5,3,0,250.0,train,1,H+
635.793209076,4,1000,3,1,1,2,4,0,5,3,0,250.0,train,4,H+
955.809116364,1,1000,1,1,1,2,4,0,5,3,0,250.0,train,1,H+
714.271068573,2,1000,0,1,1,2,4,0,5,3,0,250.0,train,2,H+
874.403953552,1,1000,1,1,1,2,4,0,5,3,0,250.0,train,1,H+
826.190948486,2,1000,0,1,1,2,4,0,5,3,0,250.0,train,2,H+
698.306798935,1,1000,1,1,1,2,4,0,5,3,0,250.0,train,1,H+
602.326869965,4,1000,3,1,1,2,4,0,5,3,0,250.0,train,4,H+
747.617959976,0,1000,2,1,1,2,4,0,5,3,0,250.0,train,0,H+
553.647994995,0,1000,2,1,1,2,4,0,5,3,0,250.0,train,0,H+
490.277051926,0,1000,2,1,1,2,4,0,5,3,0,250.0,train,0,H+
730.19695282,4,1000,3,1,1,2,4,0,5,3,0,250.0,train,4,H+
1018.3069706,5,1000,5,1,1,2,4,0,5,3,0,250.0,train,5,H+
475.136995316,4,1000,3,1,1,2,4,0,5,3,0,250.0,train,4,H+
778.275966644,0,1000,2,1,1,2,4,0,5,3,0,250.0,train,0,H+
507.827043533,1,1000,1,1,1,2,4,0,5,3,0,250.0,train,1,H+
539.885997772,1,1000,1,1,1,2,4,0,5,3,0,250.0,train,1,H+
890.444993973,5,1000,5,1,1,2,4,0,5,3,0,250.0,train,5,H+
714.350938797,3,1000,4,1,1,2,4,0,5,3,0,250.0,train,3,H+
555.783987045,2,1000,0,0,1,2,4,0,5,3,0,250.0,train,4,H+
650.324821472,1,1000,1,1,1,2,4,0,5,3,0,250.0,train,1,H+
650.429010391,2,1000,0,1,1,2,4,0,5,3,0,250.0,train,2,H+
506.343126297,2,1000,0,1,1,2,4,0,5,3,0,250.0,train,2,H+
570.387125015,4,1000,3,1,1,2,4,0,5,3,0,250.0,train,4,H+
618.335008621,5,1000,5,1,1,2,4,0,5,3,0,250.0,train,5,H+
938.072919846,0,1000,2,1,1,2,4,0,5,3,0,250.0,train,0,H+
538.35606575,1,1000,1,1,1,2,4,0,5,3,0,250.0,train,1,H+
1546.4630127,2,1000,0,1,1,2,4,0,5,3,0,250.0,train,2,H+
619.793891907,0,1000,2,1,1,2,4,0,5,3,0,250.0,train,0,H+
1146.28791809,2,1000,0,1,1,2,4,0,5,3,0,250.0,train,2,H+
571.238040924,1,1000,1,1,1,2,4,0,5,3,0,250.0,train,1,H+
891.793012619,5,1000,5,1,1,2,4,0,5,3,0,250.0,train,5,H+
1146.45910263,2,1000,0,1,1,2,4,0,5,3,0,250.0,train,2,H+
586.369991302,1,1000,1,1,1,2,4,0,5,3,0,250.0,train,1,H+
506.374835968,0,1000,2,1,1,2,4,0,5,3,0,250.0,train,0,H+
570.368051529,5,1000,5,1,1,2,4,0,5,3,0,250.0,train,5,H+
554.238080978,0,1000,2,1,1,2,4,0,5,3,0,250.0,train,0,H+
587.769031525,4,1000,3,1,1,2,4,0,5,3,0,250.0,train,4,H+
571.775913239,0,1000,2,1,1,2,4,0,5,3,0,250.0,train,0,H+
491.818904877,5,1000,5,0,1,2,4,0,5,3,0,250.0,train,4,H+
1114.3579483,3,1000,4,1,1,2,4,0,5,3,0,250.0,train,3,H+
955.5580616,4,1000,3,1,1,2,4,0,5,3,0,250.0,train,4,H+
714.321136475,5,1000,5,1,1,2,4,0,5,3,0,250.0,train,5,H+
634.303092957,4,1000,3,1,1,2,4,0,5,3,0,250.0,train,4,H+
490.317106247,4,1000,3,1,1,2,4,0,5,3,0,250.0,train,4,H+
619.790077209,2,1000,0,1,1,2,4,0,5,3,0,250.0,train,2,H+
570.082902908,4,1000,3,1,1,2,4,0,5,3,0,250.0,train,4,H+
923.833847046,4,1000,3,1,1,2,4,0,5,3,0,250.0,train,4,H+
588.521003723,4,1000,3,1,1,2,4,0,5,3,0,250.0,train,4,H+
554.449081421,5,1000,5,1,1,2,4,0,5,3,0,250.0,train,5,H+
635.835886002,1,1000,1,1,1,2,4,0,5,3,0,250.0,train,1,H+
570.397138596,5,1000,5,0,1,2,4,0,5,3,0,250.0,train,4,H+
522.355079651,4,1000,3,1,1,2,4,0,5,3,0,250.0,train,4,H+
666.41497612,3,1000,4,1,1,2,4,0,5,3,0,250.0,train,3,H+
538.339138031,1,1000,1,1,1,2,4,0,5,3,0,250.0,train,1,H+
698.435783386,0,1000,2,1,1,2,4,0,5,3,0,250.0,train,0,H+
458.307027817,0,1000,2,1,1,2,4,0,5,3,0,250.0,train,0,H+
1402.38213539,4,1000,3,1,1,2,4,0,5,3,0,250.0,train,4,H+
554.316997528,0,1000,2,1,1,2,4,0,5,3,0,250.0,train,0,H+
602.327108383,3,1000,4,1,1,2,4,0,5,3,0,250.0,train,3,H+
618.376016617,1,1000,1,1,1,2,4,0,5,3,0,250.0,train,1,H+
747.836112976,4,1000,3,1,1,2,4,0,5,3,0,250.0,train,4,H+
698.935031891,0,1000,2,1,1,2,4,0,5,3,0,250.0,train,0,H+
1018.32103729,2,1000,0,1,1,2,4,0,5,3,0,250.0,train,2,H+
762.339115143,5,1000,5,1,1,2,4,0,5,3,0,250.0,train,5,H+
795.848846436,3,1000,4,1,1,2,4,0,5,3,0,250.0,train,3,H+
986.279010773,5,1000,5,0,1,2,4,0,5,3,0,250.0,train,4,H+
603.815078735,3,1000,4,1,1,2,4,0,5,3,0,250.0,train,3,H+
507.792949677,4,1000,3,1,1,2,4,0,5,3,0,250.0,train,4,H+
554.306030273,3,1000,4,1,1,2,4,0,5,3,0,250.0,train,3,H+
555.769920349,5,1000,5,0,1,2,4,0,5,3,0,250.0,train,4,H+
1787.58502007,2,1000,0,1,1,2,4,0,5,3,0,250.0,train,2,H+
603.609085083,1,1000,1,1,1,2,4,0,5,3,0,250.0,train,1,H+
682.290077209,2,1000,0,1,1,2,4,0,5,3,0,250.0,train,2,H+
1514.38593864,5,1000,5,1,1,2,4,0,5,3,0,250.0,train,5,H+
683.105945587,0,1000,2,1,1,2,4,0,5,3,0,250.0,train,0,H+
570.246934891,4,1000,3,1,1,2,4,0,5,3,0,250.0,train,4,H+
554.388999939,0,1000,2,1,1,2,4,0,5,3,0,250.0,train,0,H+
522.233009338,0,1000,2,1,1,2,4,0,5,3,0,250.0,train,0,H+
554.258108139,1,1000,1,1,1,2,4,0,5,3,0,250.0,train,1,H+
1402.35805511,2,1000,0,1,1,2,4,0,5,3,0,250.0,train,2,H+
955.807924271,3,1000,4,1,1,2,4,0,5,3,0,250.0,train,3,H+
586.379051208,0,1000,2,1,1,2,4,0,5,3,0,250.0,train,0,H+
538.389921188,1,1000,1,1,1,2,4,0,5,3,0,250.0,train,1,H+
570.355892181,4,1000,3,1,1,2,4,0,5,3,0,250.0,train,4,H+
778.448820114,3,1000,4,1,1,2,4,0,5,3,0,250.0,train,3,H+
971.217155457,0,1000,2,1,1,2,4,0,5,3,0,250.0,train,0,H+
731.716871262,3,1000,4,1,1,2,4,0,5,3,0,250.0,train,3,H+
746.36721611,4,1000,3,1,1,2,4,0,5,3,0,250.0,train,4,H+
1194.27680969,2,1000,0,1,1,2,4,0,5,3,0,250.0,train,2,H+
602.307081223,4,1000,3,1,1,2,4,0,5,3,0,250.0,train,4,H+
682.35206604,3,1000,4,1,1,2,4,0,5,3,0,250.0,train,3,H+
602.385044098,5,1000,5,1,1,2,4,0,5,3,0,250.0,train,5,H+
522.354841232,4,1000,3,1,1,2,4,0,5,3,0,250.0,train,4,H+
410.341024399,5,1000,5,1,1,2,4,0,5,3,0,250.0,train,5,H+
650.315999985,1,1000,1,1,1,2,4,0,5,3,0,250.0,train,1,H+
922.367095947,2,1000,0,1,1,2,4,0,5,3,0,250.0,train,2,H+
1179.12507057,4,1000,3,1,1,2,4,0,5,3,0,250.0,train,4,H+
523.797988892,4,1000,3,1,1,2,4,0,5,3,0,250.0,train,4,H+
714.299917221,2,1000,0,1,1,2,4,0,5,3,0,250.0,train,2,H+
891.835927963,5,1000,5,1,1,2,4,0,5,3,0,250.0,train,5,H+
618.293046951,0,1000,2,1,1,2,4,0,5,3,0,250.0,train,0,H+
667.708158493,2,1000,0,1,1,2,4,0,5,3,0,250.0,train,2,H+
490.305900574,5,1000,5,1,1,2,4,0,5,3,0,250.0,train,5,H+
491.656780243,5,1000,5,1,1,2,4,0,5,3,0,250.0,train,5,H+
570.240020752,0,1000,2,1,1,2,4,0,5,3,0,250.0,train,0,H+
443.495035172,0,1000,2,1,1,2,4,0,5,3,0,250.0,train,0,H+
522.337913513,1,1000,1,1,1,2,4,0,5,3,0,250.0,train,1,H+
731.118202209,3,1000,4,1,1,2,4,0,5,3,0,250.0,train,3,H+
1722.33605385,2,1000,0,1,1,2,4,0,5,3,0,250.0,train,2,H+
682.267904282,5,1000,5,1,1,2,4,0,5,3,0,250.0,train,5,H+
506.265878677,5,1000,5,1,1,2,4,0,5,3,0,250.0,train,5,H+
379.786968231,5,1000,5,1,1,2,4,0,5,3,0,250.0,train,5,H+
618.412017822,1,1000,1,1,1,2,4,0,5,3,0,250.0,train,1,H+
891.809940338,3,1000,4,1,1,2,4,0,5,3,0,250.0,train,3,H+
1035.86888313,1,1000,1,1,1,2,4,0,5,3,0,250.0,train,1,H+
555.824995041,5,1000,5,1,1,2,4,0,5,3,0,250.0,train,5,H+
506.407976151,0,1000,2,1,1,2,4,0,5,3,0,250.0,train,0,H+
539.110898972,4,1000,3,1,1,2,4,0,5,3,0,250.0,train,4,H+
538.2771492,0,1000,2,1,1,2,4,0,5,3,0,250.0,train,0,H+
538.114070892,5,1000,5,1,1,2,4,0,5,3,0,250.0,train,5,H+
490.375995636,4,1000,3,1,1,2,4,0,5,3,0,250.0,train,4,H+
602.351903915,5,1000,5,1,1,2,4,0,5,3,0,250.0,train,5,H+
778.327941895,3,1000,4,1,1,2,4,0,5,3,0,250.0,train,3,H+
474.374055862,3,1000,4,1,1,2,4,0,5,3,0,250.0,train,3,H+
650.316953659,0,1000,2,1,1,2,4,0,5,3,0,250.0,train,0,H+
603.814125061,3,1000,4,1,1,2,4,0,5,3,0,250.0,train,3,H+
458.374977112,2,1000,0,1,1,2,4,0,5,3,0,250.0,train,2,H+
682.302951813,3,1000,4,1,1,2,4,0,5,3,0,250.0,train,3,H+
571.078062057,1,1000,1,1,1,2,4,0,5,3,0,250.0,train,1,H+
666.334867477,4,1000,3,1,1,2,4,0,5,3,0,250.0,train,4,H+
635.793924332,5,1000,5,1,1,2,4,0,5,3,0,250.0,train,5,H+
1322.34287262,3,1000,4,1,1,2,4,0,5,3,0,250.0,train,3,H+
538.309812546,1,1000,1,1,1,2,4,0,5,3,0,250.0,train,1,H+
475.073099136,0,1000,2,0,1,2,4,0,5,3,0,250.0,train,1,H+
554.369211197,1,1000,1,1,1,2,4,0,5,3,0,250.0,train,1,H+
539.55078125,1,1000,1,1,1,2,4,0,5,3,0,250.0,train,1,H+
602.291107178,5,1000,5,1,1,2,4,0,5,3,0,250.0,train,5,H+
554.335832596,3,1000,4,1,1,2,4,0,5,3,0,250.0,train,3,H+
682.189941406,0,1000,2,1,1,2,4,0,5,3,0,250.0,train,0,H+
570.389986038,4,1000,3,1,1,2,4,0,5,3,0,250.0,train,4,H+
667.770147324,2,1000,0,1,1,2,4,0,5,3,0,250.0,train,2,H+
634.287118912,0,1000,2,1,1,2,4,0,5,3,0,250.0,train,0,H+
491.654872894,0,1000,2,1,1,2,4,0,5,3,0,250.0,train,0,H+
458.292007446,0,1000,2,1,1,2,4,0,5,3,0,250.0,train,0,H+
570.48201561,0,1000,2,1,1,2,4,0,5,3,0,250.0,train,0,H+
635.703086853,3,1000,4,1,1,2,4,0,5,3,0,250.0,train,3,H+
634.449005127,2,1000,0,1,1,2,4,0,5,3,0,250.0,train,2,H+
554.390907288,3,1000,4,1,1,2,4,0,5,3,0,250.0,train,3,H+
634.374856949,1,1000,1,1,1,2,4,0,5,3,0,250.0,train,1,H+
554.031133652,4,1000,3,1,1,2,4,0,5,3,0,250.0,train,4,H+
523.702859879,1,1000,1,1,1,2,4,0,5,3,0,250.0,train,1,H+
747.133970261,2,1000,0,1,1,2,4,0,5,3,0,250.0,train,2,H+
762.29596138,3,1000,4,1,1,2,4,0,5,3,0,250.0,train,3,H+
842.455863953,2,1000,0,1,1,2,4,0,5,3,0,250.0,train,2,H+
634.377002716,5,1000,5,1,1,2,4,0,5,3,0,250.0,train,5,H+
1131.69002533,2,1000,0,1,1,2,4,0,5,3,0,250.0,test,2,H+
650.500059128,2,1000,0,1,1,2,4,0,5,3,0,250.0,test,2,H+
810.294866562,3,1000,4,1,1,2,4,0,5,3,0,250.0,test,3,H+
715.131998062,3,1000,4,1,1,2,4,0,5,3,0,250.0,test,3,H+
666.373968124,2,1000,0,1,1,2,4,0,5,3,0,250.0,test,2,H+
635.758161545,4,1000,3,1,1,2,4,0,5,3,0,250.0,test,4,H+
746.327161789,3,1000,4,1,1,2,4,0,5,3,0,250.0,test,3,H+
633.069038391,5,1000,5,1,1,2,4,0,5,3,0,250.0,test,5,H+
587.824821472,1,1000,1,1,1,2,4,0,5,3,0,250.0,test,1,H+
746.217012405,2,1000,0,1,1,2,4,0,5,3,0,250.0,test,2,H+
651.764154434,1,1000,1,1,1,2,4,0,5,3,0,250.0,test,1,H+
746.295928955,2,1000,0,1,1,2,4,0,5,3,0,250.0,test,2,H+
554.293870926,5,1000,5,1,1,2,4,0,5,3,0,250.0,test,5,H+
491.627931595,5,1000,5,1,1,2,4,0,5,3,0,250.0,test,5,H+
506.372928619,5,1000,5,1,1,2,4,0,5,3,0,250.0,test,5,H+
778.406143188,3,1000,4,1,1,2,4,0,5,3,0,250.0,test,3,H+
682.430028915,2,1000,0,1,1,2,4,0,5,3,0,250.0,test,2,H+
636.258125305,2,1000,0,1,1,2,4,0,5,3,0,250.0,test,2,H+
667.159080505,4,1000,3,1,1,2,4,0,5,3,0,250.0,test,4,H+
923.864126205,0,1000,2,1,1,2,4,0,5,3,0,250.0,test,0,H+
490.313053131,1,1000,1,1,1,2,4,0,5,3,0,250.0,test,1,H+
651.778936386,4,1000,3,1,1,2,4,0,5,3,0,250.0,test,4,H+
571.572065353,5,1000,5,1,1,2,4,0,5,3,0,250.0,test,5,H+
683.128118515,1,1000,1,1,1,2,4,0,5,3,0,250.0,test,1,H+
618.416070938,5,1000,5,1,1,2,4,0,5,3,0,250.0,test,5,H+
474.333047867,4,1000,3,1,1,2,4,0,5,3,0,250.0,test,4,H+
650.317907333,0,1000,2,1,1,2,4,0,5,3,0,250.0,test,0,H+
538.290977478,0,1000,2,1,1,2,4,0,5,3,0,250.0,test,0,H+
506.328105927,0,1000,2,1,1,2,4,0,5,3,0,250.0,test,0,H+
570.357084274,5,1000,5,1,1,2,4,0,5,3,0,250.0,test,5,H+
586.369037628,1,1000,1,1,1,2,4,0,5,3,0,250.0,test,1,H+
538.368940353,4,1000,3,1,1,2,4,0,5,3,0,250.0,test,4,H+
1211.18617058,2,1000,0,1,1,2,4,0,5,3,0,250.0,test,2,H+
506.355047226,4,1000,3,1,1,2,4,0,5,3,0,250.0,test,4,H+
746.322870255,2,1000,0,1,1,2,4,0,5,3,0,250.0,test,2,H+
571.218013763,2,1000,0,1,1,2,4,0,5,3,0,250.0,test,2,H+
522.253990173,4,1000,3,1,1,2,4,0,5,3,0,250.0,test,4,H+
682.360887527,4,1000,3,1,1,2,4,0,5,3,0,250.0,test,4,H+
667.772769928,2,1000,0,1,1,2,4,0,5,3,0,250.0,test,2,H+
603.799819946,1,1000,1,1,1,2,4,0,5,3,0,250.0,test,1,H+
539.769887924,2,1000,0,1,1,2,4,0,5,3,0,250.0,test,2,H+
683.830976486,1,1000,1,1,1,2,4,0,5,3,0,250.0,test,1,H+
490.23103714,4,1000,3,1,1,2,4,0,5,3,0,250.0,test,4,H+
586.351156235,3,1000,4,0,1,2,4,0,5,3,0,250.0,test,2,H+
570.261955261,1,1000,1,1,1,2,4,0,5,3,0,250.0,test,1,H+
650.261163712,2,1000,0,1,1,2,4,0,5,3,0,250.0,test,2,H+
538.261175156,1,1000,1,1,1,2,4,0,5,3,0,250.0,test,1,H+
794.35300827,3,1000,4,0,1,2,4,0,5,3,0,250.0,test,2,H+
475.710868835,3,1000,4,1,1,2,4,0,5,3,0,250.0,test,3,H+
1051.9618988,2,1000,0,1,1,2,4,0,5,3,0,250.0,test,2,H+
922.145843506,5,1000,5,1,1,2,4,0,5,3,0,250.0,test,5,H+
506.432056427,5,1000,5,1,1,2,4,0,5,3,0,250.0,test,5,H+
507.767915726,4,1000,3,1,1,2,4,0,5,3,0,250.0,test,4,H+
587.691068649,3,1000,4,1,1,2,4,0,5,3,0,250.0,test,3,H+
570.333003998,2,1000,0,1,1,2,4,0,5,3,0,250.0,test,2,H+
682.355165482,5,1000,5,1,1,2,4,0,5,3,0,250.0,test,5,H+
506.352186203,5,1000,5,1,1,2,4,0,5,3,0,250.0,test,5,H+
602.344036102,4,1000,3,1,1,2,4,0,5,3,0,250.0,test,4,H+
522.304058075,4,1000,3,1,1,2,4,0,5,3,0,250.0,test,4,H+
618.35694313,3,1000,4,1,1,2,4,0,5,3,0,250.0,test,3,H+
715.783119202,5,1000,5,1,1,2,4,0,5,3,0,250.0,test,5,H+
554.332017899,3,1000,4,1,1,2,4,0,5,3,0,250.0,test,3,H+
667.159080505,0,1000,2,1,1,2,4,0,5,3,0,250.0,test,0,H+
490.359067917,4,1000,3,1,1,2,4,0,5,3,0,250.0,test,4,H+
826.360940933,0,1000,2,1,1,2,4,0,5,3,0,250.0,test,0,H+
858.41012001,5,1000,5,0,1,2,4,0,5,3,0,250.0,test,4,H+
714.199066162,4,1000,3,1,1,2,4,0,5,3,0,250.0,test,4,H+
474.745035172,4,1000,3,1,1,2,4,0,5,3,0,250.0,test,4,H+
538.330078125,0,1000,2,1,1,2,4,0,5,3,0,250.0,test,0,H+
699.76401329,3,1000,4,0,1,2,4,0,5,3,0,250.0,test,2,H+
554.404973984,0,1000,2,1,1,2,4,0,5,3,0,250.0,test,0,H+
762.362957001,5,1000,5,1,1,2,4,0,5,3,0,250.0,test,5,H+
587.267875671,4,1000,3,1,1,2,4,0,5,3,0,250.0,test,4,H+
699.639081955,5,1000,5,1,1,2,4,0,5,3,0,250.0,test,5,H+
491.61696434,4,1000,3,1,1,2,4,0,5,3,0,250.0,test,4,H+
731.099843979,1,1000,1,1,1,2,4,0,5,3,0,250.0,test,1,H+
763.637065887,3,1000,4,1,1,2,4,0,5,3,0,250.0,test,3,H+
730.393886566,5,1000,5,1,1,2,4,0,5,3,0,250.0,test,5,H+
650.288105011,3,1000,4,1,1,2,4,0,5,3,0,250.0,test,3,H+
858.107805252,2,1000,0,1,1,2,4,0,5,3,0,250.0,test,2,H+
570.238828659,1,1000,1,1,1,2,4,0,5,3,0,250.0,test,1,H+
506.227970123,0,1000,2,1,1,2,4,0,5,3,0,250.0,test,0,H+
619.814157486,5,1000,5,1,1,2,4,0,5,3,0,250.0,test,5,H+
571.717023849,1,1000,1,1,1,2,4,0,5,3,0,250.0,test,1,H+
795.020103455,3,1000,4,1,1,2,4,0,5,3,0,250.0,test,3,H+
922.379970551,2,1000,0,1,1,2,4,0,5,3,0,250.0,test,2,H+
874.3891716,3,1000,4,1,1,2,4,0,5,3,0,250.0,test,3,H+
603.763818741,5,1000,5,1,1,2,4,0,5,3,0,250.0,test,5,H+
554.274082184,0,1000,2,1,1,2,4,0,5,3,0,250.0,test,0,H+
763.159990311,5,1000,5,1,1,2,4,0,5,3,0,250.0,test,5,H+
522.36700058,1,1000,1,1,1,2,4,0,5,3,0,250.0,test,1,H+
714.099168777,3,1000,4,1,1,2,4,0,5,3,0,250.0,test,3,H+
554.347038269,2,1000,0,1,1,2,4,0,5,3,0,250.0,test,2,H+
730.206012726,2,1000,0,1,1,2,4,0,5,3,0,250.0,test,2,H+
505.947113037,3,1000,4,1,1,2,4,0,5,3,0,250.0,test,3,H+
1594.03014183,1,1000,1,1,1,2,4,0,5,3,0,250.0,test,1,H+
826.307058334,5,1000,5,1,1,2,4,0,5,3,0,250.0,test,5,H+
635.860919952,2,1000,0,1,1,2,4,0,5,3,0,250.0,test,2,H+
522.364139557,4,1000,3,1,1,2,4,0,5,3,0,250.0,test,4,H+
586.322784424,0,1000,2,1,1,2,4,0,5,3,0,250.0,test,0,H+
506.298065186,4,1000,3,1,1,2,4,0,5,3,0,250.0,test,4,H+
475.766897202,3,1000,4,1,1,2,4,0,5,3,0,250.0,test,3,H+
538.296937943,0,1000,2,1,1,2,4,0,5,3,0,250.0,test,0,H+
475.803136826,3,1000,4,1,1,2,4,0,5,3,0,250.0,test,3,H+
586.315870285,0,1000,2,1,1,2,4,0,5,3,0,250.0,test,0,H+
795.798063278,5,1000,5,1,1,2,4,0,5,3,0,250.0,test,5,H+
635.812997818,1,1000,1,1,1,2,4,0,5,3,0,250.0,test,1,H+
507.651090622,3,1000,4,1,1,2,4,0,5,3,0,250.0,test,3,H+
411.556005478,3,1000,4,1,1,2,4,0,5,3,0,250.0,test,3,H+
650.345087051,4,1000,3,1,1,2,4,0,5,3,0,250.0,test,4,H+
570.240020752,5,1000,5,1,1,2,4,0,5,3,0,250.0,test,5,H+
458.266019821,5,1000,5,1,1,2,4,0,5,3,0,250.0,test,5,H+
698.213815689,2,1000,0,1,1,2,4,0,5,3,0,250.0,test,2,H+
538.31410408,1,1000,1,1,1,2,4,0,5,3,0,250.0,test,1,H+
523.778915405,4,1000,3,1,1,2,4,0,5,3,0,250.0,test,4,H+
555.752038956,5,1000,5,1,1,2,4,0,5,3,0,250.0,test,5,H+
618.296861649,1,1000,1,1,1,2,4,0,5,3,0,250.0,test,1,H+
523.771047592,5,1000,5,1,1,2,4,0,5,3,0,250.0,test,5,H+
763.793945312,2,1000,0,1,1,2,4,0,5,3,0,250.0,test,2,H+
554.296016693,1,1000,1,1,1,2,4,0,5,3,0,250.0,test,1,H+
570.352077484,5,1000,5,1,1,2,4,0,5,3,0,250.0,test,5,H+
458.406925201,5,1000,5,1,1,2,4,0,5,3,0,250.0,test,5,H+
571.799039841,3,1000,4,1,1,2,4,0,5,3,0,250.0,test,3,H+
666.322946548,3,1000,4,1,1,2,4,0,5,3,0,250.0,test,3,H+
619.163990021,0,1000,2,1,1,2,4,0,5,3,0,250.0,test,0,H+
682.312965393,5,1000,5,1,1,2,4,0,5,3,0,250.0,test,5,H+
522.351980209,5,1000,5,1,1,2,4,0,5,3,0,250.0,test,5,H+
378.19981575,5,1000,5,1,1,2,4,0,5,3,0,250.0,test,5,H+
346.40288353,5,1000,5,1,1,2,4,0,5,3,0,250.0,test,5,H+
570.344924927,1,1000,1,1,1,2,4,0,5,3,0,250.0,test,1,H+
538.296937943,0,1000,2,1,1,2,4,0,5,3,0,250.0,test,0,H+
554.37707901,4,1000,3,1,1,2,4,0,5,3,0,250.0,test,4,H+
666.314840317,5,1000,5,1,1,2,4,0,5,3,0,250.0,test,5,H+
586.342096329,3,1000,4,1,1,2,4,0,5,3,0,250.0,test,3,H+
954.690933228,1,1000,1,1,1,2,4,0,5,3,0,250.0,test,1,H+
779.143095016,2,1000,0,1,1,2,4,0,5,3,0,250.0,test,2,H+
1195.69993019,3,1000,4,1,1,2,4,0,5,3,0,250.0,test,3,H+
538.264989853,1,1000,1,1,1,2,4,0,5,3,0,250.0,test,1,H+
875.747203827,3,1000,4,0,1,2,4,0,5,3,0,250.0,test,2,H+
666.326999664,0,1000,2,1,1,2,4,0,5,3,0,250.0,test,0,H+
635.677099228,2,1000,0,1,1,2,4,0,5,3,0,250.0,test,2,H+
571.156978607,5,1000,5,1,1,2,4,0,5,3,0,250.0,test,5,H+
651.560783386,2,1000,0,0,1,2,4,0,5,3,0,250.0,test,5,H+
554.30316925,0,1000,2,1,1,2,4,0,5,3,0,250.0,test,0,H+
587.161064148,1,1000,1,1,1,2,4,0,5,3,0,250.0,test,1,H+
809.996843338,2,1000,0,1,1,2,4,0,5,3,0,250.0,test,2,H+
507.718086243,0,1000,2,1,1,2,4,0,5,3,0,250.0,test,0,H+
746.373176575,3,1000,4,1,1,2,4,0,5,3,0,250.0,test,3,H+
458.369970322,3,1000,4,1,1,2,4,0,5,3,0,250.0,test,3,H+
666.396141052,5,1000,5,1,1,2,4,0,5,3,0,250.0,test,5,H+
443.747997284,5,1000,5,1,1,2,4,0,5,3,0,250.0,test,5,H+
523.085832596,4,1000,3,1,1,2,4,0,5,3,0,250.0,test,4,H+
778.352975845,3,1000,4,1,1,2,4,0,5,3,0,250.0,test,3,H+
731.781959534,3,1000,4,1,1,2,4,0,5,3,0,250.0,test,3,H+
602.295160294,4,1000,3,1,1,2,4,0,5,3,0,250.0,test,4,H+
731.770992279,0,1000,2,1,1,2,4,0,5,3,0,250.0,test,0,H+
858.283996582,0,1000,2,1,1,2,4,0,5,3,0,250.0,test,0,H+
458.382844925,5,1000,5,0,1,2,4,0,5,3,0,250.0,test,4,H+
506.30402565,5,1000,5,1,1,2,4,0,5,3,0,250.0,test,5,H+
394.171953201,2,1000,0,0,1,2,4,0,5,3,0,250.0,test,5,H+
634.434938431,0,1000,2,1,1,2,4,0,5,3,0,250.0,test,0,H+
538.319826126,5,1000,5,1,1,2,4,0,5,3,0,250.0,test,5,H+
474.388122559,4,1000,3,1,1,2,4,0,5,3,0,250.0,test,4,H+
554.351091385,5,1000,5,1,1,2,4,0,5,3,0,250.0,test,5,H+
587.105989456,1,1000,1,1,1,2,4,0,5,3,0,250.0,test,1,H+
555.762052536,5,1000,5,1,1,2,4,0,5,3,0,250.0,test,5,H+
762.274026871,4,1000,3,1,1,2,4,0,5,3,0,250.0,test,4,H+
1099.78294373,0,1000,2,1,1,2,4,0,5,3,0,250.0,test,0,H+
731.825828552,2,1000,0,1,1,2,4,0,5,3,0,250.0,test,2,H+
842.303037643,1,1000,1,1,1,2,4,0,5,3,0,250.0,test,1,H+
490.334033966,4,1000,3,1,1,2,4,0,5,3,0,250.0,test,4,H+
522.330999374,1,1000,1,1,1,2,4,0,5,3,0,250.0,test,1,H+
827.195882797,5,1000,5,1,1,2,4,0,5,3,0,250.0,test,5,H+
586.211919785,3,1000,4,1,1,2,4,0,5,3,0,250.0,test,3,H+
426.391839981,3,1000,4,1,1,2,4,0,5,3,0,250.0,test,3,H+
490.341901779,4,1000,3,1,1,2,4,0,5,3,0,250.0,test,4,H+
522.366046906,3,1000,4,1,1,2,4,0,5,3,0,250.0,test,3,H+
458.276033401,3,1000,4,1,1,2,4,0,5,3,0,250.0,test,3,H+
506.419181824,4,1000,3,1,1,2,4,0,5,3,0,250.0,test,4,H+
1034.34610367,2,1000,0,1,1,2,4,0,5,3,0,250.0,test,2,H+
603.823900223,0,1000,2,1,1,2,4,0,5,3,0,250.0,test,0,H+
426.358938217,0,1000,2,1,1,2,4,0,5,3,0,250.0,test,0,H+
602.343082428,1,1000,1,1,1,2,4,0,5,3,0,250.0,test,1,H+
602.344989777,3,1000,4,1,1,2,4,0,5,3,0,250.0,test,3,H+
571.73705101,5,1000,5,0,1,2,4,0,5,3,0,250.0,test,4,H+
474.236965179,4,1000,3,1,1,2,4,0,5,3,0,250.0,test,4,H+
537.745952606,0,1000,2,1,1,2,4,0,5,3,0,250.0,test,0,H+
714.292049408,5,1000,5,1,1,2,4,0,5,3,0,250.0,test,5,H+
698.386907578,1,1000,1,1,1,2,4,0,5,3,0,250.0,test,1,H+
618.309020996,0,1000,2,1,1,2,4,0,5,3,0,250.0,test,0,H+
602.412939072,1,1000,1,1,1,2,4,0,5,3,0,250.0,test,1,H+
522.136926651,0,1000,2,1,1,2,4,0,5,3,0,250.0,test,0,H+
603.014945984,5,1000,5,1,1,2,4,0,5,3,0,250.0,test,5,H+
618.307113647,3,1000,4,1,1,2,4,0,5,3,0,250.0,test,3,H+
602.367162704,4,1000,3,1,1,2,4,0,5,3,0,250.0,test,4,H+
618.237018585,5,1000,5,1,1,2,4,0,5,3,0,250.0,test,5,H+
683.704853058,2,1000,0,1,1,2,4,0,5,3,0,250.0,test,2,H+
891.801118851,5,1000,5,1,1,2,4,0,5,3,0,250.0,test,5,H+
586.275100708,3,1000,4,1,1,2,4,0,5,3,0,250.0,test,3,H+
1131.89291954,4,1000,3,1,1,2,4,0,5,3,0,250.0,test,4,H+
635.827064514,2,1000,0,1,1,2,4,0,5,3,0,250.0,test,2,H+
571.608066559,3,1000,4,1,1,2,4,0,5,3,0,250.0,test,3,H+
395.666122437,3,1000,4,1,1,2,4,0,5,3,0,250.0,test,3,H+
538.285017014,0,1000,2,1,1,2,4,0,5,3,0,250.0,test,0,H+
747.606992722,3,1000,4,1,1,2,4,0,5,3,0,250.0,test,3,H+
474.328994751,3,1000,4,1,1,2,4,0,5,3,0,250.0,test,3,H+
618.300914764,1,1000,1,0,1,2,4,0,5,3,0,250.0,test,0,H+
523.756980896,1,1000,1,1,1,2,4,0,5,3,0,250.0,test,1,H+
585.995912552,5,1000,5,1,1,2,4,0,5,3,0,250.0,test,5,H+
747.126817703,2,1000,0,1,1,2,4,0,5,3,0,250.0,test,2,H+
618.376970291,2,1000,0,1,1,2,4,0,5,3,0,250.0,test,2,H+
570.336103439,0,1000,2,1,1,2,4,0,5,3,0,250.0,test,0,H+
571.789979935,0,1000,2,1,1,2,4,0,5,3,0,250.0,test,0,H+
1034.33394432,4,1000,3,1,1,2,4,0,5,3,0,250.0,test,4,H+
986.366987228,5,1000,5,1,1,2,4,0,5,3,0,250.0,test,5,H+
555.76300621,0,1000,2,1,1,2,4,0,5,3,0,250.0,test,0,H+
586.390972137,3,1000,4,1,1,2,4,0,5,3,0,250.0,test,3,H+
554.374933243,4,1000,3,1,1,2,4,0,5,3,0,250.0,test,4,H+
634.35292244,1,1000,1,1,1,2,4,0,5,3,0,250.0,test,1,H+
506.285905838,1,1000,1,1,1,2,4,0,5,3,0,250.0,test,1,H+
586.308956146,0,1000,2,1,1,2,4,0,5,3,0,250.0,test,0,H+
618.380069733,4,1000,3,1,1,2,4,0,5,3,0,250.0,test,4,H+
746.333837509,1,1000,1,1,1,2,4,0,5,3,0,250.0,test,1,H+
602.370023727,2,1000,0,1,1,2,4,0,5,3,0,250.0,test,2,H+
635.776996613,4,1000,3,1,1,2,4,0,5,3,0,250.0,test,4,H+
539.761066437,0,1000,2,1,1,2,4,0,5,3,0,250.0,test,0,H+
634.364843369,3,1000,4,1,1,2,4,0,5,3,0,250.0,test,3,H+
586.28821373,4,1000,3,1,1,2,4,0,5,3,0,250.0,test,4,H+
507.820129395,4,1000,3,1,1,2,4,0,5,3,0,250.0,test,4,H+
858.960866928,5,1000,5,1,1,2,4,0,5,3,0,250.0,test,5,H+
650.34198761,3,1000,4,1,1,2,4,0,5,3,0,250.0,test,3,H+
618.124008179,0,1000,2,1,1,2,4,0,5,3,0,250.0,test,0,H+
891.813993454,5,1000,5,1,1,2,4,0,5,3,0,250.0,test,5,H+
635.103940964,4,1000,3,1,1,2,4,0,5,3,0,250.0,test,4,H+
570.289850235,0,1000,2,1,1,2,4,0,5,3,0,250.0,test,0,H+
555.123090744,4,1000,3,1,1,2,4,0,5,3,0,250.0,test,4,H+
619.696140289,2,1000,0,1,1,2,4,0,5,3,0,250.0,test,2,H+
586.3468647,4,1000,3,1,1,2,4,0,5,3,0,250.0,test,4,H+
745.018005371,1,1000,1,1,1,2,4,0,5,3,0,250.0,test,1,H+
602.319955826,3,1000,4,1,1,2,4,0,5,3,0,250.0,test,3,H+
827.811002731,5,1000,5,1,1,2,4,0,5,3,0,250.0,test,5,H+
603.781938553,0,1000,2,1,1,2,4,0,5,3,0,250.0,test,0,H+
523.70595932,5,1000,5,1,1,2,4,0,5,3,0,250.0,test,5,H+
507.753133774,4,1000,3,1,1,2,4,0,5,3,0,250.0,test,4,H+
683.119058609,3,1000,4,1,1,2,4,0,5,3,0,250.0,test,3,H+
555.751085281,4,1000,3,1,1,2,4,0,5,3,0,250.0,test,4,H+
602.354049683,1,1000,1,1,1,2,4,0,5,3,0,250.0,test,1,H+
554.4090271,1,1000,1,1,1,2,4,0,5,3,0,250.0,test,1,H+
586.363077164,5,1000,5,1,1,2,4,0,5,3,0,250.0,test,5,H+
618.352174759,1,1000,1,1,1,2,4,0,5,3,0,250.0,test,1,H+
