RT,correct_response,ms-prestimblank,curstim,correct,SRmap_1,SRmap_0,SRmap_3,SRmap_2,SRmap_5,SRmap_4,ms-precue,ntrials,type,response,condition
7614.38512802,4,600,2,0,2,1,3,4,0,5,400,250.0,train,0,E-
4046.93889618,2,600,1,1,2,1,3,4,0,5,400,250.0,train,2,E-
1470.92103958,1,600,0,1,2,1,3,4,0,5,400,250.0,train,1,E-
943.032026291,2,600,1,1,2,1,3,4,0,5,400,250.0,train,2,E-
719.059944153,2,600,1,1,2,1,3,4,0,5,400,250.0,train,2,E-
637.524843216,0,600,5,1,2,1,3,4,0,5,400,250.0,train,0,E-
783.097982407,3,600,3,1,2,1,3,4,0,5,400,250.0,train,3,E-
863.682031631,4,600,2,0,2,1,3,4,0,5,400,250.0,train,3,E-
559.684991837,0,600,5,1,2,1,3,4,0,5,400,250.0,train,0,E-
303.627967834,0,600,5,1,2,1,3,4,0,5,400,250.0,train,0,E-
142.574071884,4,600,2,0,2,1,3,4,0,5,400,250.0,train,2,E-
238.279104233,4,600,2,1,2,1,3,4,0,5,400,250.0,train,4,E-
94.2051410675,5,600,4,1,2,1,3,4,0,5,400,250.0,train,5,E-
174.062013626,3,600,3,1,2,1,3,4,0,5,400,250.0,train,3,E-
79.5760154724,3,600,3,1,2,1,3,4,0,5,400,250.0,train,3,E-
45.951128006,3,600,3,1,2,1,3,4,0,5,400,250.0,train,3,E-
110.997915268,2,600,1,1,2,1,3,4,0,5,400,250.0,train,2,E-
174.373149872,5,600,4,1,2,1,3,4,0,5,400,250.0,train,5,E-
111.830234528,1,600,0,1,2,1,3,4,0,5,400,250.0,train,1,E-
31.172990799,1,600,0,1,2,1,3,4,0,5,400,250.0,train,1,E-
159.102916718,5,600,4,1,2,1,3,4,0,5,400,250.0,train,5,E-
111.461162567,4,600,2,1,2,1,3,4,0,5,400,250.0,train,4,E-
47.3198890686,4,600,2,1,2,1,3,4,0,5,400,250.0,train,4,E-
111.653089523,5,600,4,1,2,1,3,4,0,5,400,250.0,train,5,E-
0.0569820404053,5,600,4,1,2,1,3,4,0,5,400,250.0,train,5,E-
79.7281265259,5,600,4,1,2,1,3,4,0,5,400,250.0,train,5,E-
0.0529289245605,5,600,4,1,2,1,3,4,0,5,400,250.0,train,5,E-
255.673885345,1,600,0,1,2,1,3,4,0,5,400,250.0,train,1,E-
799.59487915,1,600,0,1,2,1,3,4,0,5,400,250.0,train,1,E-
222.461938858,5,600,4,1,2,1,3,4,0,5,400,250.0,train,5,E-
46.374797821,2,600,1,0,2,1,3,4,0,5,400,250.0,train,1,E-
191.035032272,4,600,2,1,2,1,3,4,0,5,400,250.0,train,4,E-
95.6270694733,1,600,0,1,2,1,3,4,0,5,400,250.0,train,1,E-
0.053882598877,1,600,0,1,2,1,3,4,0,5,400,250.0,train,1,E-
415.769100189,3,600,3,1,2,1,3,4,0,5,400,250.0,train,3,E-
31.7249298096,5,600,4,1,2,1,3,4,0,5,400,250.0,train,5,E-
78.9902210236,0,600,5,1,2,1,3,4,0,5,400,250.0,train,0,E-
158.478021622,2,600,1,1,2,1,3,4,0,5,400,250.0,train,2,E-
142.285108566,4,600,2,0,2,1,3,4,0,5,400,250.0,train,3,E-
223.070859909,2,600,1,1,2,1,3,4,0,5,400,250.0,train,2,E-
222.581863403,4,600,2,1,2,1,3,4,0,5,400,250.0,train,4,E-
62.9060268402,4,600,2,1,2,1,3,4,0,5,400,250.0,train,4,E-
158.591985703,0,600,5,1,2,1,3,4,0,5,400,250.0,train,0,E-
158.431053162,4,600,2,1,2,1,3,4,0,5,400,250.0,train,4,E-
111.785888672,1,600,0,1,2,1,3,4,0,5,400,250.0,train,1,E-
141.920089722,4,600,2,1,2,1,3,4,0,5,400,250.0,train,4,E-
95.8390235901,1,600,0,1,2,1,3,4,0,5,400,250.0,train,1,E-
79.7920227051,4,600,2,1,2,1,3,4,0,5,400,250.0,train,4,E-
142.331123352,3,600,3,0,2,1,3,4,0,5,400,250.0,train,2,E-
109.867095947,2,600,1,1,2,1,3,4,0,5,400,250.0,train,2,E-
94.6109294891,0,600,5,1,2,1,3,4,0,5,400,250.0,train,0,E-
589.999198914,3,600,3,1,2,1,3,4,0,5,400,250.0,train,3,E-
126.430988312,1,600,0,1,2,1,3,4,0,5,400,250.0,train,1,E-
175.086021423,4,600,2,1,2,1,3,4,0,5,400,250.0,train,4,E-
110.489845276,0,600,5,1,2,1,3,4,0,5,400,250.0,train,0,E-
46.5888977051,1,600,0,1,2,1,3,4,0,5,400,250.0,train,1,E-
31.6820144653,5,600,4,1,2,1,3,4,0,5,400,250.0,train,5,E-
13.8261318207,5,600,4,1,2,1,3,4,0,5,400,250.0,train,5,E-
382.323026657,3,600,3,1,2,1,3,4,0,5,400,250.0,train,3,E-
206.586122513,1,600,0,1,2,1,3,4,0,5,400,250.0,train,1,E-
79.8089504242,2,600,1,1,2,1,3,4,0,5,400,250.0,train,2,E-
0.0572204589844,2,600,1,1,2,1,3,4,0,5,400,250.0,train,2,E-
31.8040847778,5,600,4,1,2,1,3,4,0,5,400,250.0,train,5,E-
63.8070106506,1,600,0,1,2,1,3,4,0,5,400,250.0,train,1,E-
15.7909393311,1,600,0,1,2,1,3,4,0,5,400,250.0,train,1,E-
63.0090236664,0,600,5,1,2,1,3,4,0,5,400,250.0,train,0,E-
15.6941413879,0,600,5,1,2,1,3,4,0,5,400,250.0,train,0,E-
63.777923584,1,600,0,1,2,1,3,4,0,5,400,250.0,train,1,E-
0.0510215759277,2,600,1,1,2,1,3,4,0,5,400,250.0,train,2,E-
47.8031635284,0,600,5,1,2,1,3,4,0,5,400,250.0,train,0,E-
383.599996567,1,600,0,1,2,1,3,4,0,5,400,250.0,train,1,E-
63.8110637665,2,600,1,1,2,1,3,4,0,5,400,250.0,train,2,E-
14.8110389709,2,600,1,1,2,1,3,4,0,5,400,250.0,train,2,E-
14.7368907928,0,600,5,1,2,1,3,4,0,5,400,250.0,train,0,E-
383.577108383,0,600,5,1,2,1,3,4,0,5,400,250.0,train,0,E-
207.681894302,3,600,3,1,2,1,3,4,0,5,400,250.0,train,3,E-
319.666862488,2,600,1,1,2,1,3,4,0,5,400,250.0,train,2,E-
79.7669887543,1,600,0,1,2,1,3,4,0,5,400,250.0,train,1,E-
239.61019516,4,600,2,1,2,1,3,4,0,5,400,250.0,train,4,E-
222.367048264,3,600,3,0,2,1,3,4,0,5,400,250.0,train,2,E-
63.1411075592,3,600,3,1,2,1,3,4,0,5,400,250.0,train,3,E-
95.773935318,4,600,2,1,2,1,3,4,0,5,400,250.0,train,4,E-
159.633159637,1,600,0,1,2,1,3,4,0,5,400,250.0,train,1,E-
63.7748241425,1,600,0,1,2,1,3,4,0,5,400,250.0,train,1,E-
191.689014435,3,600,3,1,2,1,3,4,0,5,400,250.0,train,3,E-
95.8359241486,5,600,4,1,2,1,3,4,0,5,400,250.0,train,5,E-
111.686944962,4,600,2,1,2,1,3,4,0,5,400,250.0,train,4,E-
95.7419872284,1,600,0,1,2,1,3,4,0,5,400,250.0,train,1,E-
94.8128700256,5,600,4,1,2,1,3,4,0,5,400,250.0,train,5,E-
78.3779621124,1,600,0,1,2,1,3,4,0,5,400,250.0,train,1,E-
95.6931114197,2,600,1,1,2,1,3,4,0,5,400,250.0,train,2,E-
15.743970871,1,600,0,1,2,1,3,4,0,5,400,250.0,train,1,E-
111.654043198,4,600,2,0,2,1,3,4,0,5,400,250.0,train,3,E-
95.6439971924,1,600,0,1,2,1,3,4,0,5,400,250.0,train,1,E-
94.2261219025,3,600,3,1,2,1,3,4,0,5,400,250.0,train,3,E-
63.8241767883,1,600,0,1,2,1,3,4,0,5,400,250.0,train,1,E-
143.696069717,5,600,4,1,2,1,3,4,0,5,400,250.0,train,5,E-
63.7309551239,4,600,2,1,2,1,3,4,0,5,400,250.0,train,4,E-
79.8110961914,0,600,5,1,2,1,3,4,0,5,400,250.0,train,0,E-
159.721136093,1,600,0,1,2,1,3,4,0,5,400,250.0,train,1,E-
79.8389911652,4,600,2,1,2,1,3,4,0,5,400,250.0,train,4,E-
62.9379749298,1,600,0,1,2,1,3,4,0,5,400,250.0,train,1,E-
47.847032547,1,600,0,1,2,1,3,4,0,5,400,250.0,train,1,E-
47.8320121765,3,600,3,0,2,1,3,4,0,5,400,250.0,train,4,E-
31.8019390106,4,600,2,1,2,1,3,4,0,5,400,250.0,train,4,E-
47.7449893951,2,600,1,0,2,1,3,4,0,5,400,250.0,train,1,E-
79.8330307007,0,600,5,1,2,1,3,4,0,5,400,250.0,train,0,E-
31.8510532379,0,600,5,1,2,1,3,4,0,5,400,250.0,train,0,E-
143.801927567,3,600,3,1,2,1,3,4,0,5,400,250.0,train,3,E-
95.2458381653,5,600,4,1,2,1,3,4,0,5,400,250.0,train,5,E-
142.351150513,1,600,0,1,2,1,3,4,0,5,400,250.0,train,1,E-
0.0541210174561,1,600,0,1,2,1,3,4,0,5,400,250.0,train,1,E-
191.789150238,3,600,3,1,2,1,3,4,0,5,400,250.0,train,3,E-
62.3779296875,2,600,1,1,2,1,3,4,0,5,400,250.0,train,2,E-
47.8458404541,1,600,0,1,2,1,3,4,0,5,400,250.0,train,1,E-
63.7400150299,4,600,2,1,2,1,3,4,0,5,400,250.0,train,4,E-
143.687009811,2,600,1,0,2,1,3,4,0,5,400,250.0,train,3,E-
47.0190048218,3,600,3,0,2,1,3,4,0,5,400,250.0,train,4,E-
31.6522121429,3,600,3,1,2,1,3,4,0,5,400,250.0,train,3,E-
95.0050354004,4,600,2,1,2,1,3,4,0,5,400,250.0,train,4,E-
77.9302120209,0,600,5,1,2,1,3,4,0,5,400,250.0,train,0,E-
78.6011219025,5,600,4,1,2,1,3,4,0,5,400,250.0,train,5,E-
0.0560283660889,4,600,2,1,2,1,3,4,0,5,400,250.0,train,4,E-
78.3100128174,5,600,4,1,2,1,3,4,0,5,400,250.0,train,5,E-
79.4410705566,0,600,5,1,2,1,3,4,0,5,400,250.0,train,0,E-
63.7969970703,1,600,0,1,2,1,3,4,0,5,400,250.0,train,1,E-
159.713983536,5,600,4,1,2,1,3,4,0,5,400,250.0,train,5,E-
239.06493187,2,600,1,1,2,1,3,4,0,5,400,250.0,train,2,E-
15.9039497375,2,600,1,1,2,1,3,4,0,5,400,250.0,train,2,E-
0.0550746917725,1,600,0,1,2,1,3,4,0,5,400,250.0,train,1,E-
175.687074661,4,600,2,1,2,1,3,4,0,5,400,250.0,train,4,E-
63.7619495392,5,600,4,1,2,1,3,4,0,5,400,250.0,train,5,E-
15.6271457672,4,600,2,0,2,1,3,4,0,5,400,250.0,train,3,E-
143.258094788,2,600,1,1,2,1,3,4,0,5,400,250.0,train,2,E-
63.1010532379,5,600,4,1,2,1,3,4,0,5,400,250.0,train,5,E-
159.74187851,3,600,3,1,2,1,3,4,0,5,400,250.0,train,3,E-
63.7950897217,5,600,4,1,2,1,3,4,0,5,400,250.0,train,5,E-
287.662982941,1,600,0,1,2,1,3,4,0,5,400,250.0,train,1,E-
15.7821178436,5,600,4,1,2,1,3,4,0,5,400,250.0,train,5,E-
303.615093231,4,600,2,1,2,1,3,4,0,5,400,250.0,train,4,E-
63.03191185,5,600,4,1,2,1,3,4,0,5,400,250.0,train,5,E-
207.645177841,3,600,3,1,2,1,3,4,0,5,400,250.0,train,3,E-
63.7538433075,1,600,0,1,2,1,3,4,0,5,400,250.0,train,1,E-
15.8460140228,5,600,4,1,2,1,3,4,0,5,400,250.0,train,5,E-
143.900871277,3,600,3,1,2,1,3,4,0,5,400,250.0,train,3,E-
47.6150512695,1,600,0,1,2,1,3,4,0,5,400,250.0,train,1,E-
47.7819442749,3,600,3,0,2,1,3,4,0,5,400,250.0,train,2,E-
30.2810668945,4,600,2,1,2,1,3,4,0,5,400,250.0,train,4,E-
95.822095871,5,600,4,1,2,1,3,4,0,5,400,250.0,train,5,E-
174.950838089,2,600,1,1,2,1,3,4,0,5,400,250.0,train,2,E-
14.986038208,0,600,5,1,2,1,3,4,0,5,400,250.0,train,0,E-
30.4348468781,1,600,0,1,2,1,3,4,0,5,400,250.0,train,1,E-
366.486787796,1,600,0,1,2,1,3,4,0,5,400,250.0,train,1,E-
79.3008804321,5,600,4,1,2,1,3,4,0,5,400,250.0,train,5,E-
62.6208782196,0,600,5,1,2,1,3,4,0,5,400,250.0,train,0,E-
175.617933273,5,600,4,1,2,1,3,4,0,5,400,250.0,train,5,E-
111.639022827,2,600,1,1,2,1,3,4,0,5,400,250.0,train,2,E-
47.5709438324,2,600,1,1,2,1,3,4,0,5,400,250.0,train,2,E-
0.0529289245605,4,600,2,1,2,1,3,4,0,5,400,250.0,train,4,E-
0.0500679016113,0,600,5,1,2,1,3,4,0,5,400,250.0,train,0,E-
303.699016571,3,600,3,1,2,1,3,4,0,5,400,250.0,train,3,E-
31.8357944489,0,600,5,1,2,1,3,4,0,5,400,250.0,train,0,E-
47.7731227875,0,600,5,1,2,1,3,4,0,5,400,250.0,train,0,E-
158.601045609,5,600,4,1,2,1,3,4,0,5,400,250.0,train,5,E-
62.5350475311,1,600,0,1,2,1,3,4,0,5,400,250.0,train,1,E-
15.8259868622,0,600,5,1,2,1,3,4,0,5,400,250.0,train,0,E-
207.737922668,4,600,2,1,2,1,3,4,0,5,400,250.0,train,4,E-
63.8089179993,1,600,0,1,2,1,3,4,0,5,400,250.0,train,1,E-
63.0111694336,5,600,4,1,2,1,3,4,0,5,400,250.0,train,5,E-
47.8038787842,2,600,1,0,2,1,3,4,0,5,400,250.0,train,1,E-
494.465112686,4,600,2,1,2,1,3,4,0,5,400,250.0,train,4,E-
79.8029899597,5,600,4,1,2,1,3,4,0,5,400,250.0,train,5,E-
207.102060318,3,600,3,1,2,1,3,4,0,5,400,250.0,train,3,E-
30.6370258331,3,600,3,1,2,1,3,4,0,5,400,250.0,train,3,E-
111.764907837,1,600,0,1,2,1,3,4,0,5,400,250.0,train,1,E-
94.9370861053,0,600,5,1,2,1,3,4,0,5,400,250.0,train,0,E-
31.779050827,0,600,5,1,2,1,3,4,0,5,400,250.0,train,0,E-
95.3810214996,2,600,1,1,2,1,3,4,0,5,400,250.0,train,2,E-
79.7672271729,1,600,0,1,2,1,3,4,0,5,400,250.0,train,1,E-
79.3559551239,1,600,0,1,2,1,3,4,0,5,400,250.0,train,1,E-
335.693836212,4,600,2,1,2,1,3,4,0,5,400,250.0,train,4,E-
79.9040794373,5,600,4,1,2,1,3,4,0,5,400,250.0,train,5,E-
79.7870159149,4,600,2,1,2,1,3,4,0,5,400,250.0,train,4,E-
142.081975937,2,600,1,1,2,1,3,4,0,5,400,250.0,train,2,E-
15.734910965,0,600,5,1,2,1,3,4,0,5,400,250.0,train,0,E-
190.802097321,2,600,1,1,2,1,3,4,0,5,400,250.0,train,2,E-
159.574985504,4,600,2,1,2,1,3,4,0,5,400,250.0,train,4,E-
15.8319473267,0,600,5,1,2,1,3,4,0,5,400,250.0,train,0,E-
79.7829627991,5,600,4,1,2,1,3,4,0,5,400,250.0,train,5,E-
78.9120197296,1,600,0,1,2,1,3,4,0,5,400,250.0,train,1,E-
30.571937561,2,600,1,1,2,1,3,4,0,5,400,250.0,train,2,E-
78.5579681396,2,600,1,1,2,1,3,4,0,5,400,250.0,train,2,E-
47.7969646454,0,600,5,1,2,1,3,4,0,5,400,250.0,train,0,E-
0.053882598877,1,600,0,1,2,1,3,4,0,5,400,250.0,train,1,E-
31.0568809509,0,600,5,1,2,1,3,4,0,5,400,250.0,train,0,E-
63.7989044189,2,600,1,1,2,1,3,4,0,5,400,250.0,train,2,E-
79.7908306122,1,600,0,1,2,1,3,4,0,5,400,250.0,train,1,E-
159.651994705,5,600,4,1,2,1,3,4,0,5,400,250.0,train,5,E-
95.8359241486,1,600,0,1,2,1,3,4,0,5,400,250.0,train,1,E-
127.669095993,2,600,1,1,2,1,3,4,0,5,400,250.0,train,2,E-
15.6710147858,0,600,5,1,2,1,3,4,0,5,400,250.0,train,0,E-
31.8298339844,2,600,1,1,2,1,3,4,0,5,400,250.0,train,2,E-
143.649816513,5,600,4,1,2,1,3,4,0,5,400,250.0,train,5,E-
207.633018494,3,600,3,1,2,1,3,4,0,5,400,250.0,train,3,E-
14.5120620728,4,600,2,1,2,1,3,4,0,5,400,250.0,train,4,E-
46.3960170746,0,600,5,1,2,1,3,4,0,5,400,250.0,train,0,E-
110.908031464,2,600,1,1,2,1,3,4,0,5,400,250.0,train,2,E-
205.892801285,3,600,3,1,2,1,3,4,0,5,400,250.0,train,3,E-
78.4230232239,1,600,0,1,2,1,3,4,0,5,400,250.0,train,1,E-
15.1839256287,0,600,5,1,2,1,3,4,0,5,400,250.0,train,0,E-
14.8210525513,0,600,5,1,2,1,3,4,0,5,400,250.0,train,0,E-
46.5388298035,5,600,4,1,2,1,3,4,0,5,400,250.0,train,5,E-
31.8288803101,0,600,5,1,2,1,3,4,0,5,400,250.0,train,0,E-
335.62707901,0,600,5,1,2,1,3,4,0,5,400,250.0,train,0,E-
159.785985947,3,600,3,1,2,1,3,4,0,5,400,250.0,train,3,E-
207.647800446,2,600,1,1,2,1,3,4,0,5,400,250.0,train,2,E-
142.977952957,5,600,4,1,2,1,3,4,0,5,400,250.0,train,5,E-
127.702951431,3,600,3,0,2,1,3,4,0,5,400,250.0,train,2,E-
95.7889556885,2,600,1,1,2,1,3,4,0,5,400,250.0,train,2,E-
95.8151817322,1,600,0,1,2,1,3,4,0,5,400,250.0,train,1,E-
255.001068115,4,600,2,1,2,1,3,4,0,5,400,250.0,train,4,E-
63.127040863,5,600,4,1,2,1,3,4,0,5,400,250.0,train,5,E-
29.9270153046,5,600,4,1,2,1,3,4,0,5,400,250.0,train,5,E-
1.61409378052,5,600,4,1,2,1,3,4,0,5,400,250.0,train,5,E-
78.5720348358,4,600,2,1,2,1,3,4,0,5,400,250.0,train,4,E-
94.419002533,3,600,3,1,2,1,3,4,0,5,400,250.0,train,3,E-
271.091938019,4,600,2,1,2,1,3,4,0,5,400,250.0,train,4,E-
175.618886948,2,600,1,1,2,1,3,4,0,5,400,250.0,train,2,E-
110.337972641,4,600,2,1,2,1,3,4,0,5,400,250.0,train,4,E-
175.755977631,1,600,0,1,2,1,3,4,0,5,400,250.0,train,1,E-
110.672950745,5,600,4,1,2,1,3,4,0,5,400,250.0,train,5,E-
46.5970039368,4,600,2,1,2,1,3,4,0,5,400,250.0,train,4,E-
0.0569820404053,3,600,3,1,2,1,3,4,0,5,400,250.0,train,3,E-
47.7480888367,1,600,0,1,2,1,3,4,0,5,400,250.0,train,1,E-
63.7578964233,5,600,4,1,2,1,3,4,0,5,400,250.0,train,5,E-
31.7189693451,0,600,5,1,2,1,3,4,0,5,400,250.0,train,0,E-
191.601037979,4,600,2,1,2,1,3,4,0,5,400,250.0,train,4,E-
15.753030777,4,600,2,1,2,1,3,4,0,5,400,250.0,train,4,E-
111.802101135,0,600,5,1,2,1,3,4,0,5,400,250.0,train,0,E-
95.7980155945,2,600,1,0,2,1,3,4,0,5,400,250.0,train,1,E-
111.609220505,3,600,3,1,2,1,3,4,0,5,400,250.0,train,3,E-
47.0640659332,2,600,1,0,2,1,3,4,0,5,400,250.0,train,3,E-
63.8217926025,0,600,5,1,2,1,3,4,0,5,400,250.0,train,0,E-
127.098083496,3,600,3,1,2,1,3,4,0,5,400,250.0,train,3,E-
142.49587059,4,600,2,1,2,1,3,4,0,5,400,250.0,train,4,E-
95.7040786743,1,600,0,1,2,1,3,4,0,5,400,250.0,train,1,E-
142.6820755,3,600,3,1,2,1,3,4,0,5,400,250.0,train,3,E-
46.43201828,5,600,4,1,2,1,3,4,0,5,400,250.0,train,5,E-
63.7738704681,5,600,4,1,2,1,3,4,0,5,400,250.0,train,5,E-
191.605806351,1,600,0,1,2,1,3,4,0,5,400,250.0,train,1,E-
2414.509058,4,1000,3,1,2,5,4,1,0,3,0,250.0,test,4,E-
542.968034744,1,1000,2,1,2,5,4,1,0,3,0,250.0,test,1,E-
477.922916412,0,1000,5,1,2,5,4,1,0,3,0,250.0,test,0,E-
413.081169128,1,1000,2,1,2,5,4,1,0,3,0,250.0,test,1,E-
525.974035263,4,1000,3,1,2,5,4,1,0,3,0,250.0,test,4,E-
447.168111801,1,1000,2,1,2,5,4,1,0,3,0,250.0,test,1,E-
430.114984512,0,1000,5,1,2,5,4,1,0,3,0,250.0,test,0,E-
431.118965149,2,1000,1,0,2,5,4,1,0,3,0,250.0,test,1,E-
526.059150696,1,1000,2,1,2,5,4,1,0,3,0,250.0,test,1,E-
559.688806534,3,1000,4,1,2,5,4,1,0,3,0,250.0,test,3,E-
541.818141937,2,1000,1,1,2,5,4,1,0,3,0,250.0,test,2,E-
415.047883987,0,1000,5,1,2,5,4,1,0,3,0,250.0,test,0,E-
446.789979935,2,1000,1,1,2,5,4,1,0,3,0,250.0,test,2,E-
431.06007576,2,1000,1,1,2,5,4,1,0,3,0,250.0,test,2,E-
367.073059082,1,1000,2,1,2,5,4,1,0,3,0,250.0,test,1,E-
351.704835892,1,1000,2,1,2,5,4,1,0,3,0,250.0,test,1,E-
367.033958435,2,1000,1,0,2,5,4,1,0,3,0,250.0,test,1,E-
687.689065933,4,1000,3,1,2,5,4,1,0,3,0,250.0,test,4,E-
383.699893951,4,1000,3,1,2,5,4,1,0,3,0,250.0,test,4,E-
558.729887009,3,1000,4,0,2,5,4,1,0,3,0,250.0,test,2,E-
447.021961212,4,1000,3,1,2,5,4,1,0,3,0,250.0,test,4,E-
574.900150299,2,1000,1,1,2,5,4,1,0,3,0,250.0,test,2,E-
430.742025375,0,1000,5,1,2,5,4,1,0,3,0,250.0,test,0,E-
607.730865479,3,1000,4,1,2,5,4,1,0,3,0,250.0,test,3,E-
430.370092392,5,1000,0,1,2,5,4,1,0,3,0,250.0,test,5,E-
542.870998383,2,1000,1,1,2,5,4,1,0,3,0,250.0,test,2,E-
399.125099182,3,1000,4,0,2,5,4,1,0,3,0,250.0,test,4,E-
479.603052139,5,1000,0,1,2,5,4,1,0,3,0,250.0,test,5,E-
431.241035461,3,1000,4,1,2,5,4,1,0,3,0,250.0,test,3,E-
478.645086288,0,1000,5,1,2,5,4,1,0,3,0,250.0,test,0,E-
463.161945343,4,1000,3,1,2,5,4,1,0,3,0,250.0,test,4,E-
463.604927063,0,1000,5,1,2,5,4,1,0,3,0,250.0,test,0,E-
508.66818428,3,1000,4,1,2,5,4,1,0,3,0,250.0,test,3,E-
415.699005127,3,1000,4,1,2,5,4,1,0,3,0,250.0,test,3,E-
414.039134979,3,1000,4,1,2,5,4,1,0,3,0,250.0,test,3,E-
463.682889938,0,1000,5,1,2,5,4,1,0,3,0,250.0,test,0,E-
494.045972824,1,1000,2,1,2,5,4,1,0,3,0,250.0,test,1,E-
479.631900787,3,1000,4,1,2,5,4,1,0,3,0,250.0,test,3,E-
526.375055313,1,1000,2,1,2,5,4,1,0,3,0,250.0,test,1,E-
671.654224396,4,1000,3,1,2,5,4,1,0,3,0,250.0,test,4,E-
511.109113693,3,1000,4,1,2,5,4,1,0,3,0,250.0,test,3,E-
479.662179947,3,1000,4,1,2,5,4,1,0,3,0,250.0,test,3,E-
462.066173553,4,1000,3,1,2,5,4,1,0,3,0,250.0,test,4,E-
478.722810745,0,1000,5,1,2,5,4,1,0,3,0,250.0,test,0,E-
446.297168732,0,1000,5,1,2,5,4,1,0,3,0,250.0,test,0,E-
398.619890213,0,1000,5,1,2,5,4,1,0,3,0,250.0,test,0,E-
478.281974792,5,1000,0,1,2,5,4,1,0,3,0,250.0,test,5,E-
639.66012001,3,1000,4,1,2,5,4,1,0,3,0,250.0,test,3,E-
557.723045349,1,1000,2,1,2,5,4,1,0,3,0,250.0,test,1,E-
478.693008423,5,1000,0,1,2,5,4,1,0,3,0,250.0,test,5,E-
463.680028915,1,1000,2,1,2,5,4,1,0,3,0,250.0,test,1,E-
687.186002731,2,1000,1,1,2,5,4,1,0,3,0,250.0,test,2,E-
799.75104332,3,1000,4,1,2,5,4,1,0,3,0,250.0,test,3,E-
430.868148804,3,1000,4,1,2,5,4,1,0,3,0,250.0,test,3,E-
494.519948959,4,1000,3,1,2,5,4,1,0,3,0,250.0,test,4,E-
415.075778961,4,1000,3,1,2,5,4,1,0,3,0,250.0,test,4,E-
510.608911514,4,1000,3,1,2,5,4,1,0,3,0,250.0,test,4,E-
509.422063828,0,1000,5,1,2,5,4,1,0,3,0,250.0,test,0,E-
543.611049652,2,1000,1,1,2,5,4,1,0,3,0,250.0,test,2,E-
415.239810944,4,1000,3,1,2,5,4,1,0,3,0,250.0,test,4,E-
495.711803436,5,1000,0,1,2,5,4,1,0,3,0,250.0,test,5,E-
431.203126907,4,1000,3,1,2,5,4,1,0,3,0,250.0,test,4,E-
430.727958679,4,1000,3,1,2,5,4,1,0,3,0,250.0,test,4,E-
367.081165314,4,1000,3,1,2,5,4,1,0,3,0,250.0,test,4,E-
719.661951065,1,1000,2,1,2,5,4,1,0,3,0,250.0,test,1,E-
432.502031326,0,1000,5,1,2,5,4,1,0,3,0,250.0,test,0,E-
559.355020523,5,1000,0,0,2,5,4,1,0,3,0,250.0,test,4,E-
751.02186203,2,1000,1,1,2,5,4,1,0,3,0,250.0,test,2,E-
623.128890991,4,1000,3,1,2,5,4,1,0,3,0,250.0,test,4,E-
494.765043259,5,1000,0,1,2,5,4,1,0,3,0,250.0,test,5,E-
431.72287941,4,1000,3,1,2,5,4,1,0,3,0,250.0,test,4,E-
447.194814682,4,1000,3,1,2,5,4,1,0,3,0,250.0,test,4,E-
447.684049606,3,1000,4,1,2,5,4,1,0,3,0,250.0,test,3,E-
735.700845718,2,1000,1,1,2,5,4,1,0,3,0,250.0,test,2,E-
527.006149292,3,1000,4,1,2,5,4,1,0,3,0,250.0,test,3,E-
447.715997696,3,1000,4,1,2,5,4,1,0,3,0,250.0,test,3,E-
559.703111649,4,1000,3,1,2,5,4,1,0,3,0,250.0,test,4,E-
430.526018143,4,1000,3,1,2,5,4,1,0,3,0,250.0,test,4,E-
574.886083603,2,1000,1,1,2,5,4,1,0,3,0,250.0,test,2,E-
479.022026062,2,1000,1,1,2,5,4,1,0,3,0,250.0,test,2,E-
527.720928192,5,1000,0,1,2,5,4,1,0,3,0,250.0,test,5,E-
462.368965149,4,1000,3,1,2,5,4,1,0,3,0,250.0,test,4,E-
479.739904404,5,1000,0,1,2,5,4,1,0,3,0,250.0,test,5,E-
558.563947678,2,1000,1,1,2,5,4,1,0,3,0,250.0,test,2,E-
527.71115303,1,1000,2,1,2,5,4,1,0,3,0,250.0,test,1,E-
511.681079865,2,1000,1,1,2,5,4,1,0,3,0,250.0,test,2,E-
463.731050491,0,1000,5,1,2,5,4,1,0,3,0,250.0,test,0,E-
477.35619545,1,1000,2,1,2,5,4,1,0,3,0,250.0,test,1,E-
495.661020279,3,1000,4,0,2,5,4,1,0,3,0,250.0,test,4,E-
398.419141769,3,1000,4,1,2,5,4,1,0,3,0,250.0,test,3,E-
494.868040085,5,1000,0,1,2,5,4,1,0,3,0,250.0,test,5,E-
559.247970581,1,1000,2,1,2,5,4,1,0,3,0,250.0,test,1,E-
447.08108902,5,1000,0,1,2,5,4,1,0,3,0,250.0,test,5,E-
463.268041611,0,1000,5,1,2,5,4,1,0,3,0,250.0,test,0,E-
479.671955109,2,1000,1,0,2,5,4,1,0,3,0,250.0,test,1,E-
543.130874634,4,1000,3,1,2,5,4,1,0,3,0,250.0,test,4,E-
463.040113449,0,1000,5,1,2,5,4,1,0,3,0,250.0,test,0,E-
511.075019836,4,1000,3,1,2,5,4,1,0,3,0,250.0,test,4,E-
463.68098259,4,1000,3,1,2,5,4,1,0,3,0,250.0,test,4,E-
638.828992844,3,1000,4,1,2,5,4,1,0,3,0,250.0,test,3,E-
479.704141617,4,1000,3,1,2,5,4,1,0,3,0,250.0,test,4,E-
526.766061783,3,1000,4,1,2,5,4,1,0,3,0,250.0,test,3,E-
510.668992996,5,1000,0,1,2,5,4,1,0,3,0,250.0,test,5,E-
461.91906929,4,1000,3,1,2,5,4,1,0,3,0,250.0,test,4,E-
479.723930359,4,1000,3,1,2,5,4,1,0,3,0,250.0,test,4,E-
926.532030106,2,1000,1,1,2,5,4,1,0,3,0,250.0,test,2,E-
511.733055115,4,1000,3,1,2,5,4,1,0,3,0,250.0,test,4,E-
478.981018066,0,1000,5,1,2,5,4,1,0,3,0,250.0,test,0,E-
495.650053024,4,1000,3,1,2,5,4,1,0,3,0,250.0,test,4,E-
494.709968567,2,1000,1,1,2,5,4,1,0,3,0,250.0,test,2,E-
479.620933533,1,1000,2,1,2,5,4,1,0,3,0,250.0,test,1,E-
478.52897644,5,1000,0,1,2,5,4,1,0,3,0,250.0,test,5,E-
750.0,4,1000,3,1,2,5,4,1,0,3,0,250.0,test,4,E-
511.02399826,3,1000,4,1,2,5,4,1,0,3,0,250.0,test,3,E-
542.448043823,1,1000,2,1,2,5,4,1,0,3,0,250.0,test,1,E-
415.712118149,0,1000,5,1,2,5,4,1,0,3,0,250.0,test,0,E-
589.250087738,2,1000,1,1,2,5,4,1,0,3,0,250.0,test,2,E-
494.868040085,3,1000,4,1,2,5,4,1,0,3,0,250.0,test,3,E-
447.22700119,0,1000,5,1,2,5,4,1,0,3,0,250.0,test,0,E-
526.595115662,3,1000,4,1,2,5,4,1,0,3,0,250.0,test,3,E-
351.679086685,4,1000,3,1,2,5,4,1,0,3,0,250.0,test,4,E-
477.918148041,1,1000,2,1,2,5,4,1,0,3,0,250.0,test,1,E-
447.036027908,1,1000,2,1,2,5,4,1,0,3,0,250.0,test,1,E-
509.819984436,2,1000,1,1,2,5,4,1,0,3,0,250.0,test,2,E-
559.663057327,5,1000,0,1,2,5,4,1,0,3,0,250.0,test,5,E-
494.301080704,4,1000,3,1,2,5,4,1,0,3,0,250.0,test,4,E-
463.681936264,1,1000,2,1,2,5,4,1,0,3,0,250.0,test,1,E-
525.856971741,4,1000,3,1,2,5,4,1,0,3,0,250.0,test,4,E-
575.404167175,2,1000,1,1,2,5,4,1,0,3,0,250.0,test,2,E-
590.023994446,4,1000,3,0,2,5,4,1,0,3,0,250.0,test,3,E-
478.343009949,0,1000,5,1,2,5,4,1,0,3,0,250.0,test,0,E-
527.710914612,3,1000,4,1,2,5,4,1,0,3,0,250.0,test,3,E-
543.123960495,2,1000,1,1,2,5,4,1,0,3,0,250.0,test,2,E-
527.055978775,4,1000,3,1,2,5,4,1,0,3,0,250.0,test,4,E-
623.071908951,2,1000,1,1,2,5,4,1,0,3,0,250.0,test,2,E-
558.918952942,4,1000,3,1,2,5,4,1,0,3,0,250.0,test,4,E-
1055.67407608,5,1000,0,1,2,5,4,1,0,3,0,250.0,test,5,E-
446.444034576,0,1000,5,1,2,5,4,1,0,3,0,250.0,test,0,E-
508.746147156,4,1000,3,1,2,5,4,1,0,3,0,250.0,test,4,E-
558.596849442,1,1000,2,1,2,5,4,1,0,3,0,250.0,test,1,E-
367.131948471,4,1000,3,1,2,5,4,1,0,3,0,250.0,test,4,E-
511.12818718,2,1000,1,1,2,5,4,1,0,3,0,250.0,test,2,E-
447.744846344,0,1000,5,1,2,5,4,1,0,3,0,250.0,test,0,E-
559.728145599,2,1000,1,1,2,5,4,1,0,3,0,250.0,test,2,E-
446.357011795,2,1000,1,1,2,5,4,1,0,3,0,250.0,test,2,E-
495.107889175,5,1000,0,1,2,5,4,1,0,3,0,250.0,test,5,E-
397.934913635,0,1000,5,1,2,5,4,1,0,3,0,250.0,test,0,E-
543.69187355,4,1000,3,1,2,5,4,1,0,3,0,250.0,test,4,E-
477.969884872,1,1000,2,1,2,5,4,1,0,3,0,250.0,test,1,E-
510.830879211,5,1000,0,1,2,5,4,1,0,3,0,250.0,test,5,E-
607.097148895,2,1000,1,1,2,5,4,1,0,3,0,250.0,test,2,E-
478.935003281,2,1000,1,1,2,5,4,1,0,3,0,250.0,test,2,E-
461.752891541,4,1000,3,1,2,5,4,1,0,3,0,250.0,test,4,E-
477.681159973,0,1000,5,1,2,5,4,1,0,3,0,250.0,test,0,E-
623.077869415,4,1000,3,1,2,5,4,1,0,3,0,250.0,test,4,E-
431.752920151,0,1000,5,1,2,5,4,1,0,3,0,250.0,test,0,E-
719.233989716,3,1000,4,1,2,5,4,1,0,3,0,250.0,test,3,E-
510.579109192,5,1000,0,1,2,5,4,1,0,3,0,250.0,test,5,E-
510.807991028,4,1000,3,1,2,5,4,1,0,3,0,250.0,test,4,E-
414.82591629,4,1000,3,1,2,5,4,1,0,3,0,250.0,test,4,E-
461.720228195,3,1000,4,1,2,5,4,1,0,3,0,250.0,test,3,E-
639.73903656,2,1000,1,1,2,5,4,1,0,3,0,250.0,test,2,E-
430.186986923,2,1000,1,1,2,5,4,1,0,3,0,250.0,test,2,E-
430.332899094,2,1000,1,1,2,5,4,1,0,3,0,250.0,test,2,E-
511.641025543,4,1000,3,1,2,5,4,1,0,3,0,250.0,test,4,E-
462.509870529,0,1000,5,1,2,5,4,1,0,3,0,250.0,test,0,E-
430.719137192,0,1000,5,1,2,5,4,1,0,3,0,250.0,test,0,E-
447.676181793,0,1000,5,1,2,5,4,1,0,3,0,250.0,test,0,E-
607.710123062,5,1000,0,1,2,5,4,1,0,3,0,250.0,test,5,E-
495.719909668,1,1000,2,1,2,5,4,1,0,3,0,250.0,test,1,E-
447.204113007,4,1000,3,1,2,5,4,1,0,3,0,250.0,test,4,E-
415.676832199,4,1000,3,1,2,5,4,1,0,3,0,250.0,test,4,E-
671.261072159,1,1000,2,1,2,5,4,1,0,3,0,250.0,test,1,E-
415.668964386,1,1000,2,1,2,5,4,1,0,3,0,250.0,test,1,E-
526.888847351,5,1000,0,1,2,5,4,1,0,3,0,250.0,test,5,E-
478.921890259,0,1000,5,1,2,5,4,1,0,3,0,250.0,test,0,E-
543.148040771,4,1000,3,1,2,5,4,1,0,3,0,250.0,test,4,E-
479.70199585,5,1000,0,1,2,5,4,1,0,3,0,250.0,test,5,E-
462.80002594,1,1000,2,1,2,5,4,1,0,3,0,250.0,test,1,E-
431.703090668,5,1000,0,1,2,5,4,1,0,3,0,250.0,test,5,E-
415.050029755,5,1000,0,1,2,5,4,1,0,3,0,250.0,test,5,E-
430.882930756,5,1000,0,1,2,5,4,1,0,3,0,250.0,test,5,E-
414.556980133,4,1000,3,1,2,5,4,1,0,3,0,250.0,test,4,E-
559.701919556,3,1000,4,1,2,5,4,1,0,3,0,250.0,test,3,E-
527.084112167,5,1000,0,1,2,5,4,1,0,3,0,250.0,test,5,E-
526.624917984,1,1000,2,1,2,5,4,1,0,3,0,250.0,test,1,E-
462.796926498,4,1000,3,1,2,5,4,1,0,3,0,250.0,test,4,E-
574.511051178,2,1000,1,1,2,5,4,1,0,3,0,250.0,test,2,E-
479.212999344,5,1000,0,1,2,5,4,1,0,3,0,250.0,test,5,E-
607.688903809,3,1000,4,1,2,5,4,1,0,3,0,250.0,test,3,E-
446.686983109,5,1000,0,1,2,5,4,1,0,3,0,250.0,test,5,E-
447.688102722,0,1000,5,1,2,5,4,1,0,3,0,250.0,test,0,E-
446.811914444,0,1000,5,1,2,5,4,1,0,3,0,250.0,test,0,E-
527.704000473,2,1000,1,1,2,5,4,1,0,3,0,250.0,test,2,E-
494.949102402,4,1000,3,1,2,5,4,1,0,3,0,250.0,test,4,E-
430.407047272,5,1000,0,1,2,5,4,1,0,3,0,250.0,test,5,E-
429.707050323,0,1000,5,1,2,5,4,1,0,3,0,250.0,test,0,E-
607.715845108,4,1000,3,1,2,5,4,1,0,3,0,250.0,test,4,E-
462.852954865,5,1000,0,1,2,5,4,1,0,3,0,250.0,test,5,E-
398.380994797,0,1000,5,1,2,5,4,1,0,3,0,250.0,test,0,E-
495.728969574,2,1000,1,1,2,5,4,1,0,3,0,250.0,test,2,E-
382.939100266,1,1000,2,1,2,5,4,1,0,3,0,250.0,test,1,E-
495.739936829,4,1000,3,1,2,5,4,1,0,3,0,250.0,test,4,E-
463.726997375,3,1000,4,1,2,5,4,1,0,3,0,250.0,test,3,E-
445.271015167,5,1000,0,1,2,5,4,1,0,3,0,250.0,test,5,E-
575.717926025,2,1000,1,1,2,5,4,1,0,3,0,250.0,test,2,E-
479.130983353,4,1000,3,1,2,5,4,1,0,3,0,250.0,test,4,E-
447.700023651,4,1000,3,1,2,5,4,1,0,3,0,250.0,test,4,E-
399.127006531,5,1000,0,1,2,5,4,1,0,3,0,250.0,test,5,E-
655.704021454,2,1000,1,1,2,5,4,1,0,3,0,250.0,test,2,E-
479.074954987,4,1000,3,1,2,5,4,1,0,3,0,250.0,test,4,E-
446.55919075,0,1000,5,1,2,5,4,1,0,3,0,250.0,test,0,E-
431.123018265,0,1000,5,1,2,5,4,1,0,3,0,250.0,test,0,E-
431.609869003,1,1000,2,1,2,5,4,1,0,3,0,250.0,test,1,E-
494.318008423,5,1000,0,1,2,5,4,1,0,3,0,250.0,test,5,E-
366.235971451,4,1000,3,1,2,5,4,1,0,3,0,250.0,test,4,E-
462.985992432,4,1000,3,1,2,5,4,1,0,3,0,250.0,test,4,E-
366.51301384,4,1000,3,1,2,5,4,1,0,3,0,250.0,test,4,E-
399.691104889,4,1000,3,1,2,5,4,1,0,3,0,250.0,test,4,E-
431.173086166,5,1000,0,1,2,5,4,1,0,3,0,250.0,test,5,E-
478.335142136,4,1000,3,1,2,5,4,1,0,3,0,250.0,test,4,E-
415.067911148,3,1000,4,1,2,5,4,1,0,3,0,250.0,test,3,E-
462.989807129,5,1000,0,1,2,5,4,1,0,3,0,250.0,test,5,E-
431.728839874,0,1000,5,1,2,5,4,1,0,3,0,250.0,test,0,E-
511.710882187,3,1000,4,1,2,5,4,1,0,3,0,250.0,test,3,E-
415.688991547,2,1000,1,1,2,5,4,1,0,3,0,250.0,test,2,E-
413.912057877,1,1000,2,1,2,5,4,1,0,3,0,250.0,test,1,E-
495.628118515,2,1000,1,1,2,5,4,1,0,3,0,250.0,test,2,E-
477.41985321,1,1000,2,1,2,5,4,1,0,3,0,250.0,test,1,E-
479.773044586,1,1000,2,1,2,5,4,1,0,3,0,250.0,test,1,E-
510.683059692,0,1000,5,1,2,5,4,1,0,3,0,250.0,test,0,E-
463.627815247,2,1000,1,1,2,5,4,1,0,3,0,250.0,test,2,E-
607.193946838,4,1000,3,0,2,5,4,1,0,3,0,250.0,test,3,E-
494.953870773,0,1000,5,1,2,5,4,1,0,3,0,250.0,test,0,E-
383.6581707,1,1000,2,1,2,5,4,1,0,3,0,250.0,test,1,E-
430.712938309,0,1000,5,1,2,5,4,1,0,3,0,250.0,test,0,E-
495.727062225,5,1000,0,1,2,5,4,1,0,3,0,250.0,test,5,E-
509.90486145,1,1000,2,1,2,5,4,1,0,3,0,250.0,test,1,E-
479.864835739,5,1000,0,1,2,5,4,1,0,3,0,250.0,test,5,E-
478.871107101,1,1000,2,1,2,5,4,1,0,3,0,250.0,test,1,E-
415.050983429,1,1000,2,1,2,5,4,1,0,3,0,250.0,test,1,E-
399.015188217,0,1000,5,1,2,5,4,1,0,3,0,250.0,test,0,E-
606.595039368,4,1000,3,1,2,5,4,1,0,3,0,250.0,test,4,E-
574.194908142,2,1000,1,1,2,5,4,1,0,3,0,250.0,test,2,E-
575.208902359,5,1000,0,1,2,5,4,1,0,3,0,250.0,test,5,E-
479.307174683,1,1000,2,1,2,5,4,1,0,3,0,250.0,test,1,E-
415.678024292,0,1000,5,1,2,5,4,1,0,3,0,250.0,test,0,E-
526.57699585,5,1000,0,1,2,5,4,1,0,3,0,250.0,test,5,E-
413.353919983,5,1000,0,1,2,5,4,1,0,3,0,250.0,test,5,E-
398.447036743,0,1000,5,1,2,5,4,1,0,3,0,250.0,test,0,E-
