RT,correct_response,ms-prestimblank,curstim,correct,SRmap_1,SRmap_0,SRmap_3,SRmap_2,SRmap_5,SRmap_4,ms-precue,ntrials,type,response,condition
4073.90809059,2,1000,3,1,4,5,2,1,0,3,0,250.0,train,2,H+
1514.25695419,4,1000,1,0,4,5,2,1,0,3,0,250.0,train,0,H+
2299.7610569,3,1000,4,1,4,5,2,1,0,3,0,250.0,train,3,H+
1371.80781364,0,1000,5,1,4,5,2,1,0,3,0,250.0,train,0,H+
1562.28590012,2,1000,3,1,4,5,2,1,0,3,0,250.0,train,2,H+
1482.39994049,4,1000,1,1,4,5,2,1,0,3,0,250.0,train,4,H+
1802.32095718,1,1000,2,1,4,5,2,1,0,3,0,250.0,train,1,H+
1018.39804649,0,1000,5,1,4,5,2,1,0,3,0,250.0,train,0,H+
1034.36589241,4,1000,1,1,4,5,2,1,0,3,0,250.0,train,4,H+
603.825092316,4,1000,1,1,4,5,2,1,0,3,0,250.0,train,4,H+
1306.28705025,3,1000,4,1,4,5,2,1,0,3,0,250.0,train,3,H+
1578.3598423,1,1000,2,1,4,5,2,1,0,3,0,250.0,train,1,H+
890.370130539,1,1000,2,1,4,5,2,1,0,3,0,250.0,train,1,H+
1594.32697296,5,1000,0,1,4,5,2,1,0,3,0,250.0,train,5,H+
618.315935135,5,1000,0,1,4,5,2,1,0,3,0,250.0,train,5,H+
1082.3559761,2,1000,3,0,4,5,2,1,0,3,0,250.0,train,0,H+
1370.37491798,1,1000,2,1,4,5,2,1,0,3,0,250.0,train,1,H+
2698.40502739,2,1000,3,1,4,5,2,1,0,3,0,250.0,train,2,H+
939.84913826,0,1000,5,1,4,5,2,1,0,3,0,250.0,train,0,H+
650.366067886,4,1000,1,0,4,5,2,1,0,3,0,250.0,train,5,H+
555.830001831,4,1000,1,1,4,5,2,1,0,3,0,250.0,train,4,H+
1322.40581512,2,1000,3,1,4,5,2,1,0,3,0,250.0,train,2,H+
795.095920563,0,1000,5,1,4,5,2,1,0,3,0,250.0,train,0,H+
730.329990387,3,1000,4,1,4,5,2,1,0,3,0,250.0,train,3,H+
986.426115036,3,1000,4,1,4,5,2,1,0,3,0,250.0,train,3,H+
1162.30487823,1,1000,2,1,4,5,2,1,0,3,0,250.0,train,1,H+
682.361125946,1,1000,2,1,4,5,2,1,0,3,0,250.0,train,1,H+
555.045127869,3,1000,4,0,4,5,2,1,0,3,0,250.0,train,4,H+
634.403944016,4,1000,1,1,4,5,2,1,0,3,0,250.0,train,4,H+
1450.47998428,1,1000,2,1,4,5,2,1,0,3,0,250.0,train,1,H+
1002.37107277,2,1000,3,1,4,5,2,1,0,3,0,250.0,train,2,H+
859.425067902,5,1000,0,1,4,5,2,1,0,3,0,250.0,train,5,H+
714.360952377,4,1000,1,1,4,5,2,1,0,3,0,250.0,train,4,H+
842.294931412,5,1000,0,1,4,5,2,1,0,3,0,250.0,train,5,H+
1002.34699249,3,1000,4,1,4,5,2,1,0,3,0,250.0,train,3,H+
778.24306488,0,1000,5,1,4,5,2,1,0,3,0,250.0,train,0,H+
554.42905426,3,1000,4,1,4,5,2,1,0,3,0,250.0,train,3,H+
731.80603981,2,1000,3,1,4,5,2,1,0,3,0,250.0,train,2,H+
955.832004547,5,1000,0,1,4,5,2,1,0,3,0,250.0,train,5,H+
746.977090836,3,1000,4,1,4,5,2,1,0,3,0,250.0,train,3,H+
827.839136124,3,1000,4,1,4,5,2,1,0,3,0,250.0,train,3,H+
634.433984756,4,1000,1,1,4,5,2,1,0,3,0,250.0,train,4,H+
491.78981781,4,1000,1,1,4,5,2,1,0,3,0,250.0,train,4,H+
506.390810013,4,1000,1,1,4,5,2,1,0,3,0,250.0,train,4,H+
411.041021347,1,1000,2,1,4,5,2,1,0,3,0,250.0,train,1,H+
1050.37093163,0,1000,5,1,4,5,2,1,0,3,0,250.0,train,0,H+
682.361841202,3,1000,4,1,4,5,2,1,0,3,0,250.0,train,3,H+
602.463960648,0,1000,5,1,4,5,2,1,0,3,0,250.0,train,0,H+
746.479034424,2,1000,3,1,4,5,2,1,0,3,0,250.0,train,2,H+
602.423906326,4,1000,1,1,4,5,2,1,0,3,0,250.0,train,4,H+
682.371854782,5,1000,0,1,4,5,2,1,0,3,0,250.0,train,5,H+
747.090816498,3,1000,4,1,4,5,2,1,0,3,0,250.0,train,3,H+
779.043912888,5,1000,0,1,4,5,2,1,0,3,0,250.0,train,5,H+
683.798074722,1,1000,2,0,4,5,2,1,0,3,0,250.0,train,4,H+
762.31098175,3,1000,4,1,4,5,2,1,0,3,0,250.0,train,3,H+
683.862924576,4,1000,1,1,4,5,2,1,0,3,0,250.0,train,4,H+
699.903011322,5,1000,0,1,4,5,2,1,0,3,0,250.0,train,5,H+
602.354049683,3,1000,4,1,4,5,2,1,0,3,0,250.0,train,3,H+
1018.31912994,2,1000,3,1,4,5,2,1,0,3,0,250.0,train,2,H+
1322.49808311,3,1000,4,1,4,5,2,1,0,3,0,250.0,train,3,H+
747.77007103,0,1000,5,1,4,5,2,1,0,3,0,250.0,train,0,H+
842.446088791,4,1000,1,1,4,5,2,1,0,3,0,250.0,train,4,H+
651.728868484,2,1000,3,1,4,5,2,1,0,3,0,250.0,train,2,H+
604.516029358,3,1000,4,1,4,5,2,1,0,3,0,250.0,train,3,H+
411.76199913,1,1000,2,0,4,5,2,1,0,3,0,250.0,train,4,H+
667.695999146,4,1000,1,1,4,5,2,1,0,3,0,250.0,train,4,H+
795.789957047,3,1000,4,1,4,5,2,1,0,3,0,250.0,train,3,H+
794.327020645,5,1000,0,1,4,5,2,1,0,3,0,250.0,train,5,H+
825.186014175,5,1000,0,1,4,5,2,1,0,3,0,250.0,train,5,H+
873.224020004,0,1000,5,1,4,5,2,1,0,3,0,250.0,train,0,H+
986.361980438,2,1000,3,1,4,5,2,1,0,3,0,250.0,train,2,H+
635.124921799,5,1000,0,1,4,5,2,1,0,3,0,250.0,train,5,H+
859.78102684,1,1000,2,0,4,5,2,1,0,3,0,250.0,train,0,H+
874.376058578,0,1000,5,1,4,5,2,1,0,3,0,250.0,train,0,H+
730.389118195,1,1000,2,1,4,5,2,1,0,3,0,250.0,train,1,H+
666.384935379,3,1000,4,1,4,5,2,1,0,3,0,250.0,train,3,H+
666.340827942,4,1000,1,1,4,5,2,1,0,3,0,250.0,train,4,H+
890.318870544,2,1000,3,0,4,5,2,1,0,3,0,250.0,train,0,H+
651.815891266,5,1000,0,1,4,5,2,1,0,3,0,250.0,train,5,H+
890.379905701,1,1000,2,1,4,5,2,1,0,3,0,250.0,train,1,H+
890.435934067,0,1000,5,1,4,5,2,1,0,3,0,250.0,train,0,H+
747.297048569,5,1000,0,1,4,5,2,1,0,3,0,250.0,train,5,H+
731.868028641,5,1000,0,1,4,5,2,1,0,3,0,250.0,train,5,H+
667.647838593,1,1000,2,1,4,5,2,1,0,3,0,250.0,train,1,H+
713.184118271,1,1000,2,1,4,5,2,1,0,3,0,250.0,train,1,H+
602.365016937,4,1000,1,1,4,5,2,1,0,3,0,250.0,train,4,H+
906.450986862,3,1000,4,1,4,5,2,1,0,3,0,250.0,train,3,H+
762.346982956,2,1000,3,0,4,5,2,1,0,3,0,250.0,train,0,H+
619.835138321,3,1000,4,1,4,5,2,1,0,3,0,250.0,train,3,H+
619.812011719,0,1000,5,1,4,5,2,1,0,3,0,250.0,train,0,H+
683.815956116,2,1000,3,1,4,5,2,1,0,3,0,250.0,train,2,H+
667.794942856,3,1000,4,1,4,5,2,1,0,3,0,250.0,train,3,H+
442.411899567,5,1000,0,1,4,5,2,1,0,3,0,250.0,train,5,H+
571.027040482,3,1000,4,1,4,5,2,1,0,3,0,250.0,train,3,H+
618.458986282,1,1000,2,1,4,5,2,1,0,3,0,250.0,train,1,H+
506.412029266,5,1000,0,0,4,5,2,1,0,3,0,250.0,train,1,H+
347.065925598,5,1000,0,1,4,5,2,1,0,3,0,250.0,train,5,H+
682.301044464,3,1000,4,1,4,5,2,1,0,3,0,250.0,train,3,H+
618.430137634,5,1000,0,1,4,5,2,1,0,3,0,250.0,train,5,H+
618.433952332,3,1000,4,1,4,5,2,1,0,3,0,250.0,train,3,H+
699.766159058,5,1000,0,1,4,5,2,1,0,3,0,250.0,train,5,H+
938.380002975,2,1000,3,1,4,5,2,1,0,3,0,250.0,train,2,H+
619.82011795,0,1000,5,1,4,5,2,1,0,3,0,250.0,train,0,H+
602.44512558,3,1000,4,1,4,5,2,1,0,3,0,250.0,train,3,H+
506.375074387,3,1000,4,1,4,5,2,1,0,3,0,250.0,train,3,H+
426.446914673,0,1000,5,0,4,5,2,1,0,3,0,250.0,train,5,H+
843.812942505,2,1000,3,1,4,5,2,1,0,3,0,250.0,train,2,H+
827.796936035,5,1000,0,1,4,5,2,1,0,3,0,250.0,train,5,H+
1403.77402306,4,1000,1,1,4,5,2,1,0,3,0,250.0,train,4,H+
619.859933853,4,1000,1,1,4,5,2,1,0,3,0,250.0,train,4,H+
1131.81996346,3,1000,4,1,4,5,2,1,0,3,0,250.0,train,3,H+
763.045072556,1,1000,2,1,4,5,2,1,0,3,0,250.0,train,1,H+
635.64491272,4,1000,1,1,4,5,2,1,0,3,0,250.0,train,4,H+
826.355934143,3,1000,4,1,4,5,2,1,0,3,0,250.0,train,3,H+
458.300828934,3,1000,4,1,4,5,2,1,0,3,0,250.0,train,3,H+
778.28001976,2,1000,3,1,4,5,2,1,0,3,0,250.0,train,2,H+
778.328180313,2,1000,3,1,4,5,2,1,0,3,0,250.0,train,2,H+
555.819034576,1,1000,2,0,4,5,2,1,0,3,0,250.0,train,4,H+
698.397159576,0,1000,5,1,4,5,2,1,0,3,0,250.0,train,0,H+
1387.8891468,1,1000,2,1,4,5,2,1,0,3,0,250.0,train,1,H+
891.876935959,2,1000,3,1,4,5,2,1,0,3,0,250.0,train,2,H+
699.586868286,4,1000,1,1,4,5,2,1,0,3,0,250.0,train,4,H+
507.805109024,4,1000,1,1,4,5,2,1,0,3,0,250.0,train,4,H+
826.422929764,5,1000,0,1,4,5,2,1,0,3,0,250.0,train,5,H+
859.838008881,0,1000,5,1,4,5,2,1,0,3,0,250.0,train,0,H+
1114.39299583,2,1000,3,1,4,5,2,1,0,3,0,250.0,train,2,H+
586.405992508,5,1000,0,1,4,5,2,1,0,3,0,250.0,train,5,H+
890.392065048,1,1000,2,0,4,5,2,1,0,3,0,250.0,train,4,H+
506.363868713,1,1000,2,1,4,5,2,1,0,3,0,250.0,train,1,H+
666.426181793,3,1000,4,0,4,5,2,1,0,3,0,250.0,train,2,H+
682.473897934,4,1000,1,1,4,5,2,1,0,3,0,250.0,train,4,H+
603.072881699,4,1000,1,1,4,5,2,1,0,3,0,250.0,train,4,H+
745.116949081,5,1000,0,1,4,5,2,1,0,3,0,250.0,train,5,H+
986.424922943,1,1000,2,1,4,5,2,1,0,3,0,250.0,train,1,H+
571.790933609,1,1000,2,1,4,5,2,1,0,3,0,250.0,train,1,H+
810.415029526,5,1000,0,1,4,5,2,1,0,3,0,250.0,train,5,H+
539.788961411,4,1000,1,1,4,5,2,1,0,3,0,250.0,train,4,H+
1051.77998543,0,1000,5,1,4,5,2,1,0,3,0,250.0,train,0,H+
459.005117416,0,1000,5,1,4,5,2,1,0,3,0,250.0,train,0,H+
651.375770569,2,1000,3,1,4,5,2,1,0,3,0,250.0,train,2,H+
619.674921036,3,1000,4,1,4,5,2,1,0,3,0,250.0,train,3,H+
587.690114975,5,1000,0,1,4,5,2,1,0,3,0,250.0,train,5,H+
650.089979172,0,1000,5,1,4,5,2,1,0,3,0,250.0,train,0,H+
458.281993866,0,1000,5,1,4,5,2,1,0,3,0,250.0,train,0,H+
586.380004883,3,1000,4,1,4,5,2,1,0,3,0,250.0,train,3,H+
699.83291626,0,1000,5,1,4,5,2,1,0,3,0,250.0,train,0,H+
682.351112366,1,1000,2,1,4,5,2,1,0,3,0,250.0,train,1,H+
762.270927429,5,1000,0,1,4,5,2,1,0,3,0,250.0,train,5,H+
730.360984802,3,1000,4,1,4,5,2,1,0,3,0,250.0,train,3,H+
827.857971191,1,1000,2,1,4,5,2,1,0,3,0,250.0,train,1,H+
778.117895126,2,1000,3,0,4,5,2,1,0,3,0,250.0,train,0,H+
826.44701004,4,1000,1,1,4,5,2,1,0,3,0,250.0,train,4,H+
619.728088379,3,1000,4,1,4,5,2,1,0,3,0,250.0,train,3,H+
698.343038559,3,1000,4,1,4,5,2,1,0,3,0,250.0,train,3,H+
810.789823532,5,1000,0,1,4,5,2,1,0,3,0,250.0,train,5,H+
554.410934448,4,1000,1,1,4,5,2,1,0,3,0,250.0,train,4,H+
874.360084534,5,1000,0,1,4,5,2,1,0,3,0,250.0,train,5,H+
1498.41403961,3,1000,4,1,4,5,2,1,0,3,0,250.0,train,3,H+
666.413068771,1,1000,2,1,4,5,2,1,0,3,0,250.0,train,1,H+
650.43091774,4,1000,1,1,4,5,2,1,0,3,0,250.0,train,4,H+
1370.52798271,2,1000,3,1,4,5,2,1,0,3,0,250.0,train,2,H+
682.391881943,4,1000,1,1,4,5,2,1,0,3,0,250.0,train,4,H+
747.719049454,5,1000,0,1,4,5,2,1,0,3,0,250.0,train,5,H+
731.824874878,3,1000,4,1,4,5,2,1,0,3,0,250.0,train,3,H+
666.305065155,3,1000,4,1,4,5,2,1,0,3,0,250.0,train,3,H+
442.384958267,3,1000,4,1,4,5,2,1,0,3,0,250.0,train,3,H+
1371.80900574,4,1000,1,1,4,5,2,1,0,3,0,250.0,train,4,H+
666.354179382,5,1000,0,1,4,5,2,1,0,3,0,250.0,train,5,H+
699.519872665,0,1000,5,1,4,5,2,1,0,3,0,250.0,train,0,H+
809.06701088,5,1000,0,1,4,5,2,1,0,3,0,250.0,train,5,H+
682.140111923,5,1000,0,1,4,5,2,1,0,3,0,250.0,train,5,H+
570.282936096,0,1000,5,1,4,5,2,1,0,3,0,250.0,train,0,H+
555.011987686,0,1000,5,1,4,5,2,1,0,3,0,250.0,train,0,H+
522.329092026,1,1000,2,1,4,5,2,1,0,3,0,250.0,train,1,H+
554.170131683,3,1000,4,0,4,5,2,1,0,3,0,250.0,train,2,H+
554.652929306,3,1000,4,1,4,5,2,1,0,3,0,250.0,train,3,H+
587.822914124,4,1000,1,1,4,5,2,1,0,3,0,250.0,train,4,H+
395.798921585,4,1000,1,1,4,5,2,1,0,3,0,250.0,train,4,H+
731.846094131,1,1000,2,1,4,5,2,1,0,3,0,250.0,train,1,H+
747.702121735,0,1000,5,1,4,5,2,1,0,3,0,250.0,train,0,H+
810.352802277,3,1000,4,1,4,5,2,1,0,3,0,250.0,train,3,H+
698.324918747,1,1000,2,1,4,5,2,1,0,3,0,250.0,train,1,H+
907.124996185,5,1000,0,1,4,5,2,1,0,3,0,250.0,train,5,H+
730.306148529,1,1000,2,1,4,5,2,1,0,3,0,250.0,train,1,H+
634.432077408,1,1000,2,1,4,5,2,1,0,3,0,250.0,train,1,H+
666.377067566,0,1000,5,1,4,5,2,1,0,3,0,250.0,train,0,H+
714.385032654,0,1000,5,1,4,5,2,1,0,3,0,250.0,train,0,H+
1290.44103622,2,1000,3,1,4,5,2,1,0,3,0,250.0,train,2,H+
731.79602623,1,1000,2,1,4,5,2,1,0,3,0,250.0,train,1,H+
522.38202095,3,1000,4,1,4,5,2,1,0,3,0,250.0,train,3,H+
587.500095367,5,1000,0,1,4,5,2,1,0,3,0,250.0,train,5,H+
682.199001312,2,1000,3,1,4,5,2,1,0,3,0,250.0,train,2,H+
699.841976166,1,1000,2,1,4,5,2,1,0,3,0,250.0,train,1,H+
699.720859528,5,1000,0,1,4,5,2,1,0,3,0,250.0,train,5,H+
699.006795883,2,1000,3,1,4,5,2,1,0,3,0,250.0,train,2,H+
571.770906448,2,1000,3,1,4,5,2,1,0,3,0,250.0,train,2,H+
747.786998749,3,1000,4,1,4,5,2,1,0,3,0,250.0,train,3,H+
650.323867798,3,1000,4,1,4,5,2,1,0,3,0,250.0,train,3,H+
665.096998215,0,1000,5,1,4,5,2,1,0,3,0,250.0,train,0,H+
635.60795784,1,1000,2,1,4,5,2,1,0,3,0,250.0,train,1,H+
571.725130081,4,1000,1,1,4,5,2,1,0,3,0,250.0,train,4,H+
635.56098938,3,1000,4,1,4,5,2,1,0,3,0,250.0,train,3,H+
650.400876999,5,1000,0,1,4,5,2,1,0,3,0,250.0,train,5,H+
698.42004776,2,1000,3,1,4,5,2,1,0,3,0,250.0,train,2,H+
490.402936935,2,1000,3,1,4,5,2,1,0,3,0,250.0,train,2,H+
571.053028107,4,1000,1,1,4,5,2,1,0,3,0,250.0,train,4,H+
714.368104935,1,1000,2,1,4,5,2,1,0,3,0,250.0,train,1,H+
731.88495636,4,1000,1,1,4,5,2,1,0,3,0,250.0,train,4,H+
426.462888718,4,1000,1,1,4,5,2,1,0,3,0,250.0,train,4,H+
1531.91590309,5,1000,0,1,4,5,2,1,0,3,0,250.0,train,5,H+
651.803016663,2,1000,3,1,4,5,2,1,0,3,0,250.0,train,2,H+
442.399024963,5,1000,0,0,4,5,2,1,0,3,0,250.0,train,2,H+
714.329004288,0,1000,5,1,4,5,2,1,0,3,0,250.0,train,0,H+
634.351015091,2,1000,3,1,4,5,2,1,0,3,0,250.0,train,2,H+
682.255029678,0,1000,5,1,4,5,2,1,0,3,0,250.0,train,0,H+
651.016950607,4,1000,1,1,4,5,2,1,0,3,0,250.0,train,4,H+
667.835950851,4,1000,1,1,4,5,2,1,0,3,0,250.0,train,4,H+
618.338108063,2,1000,3,0,4,5,2,1,0,3,0,250.0,train,0,H+
843.158960342,5,1000,0,1,4,5,2,1,0,3,0,250.0,train,5,H+
1178.45582962,2,1000,3,1,4,5,2,1,0,3,0,250.0,train,2,H+
762.398004532,1,1000,2,1,4,5,2,1,0,3,0,250.0,train,1,H+
762.34292984,3,1000,4,1,4,5,2,1,0,3,0,250.0,train,3,H+
410.495996475,3,1000,4,1,4,5,2,1,0,3,0,250.0,train,3,H+
619.859933853,0,1000,5,1,4,5,2,1,0,3,0,250.0,train,0,H+
634.443998337,5,1000,0,1,4,5,2,1,0,3,0,250.0,train,5,H+
747.781991959,1,1000,2,1,4,5,2,1,0,3,0,250.0,train,1,H+
699.485063553,5,1000,0,1,4,5,2,1,0,3,0,250.0,train,5,H+
795.813083649,4,1000,1,1,4,5,2,1,0,3,0,250.0,train,4,H+
747.840881348,4,1000,1,1,4,5,2,1,0,3,0,250.0,train,4,H+
539.267063141,4,1000,1,1,4,5,2,1,0,3,0,250.0,train,4,H+
683.62402916,4,1000,1,1,4,5,2,1,0,3,0,250.0,train,4,H+
1082.28111267,3,1000,4,1,4,5,2,1,0,3,0,250.0,train,3,H+
714.349985123,5,1000,0,1,4,5,2,1,0,3,0,250.0,train,5,H+
746.421098709,4,1000,1,1,4,5,2,1,0,3,0,250.0,train,4,H+
682.3990345,2,1000,3,1,4,5,2,1,0,3,0,250.0,train,2,H+
651.057004929,0,1000,5,1,4,5,2,1,0,3,0,250.0,train,0,H+
795.077800751,4,1000,1,1,4,5,2,1,0,3,0,250.0,train,4,H+
954.489946365,5,1000,0,1,4,5,2,1,0,3,0,250.0,train,5,H+
667.803049088,0,1000,5,1,4,5,2,1,0,3,0,250.0,train,0,H+
699.776887894,4,1000,1,1,4,5,2,1,0,3,0,250.0,train,4,H+
602.354049683,1,1000,2,1,4,5,2,1,0,3,0,250.0,train,1,H+
762.446165085,5,1000,0,1,4,5,2,1,0,3,0,250.0,train,5,H+
556.679964066,5,1000,0,1,4,5,2,1,0,3,0,250.0,train,5,H+
442.373991013,5,1000,0,1,4,5,2,1,0,3,0,250.0,train,5,H+
538.337945938,5,1000,0,1,4,5,2,1,0,3,0,250.0,train,5,H+
330.379962921,5,1000,0,1,4,5,2,1,0,3,0,250.0,train,5,H+
666.300058365,2,1000,3,0,4,5,2,1,0,3,0,250.0,train,0,H+
762.395143509,1,1000,2,1,4,5,2,1,0,3,0,250.0,train,1,H+
618.451118469,3,1000,4,1,4,5,2,1,0,3,0,250.0,train,3,H+
682.26313591,5,1000,0,1,4,5,2,1,0,3,0,250.0,train,5,H+
1018.82600784,2,1000,3,1,4,5,2,1,0,3,0,250.0,test,2,H+
651.779174805,2,1000,3,1,4,5,2,1,0,3,0,250.0,test,2,H+
698.997020721,4,1000,1,1,4,5,2,1,0,3,0,250.0,test,4,H+
618.314981461,2,1000,3,1,4,5,2,1,0,3,0,250.0,test,2,H+
939.674139023,4,1000,1,1,4,5,2,1,0,3,0,250.0,test,4,H+
634.352207184,2,1000,3,1,4,5,2,1,0,3,0,250.0,test,2,H+
682.389974594,5,1000,0,1,4,5,2,1,0,3,0,250.0,test,5,H+
633.903026581,2,1000,3,1,4,5,2,1,0,3,0,250.0,test,2,H+
618.285894394,4,1000,1,1,4,5,2,1,0,3,0,250.0,test,4,H+
763.694047928,2,1000,3,1,4,5,2,1,0,3,0,250.0,test,2,H+
442.399024963,2,1000,3,1,4,5,2,1,0,3,0,250.0,test,2,H+
378.275871277,2,1000,3,1,4,5,2,1,0,3,0,250.0,test,2,H+
570.434093475,5,1000,0,0,4,5,2,1,0,3,0,250.0,test,4,H+
618.323087692,0,1000,5,0,4,5,2,1,0,3,0,250.0,test,2,H+
682.321071625,5,1000,0,1,4,5,2,1,0,3,0,250.0,test,5,H+
762.346029282,1,1000,2,1,4,5,2,1,0,3,0,250.0,test,1,H+
683.809995651,0,1000,5,1,4,5,2,1,0,3,0,250.0,test,0,H+
1434.36908722,1,1000,2,1,4,5,2,1,0,3,0,250.0,test,1,H+
1067.14391708,3,1000,4,1,4,5,2,1,0,3,0,250.0,test,3,H+
1242.44809151,5,1000,0,1,4,5,2,1,0,3,0,250.0,test,5,H+
602.285861969,3,1000,4,1,4,5,2,1,0,3,0,250.0,test,3,H+
635.807037354,4,1000,1,1,4,5,2,1,0,3,0,250.0,test,4,H+
811.784029007,3,1000,4,1,4,5,2,1,0,3,0,250.0,test,3,H+
602.381944656,5,1000,0,1,4,5,2,1,0,3,0,250.0,test,5,H+
571.021080017,1,1000,2,1,4,5,2,1,0,3,0,250.0,test,1,H+
602.397918701,1,1000,2,1,4,5,2,1,0,3,0,250.0,test,1,H+
538.383960724,0,1000,5,1,4,5,2,1,0,3,0,250.0,test,0,H+
715.695858002,0,1000,5,1,4,5,2,1,0,3,0,250.0,test,0,H+
650.385141373,1,1000,2,1,4,5,2,1,0,3,0,250.0,test,1,H+
490.350008011,1,1000,2,1,4,5,2,1,0,3,0,250.0,test,1,H+
651.72791481,4,1000,1,1,4,5,2,1,0,3,0,250.0,test,4,H+
458.349943161,4,1000,1,1,4,5,2,1,0,3,0,250.0,test,4,H+
602.33092308,1,1000,2,1,4,5,2,1,0,3,0,250.0,test,1,H+
682.533025742,2,1000,3,1,4,5,2,1,0,3,0,250.0,test,2,H+
938.34400177,2,1000,3,1,4,5,2,1,0,3,0,250.0,test,2,H+
587.007045746,2,1000,3,1,4,5,2,1,0,3,0,250.0,test,2,H+
491.753816605,2,1000,3,1,4,5,2,1,0,3,0,250.0,test,2,H+
491.012811661,4,1000,1,1,4,5,2,1,0,3,0,250.0,test,4,H+
426.406145096,4,1000,1,1,4,5,2,1,0,3,0,250.0,test,4,H+
587.100982666,0,1000,5,1,4,5,2,1,0,3,0,250.0,test,0,H+
682.343959808,2,1000,3,1,4,5,2,1,0,3,0,250.0,test,2,H+
651.089906693,3,1000,4,1,4,5,2,1,0,3,0,250.0,test,3,H+
650.60210228,0,1000,5,1,4,5,2,1,0,3,0,250.0,test,0,H+
523.047924042,1,1000,2,1,4,5,2,1,0,3,0,250.0,test,1,H+
666.356086731,5,1000,0,1,4,5,2,1,0,3,0,250.0,test,5,H+
619.075059891,3,1000,4,1,4,5,2,1,0,3,0,250.0,test,3,H+
602.31089592,0,1000,5,1,4,5,2,1,0,3,0,250.0,test,0,H+
570.438146591,1,1000,2,1,4,5,2,1,0,3,0,250.0,test,1,H+
522.310018539,2,1000,3,1,4,5,2,1,0,3,0,250.0,test,2,H+
650.413990021,1,1000,2,1,4,5,2,1,0,3,0,250.0,test,1,H+
666.481971741,5,1000,0,1,4,5,2,1,0,3,0,250.0,test,5,H+
539.68501091,2,1000,3,1,4,5,2,1,0,3,0,250.0,test,2,H+
555.861949921,3,1000,4,1,4,5,2,1,0,3,0,250.0,test,3,H+
474.169015884,3,1000,4,1,4,5,2,1,0,3,0,250.0,test,3,H+
570.151805878,5,1000,0,1,4,5,2,1,0,3,0,250.0,test,5,H+
730.331897736,1,1000,2,1,4,5,2,1,0,3,0,250.0,test,1,H+
634.174823761,3,1000,4,1,4,5,2,1,0,3,0,250.0,test,3,H+
586.302995682,0,1000,5,1,4,5,2,1,0,3,0,250.0,test,0,H+
491.652965546,2,1000,3,0,4,5,2,1,0,3,0,250.0,test,1,H+
635.576963425,3,1000,4,1,4,5,2,1,0,3,0,250.0,test,3,H+
635.068178177,2,1000,3,1,4,5,2,1,0,3,0,250.0,test,2,H+
570.318937302,2,1000,3,1,4,5,2,1,0,3,0,250.0,test,2,H+
586.384057999,1,1000,2,1,4,5,2,1,0,3,0,250.0,test,1,H+
635.770797729,5,1000,0,1,4,5,2,1,0,3,0,250.0,test,5,H+
681.842803955,3,1000,4,1,4,5,2,1,0,3,0,250.0,test,3,H+
843.920946121,4,1000,1,0,4,5,2,1,0,3,0,250.0,test,1,H+
698.713064194,0,1000,5,1,4,5,2,1,0,3,0,250.0,test,0,H+
395.054101944,4,1000,1,1,4,5,2,1,0,3,0,250.0,test,4,H+
586.395978928,1,1000,2,1,4,5,2,1,0,3,0,250.0,test,1,H+
602.412939072,2,1000,3,1,4,5,2,1,0,3,0,250.0,test,2,H+
810.42098999,3,1000,4,1,4,5,2,1,0,3,0,250.0,test,3,H+
699.082136154,5,1000,0,1,4,5,2,1,0,3,0,250.0,test,5,H+
1146.37207985,2,1000,3,0,4,5,2,1,0,3,0,250.0,test,3,H+
586.433172226,2,1000,3,1,4,5,2,1,0,3,0,250.0,test,2,H+
1706.43591881,0,1000,5,1,4,5,2,1,0,3,0,250.0,test,0,H+
810.385942459,1,1000,2,1,4,5,2,1,0,3,0,250.0,test,1,H+
522.309064865,4,1000,1,1,4,5,2,1,0,3,0,250.0,test,4,H+
682.255029678,2,1000,3,1,4,5,2,1,0,3,0,250.0,test,2,H+
523.030996323,2,1000,3,1,4,5,2,1,0,3,0,250.0,test,2,H+
650.439023972,5,1000,0,1,4,5,2,1,0,3,0,250.0,test,5,H+
666.281938553,2,1000,3,1,4,5,2,1,0,3,0,250.0,test,2,H+
570.286035538,4,1000,1,1,4,5,2,1,0,3,0,250.0,test,4,H+
1531.82911873,2,1000,3,1,4,5,2,1,0,3,0,250.0,test,2,H+
619.658946991,0,1000,5,1,4,5,2,1,0,3,0,250.0,test,0,H+
507.644176483,4,1000,1,0,4,5,2,1,0,3,0,250.0,test,2,H+
603.591918945,5,1000,0,1,4,5,2,1,0,3,0,250.0,test,5,H+
698.338031769,2,1000,3,1,4,5,2,1,0,3,0,250.0,test,2,H+
762.372970581,3,1000,4,1,4,5,2,1,0,3,0,250.0,test,3,H+
777.20785141,1,1000,2,1,4,5,2,1,0,3,0,250.0,test,1,H+
585.865020752,0,1000,5,1,4,5,2,1,0,3,0,250.0,test,0,H+
730.324029922,0,1000,5,1,4,5,2,1,0,3,0,250.0,test,0,H+
571.841001511,4,1000,1,1,4,5,2,1,0,3,0,250.0,test,4,H+
667.831897736,0,1000,5,1,4,5,2,1,0,3,0,250.0,test,0,H+
538.51890564,4,1000,1,1,4,5,2,1,0,3,0,250.0,test,4,H+
602.452039719,0,1000,5,1,4,5,2,1,0,3,0,250.0,test,0,H+
395.77293396,4,1000,1,1,4,5,2,1,0,3,0,250.0,test,4,H+
346.318006516,0,1000,5,1,4,5,2,1,0,3,0,250.0,test,0,H+
490.324020386,0,1000,5,1,4,5,2,1,0,3,0,250.0,test,0,H+
586.342096329,3,1000,4,0,4,5,2,1,0,3,0,250.0,test,2,H+
634.348869324,2,1000,3,0,4,5,2,1,0,3,0,250.0,test,3,H+
746.354103088,4,1000,1,1,4,5,2,1,0,3,0,250.0,test,4,H+
554.420948029,2,1000,3,1,4,5,2,1,0,3,0,250.0,test,2,H+
571.796894073,0,1000,5,1,4,5,2,1,0,3,0,250.0,test,0,H+
602.434873581,3,1000,4,1,4,5,2,1,0,3,0,250.0,test,3,H+
442.364931107,3,1000,4,1,4,5,2,1,0,3,0,250.0,test,3,H+
666.443824768,4,1000,1,1,4,5,2,1,0,3,0,250.0,test,4,H+
634.327888489,3,1000,4,1,4,5,2,1,0,3,0,250.0,test,3,H+
571.782827377,0,1000,5,1,4,5,2,1,0,3,0,250.0,test,0,H+
699.717998505,5,1000,0,1,4,5,2,1,0,3,0,250.0,test,5,H+
682.415008545,3,1000,4,0,4,5,2,1,0,3,0,250.0,test,4,H+
554.316997528,4,1000,1,1,4,5,2,1,0,3,0,250.0,test,4,H+
491.74284935,4,1000,1,1,4,5,2,1,0,3,0,250.0,test,4,H+
649.161100388,1,1000,2,1,4,5,2,1,0,3,0,250.0,test,1,H+
523.668050766,3,1000,4,0,4,5,2,1,0,3,0,250.0,test,4,H+
667.669773102,0,1000,5,1,4,5,2,1,0,3,0,250.0,test,0,H+
650.323867798,1,1000,2,1,4,5,2,1,0,3,0,250.0,test,1,H+
698.396921158,5,1000,0,1,4,5,2,1,0,3,0,250.0,test,5,H+
618.404150009,5,1000,0,1,4,5,2,1,0,3,0,250.0,test,5,H+
762.398958206,3,1000,4,1,4,5,2,1,0,3,0,250.0,test,3,H+
426.362991333,3,1000,4,1,4,5,2,1,0,3,0,250.0,test,3,H+
507.776021957,2,1000,3,1,4,5,2,1,0,3,0,250.0,test,2,H+
602.491140366,0,1000,5,1,4,5,2,1,0,3,0,250.0,test,0,H+
714.39409256,0,1000,5,1,4,5,2,1,0,3,0,250.0,test,0,H+
923.83813858,3,1000,4,1,4,5,2,1,0,3,0,250.0,test,3,H+
715.77501297,0,1000,5,1,4,5,2,1,0,3,0,250.0,test,0,H+
778.436899185,3,1000,4,1,4,5,2,1,0,3,0,250.0,test,3,H+
746.428966522,2,1000,3,1,4,5,2,1,0,3,0,250.0,test,2,H+
906.437158585,3,1000,4,1,4,5,2,1,0,3,0,250.0,test,3,H+
970.303058624,0,1000,5,1,4,5,2,1,0,3,0,250.0,test,0,H+
634.413957596,2,1000,3,1,4,5,2,1,0,3,0,250.0,test,2,H+
698.359012604,4,1000,1,1,4,5,2,1,0,3,0,250.0,test,4,H+
635.217905045,3,1000,4,1,4,5,2,1,0,3,0,250.0,test,3,H+
634.416818619,0,1000,5,1,4,5,2,1,0,3,0,250.0,test,0,H+
554.437160492,4,1000,1,1,4,5,2,1,0,3,0,250.0,test,4,H+
666.465044022,1,1000,2,1,4,5,2,1,0,3,0,250.0,test,1,H+
650.373935699,2,1000,3,1,4,5,2,1,0,3,0,250.0,test,2,H+
746.433973312,3,1000,4,1,4,5,2,1,0,3,0,250.0,test,3,H+
698.29416275,5,1000,0,1,4,5,2,1,0,3,0,250.0,test,5,H+
602.475166321,0,1000,5,1,4,5,2,1,0,3,0,250.0,test,0,H+
682.523012161,3,1000,4,1,4,5,2,1,0,3,0,250.0,test,3,H+
730.358123779,2,1000,3,1,4,5,2,1,0,3,0,250.0,test,2,H+
539.834976196,0,1000,5,1,4,5,2,1,0,3,0,250.0,test,0,H+
682.368040085,0,1000,5,1,4,5,2,1,0,3,0,250.0,test,0,H+
571.069955826,0,1000,5,1,4,5,2,1,0,3,0,250.0,test,0,H+
506.3560009,0,1000,5,1,4,5,2,1,0,3,0,250.0,test,0,H+
666.213035583,3,1000,4,1,4,5,2,1,0,3,0,250.0,test,3,H+
618.279933929,0,1000,5,1,4,5,2,1,0,3,0,250.0,test,0,H+
602.250099182,2,1000,3,1,4,5,2,1,0,3,0,250.0,test,2,H+
619.615793228,4,1000,1,1,4,5,2,1,0,3,0,250.0,test,4,H+
634.270191193,0,1000,5,1,4,5,2,1,0,3,0,250.0,test,0,H+
426.333904266,4,1000,1,1,4,5,2,1,0,3,0,250.0,test,4,H+
794.384002686,1,1000,2,1,4,5,2,1,0,3,0,250.0,test,1,H+
683.849096298,0,1000,5,1,4,5,2,1,0,3,0,250.0,test,0,H+
652.413129807,3,1000,4,0,4,5,2,1,0,3,0,250.0,test,2,H+
299.735069275,5,1000,0,0,4,5,2,1,0,3,0,250.0,test,3,H+
410.992145538,5,1000,0,1,4,5,2,1,0,3,0,250.0,test,5,H+
779.763936996,2,1000,3,1,4,5,2,1,0,3,0,250.0,test,2,H+
587.806224823,4,1000,1,1,4,5,2,1,0,3,0,250.0,test,4,H+
427.795886993,4,1000,1,1,4,5,2,1,0,3,0,250.0,test,4,H+
874.440193176,0,1000,5,1,4,5,2,1,0,3,0,250.0,test,0,H+
1051.85103416,2,1000,3,1,4,5,2,1,0,3,0,250.0,test,2,H+
730.403900146,0,1000,5,1,4,5,2,1,0,3,0,250.0,test,0,H+
923.1569767,1,1000,2,1,4,5,2,1,0,3,0,250.0,test,1,H+
298.421859741,2,1000,3,0,4,5,2,1,0,3,0,250.0,test,1,H+
698.42505455,1,1000,2,1,4,5,2,1,0,3,0,250.0,test,1,H+
553.970813751,0,1000,5,1,4,5,2,1,0,3,0,250.0,test,0,H+
746.45113945,3,1000,4,1,4,5,2,1,0,3,0,250.0,test,3,H+
858.453989029,5,1000,0,1,4,5,2,1,0,3,0,250.0,test,5,H+
522.348880768,1,1000,2,0,4,5,2,1,0,3,0,250.0,test,4,H+
747.85399437,3,1000,4,1,4,5,2,1,0,3,0,250.0,test,3,H+
571.090936661,5,1000,0,1,4,5,2,1,0,3,0,250.0,test,5,H+
603.69515419,3,1000,4,1,4,5,2,1,0,3,0,250.0,test,3,H+
458.264827728,3,1000,4,1,4,5,2,1,0,3,0,250.0,test,3,H+
666.292905807,0,1000,5,1,4,5,2,1,0,3,0,250.0,test,0,H+
698.023080826,3,1000,4,1,4,5,2,1,0,3,0,250.0,test,3,H+
715.510129929,3,1000,4,1,4,5,2,1,0,3,0,250.0,test,3,H+
714.483976364,1,1000,2,1,4,5,2,1,0,3,0,250.0,test,1,H+
667.671918869,2,1000,3,1,4,5,2,1,0,3,0,250.0,test,2,H+
554.267883301,3,1000,4,1,4,5,2,1,0,3,0,250.0,test,3,H+
682.286024094,1,1000,2,1,4,5,2,1,0,3,0,250.0,test,1,H+
666.358947754,4,1000,1,1,4,5,2,1,0,3,0,250.0,test,4,H+
601.963996887,3,1000,4,1,4,5,2,1,0,3,0,250.0,test,3,H+
714.405059814,5,1000,0,1,4,5,2,1,0,3,0,250.0,test,5,H+
730.278015137,1,1000,2,1,4,5,2,1,0,3,0,250.0,test,1,H+
587.749004364,5,1000,0,1,4,5,2,1,0,3,0,250.0,test,5,H+
586.34519577,4,1000,1,1,4,5,2,1,0,3,0,250.0,test,4,H+
1114.11905289,2,1000,3,1,4,5,2,1,0,3,0,250.0,test,2,H+
617.949962616,0,1000,5,1,4,5,2,1,0,3,0,250.0,test,0,H+
651.825904846,1,1000,2,1,4,5,2,1,0,3,0,250.0,test,1,H+
586.323022842,1,1000,2,1,4,5,2,1,0,3,0,250.0,test,1,H+
713.069915771,2,1000,3,1,4,5,2,1,0,3,0,250.0,test,2,H+
506.323814392,2,1000,3,1,4,5,2,1,0,3,0,250.0,test,2,H+
618.410110474,0,1000,5,0,4,5,2,1,0,3,0,250.0,test,2,H+
490.428924561,0,1000,5,1,4,5,2,1,0,3,0,250.0,test,0,H+
746.427059174,3,1000,4,1,4,5,2,1,0,3,0,250.0,test,3,H+
778.331041336,2,1000,3,1,4,5,2,1,0,3,0,250.0,test,2,H+
714.390993118,1,1000,2,1,4,5,2,1,0,3,0,250.0,test,1,H+
473.11091423,1,1000,2,1,4,5,2,1,0,3,0,250.0,test,1,H+
778.393983841,5,1000,0,1,4,5,2,1,0,3,0,250.0,test,5,H+
698.434114456,0,1000,5,1,4,5,2,1,0,3,0,250.0,test,0,H+
986.363887787,3,1000,4,1,4,5,2,1,0,3,0,250.0,test,3,H+
602.339982986,4,1000,1,1,4,5,2,1,0,3,0,250.0,test,4,H+
826.153039932,2,1000,3,1,4,5,2,1,0,3,0,250.0,test,2,H+
922.36995697,4,1000,1,1,4,5,2,1,0,3,0,250.0,test,4,H+
634.069919586,1,1000,2,1,4,5,2,1,0,3,0,250.0,test,1,H+
570.295810699,1,1000,2,1,4,5,2,1,0,3,0,250.0,test,1,H+
651.684999466,0,1000,5,1,4,5,2,1,0,3,0,250.0,test,0,H+
27.7237892151,2,1000,3,0,4,5,2,1,0,3,0,250.0,test,0,H+
650.397062302,3,1000,4,1,4,5,2,1,0,3,0,250.0,test,3,H+
571.822166443,1,1000,2,0,4,5,2,1,0,3,0,250.0,test,4,H+
554.173946381,4,1000,1,1,4,5,2,1,0,3,0,250.0,test,4,H+
667.610883713,1,1000,2,1,4,5,2,1,0,3,0,250.0,test,1,H+
682.129144669,5,1000,0,1,4,5,2,1,0,3,0,250.0,test,5,H+
475.027799606,5,1000,0,1,4,5,2,1,0,3,0,250.0,test,5,H+
874.24492836,0,1000,5,1,4,5,2,1,0,3,0,250.0,test,0,H+
938.374996185,5,1000,0,1,4,5,2,1,0,3,0,250.0,test,5,H+
2875.90694427,3,1000,4,1,4,5,2,1,0,3,0,250.0,test,3,H+
587.802886963,3,1000,4,1,4,5,2,1,0,3,0,250.0,test,3,H+
731.817960739,2,1000,3,1,4,5,2,1,0,3,0,250.0,test,2,H+
570.457935333,4,1000,1,1,4,5,2,1,0,3,0,250.0,test,4,H+
683.835029602,5,1000,0,1,4,5,2,1,0,3,0,250.0,test,5,H+
698.410987854,4,1000,1,1,4,5,2,1,0,3,0,250.0,test,4,H+
938.3289814,2,1000,3,1,4,5,2,1,0,3,0,250.0,test,2,H+
619.089841843,4,1000,1,1,4,5,2,1,0,3,0,250.0,test,4,H+
555.796861649,1,1000,2,1,4,5,2,1,0,3,0,250.0,test,1,H+
682.193040848,3,1000,4,1,4,5,2,1,0,3,0,250.0,test,3,H+
698.441982269,5,1000,0,1,4,5,2,1,0,3,0,250.0,test,5,H+
698.442935944,0,1000,5,1,4,5,2,1,0,3,0,250.0,test,0,H+
1338.28687668,2,1000,3,1,4,5,2,1,0,3,0,250.0,test,2,H+
778.458118439,1,1000,2,1,4,5,2,1,0,3,0,250.0,test,1,H+
842.392921448,3,1000,4,1,4,5,2,1,0,3,0,250.0,test,3,H+
522.382974625,3,1000,4,1,4,5,2,1,0,3,0,250.0,test,3,H+
938.261032104,2,1000,3,1,4,5,2,1,0,3,0,250.0,test,2,H+
650.413036346,2,1000,3,1,4,5,2,1,0,3,0,250.0,test,2,H+
1018.41115952,3,1000,4,1,4,5,2,1,0,3,0,250.0,test,3,H+
778.341054916,5,1000,0,1,4,5,2,1,0,3,0,250.0,test,5,H+
618.21603775,4,1000,1,1,4,5,2,1,0,3,0,250.0,test,4,H+
634.317874908,1,1000,2,1,4,5,2,1,0,3,0,250.0,test,1,H+
58.3078861237,4,1000,1,0,4,5,2,1,0,3,0,250.0,test,1,H+
682.322978973,2,1000,3,1,4,5,2,1,0,3,0,250.0,test,2,H+
1114.27307129,0,1000,5,1,4,5,2,1,0,3,0,250.0,test,0,H+
746.258974075,2,1000,3,1,4,5,2,1,0,3,0,250.0,test,2,H+
554.320812225,0,1000,5,1,4,5,2,1,0,3,0,250.0,test,0,H+
1258.37302208,5,1000,0,1,4,5,2,1,0,3,0,250.0,test,5,H+
634.349107742,4,1000,1,1,4,5,2,1,0,3,0,250.0,test,4,H+
778.396129608,2,1000,3,1,4,5,2,1,0,3,0,250.0,test,2,H+
555.022001266,4,1000,1,1,4,5,2,1,0,3,0,250.0,test,4,H+
763.787031174,3,1000,4,1,4,5,2,1,0,3,0,250.0,test,3,H+
570.970058441,2,1000,3,1,4,5,2,1,0,3,0,250.0,test,2,H+
650.472164154,3,1000,4,1,4,5,2,1,0,3,0,250.0,test,3,H+
