RT,correct_response,ms-prestimblank,curstim,correct,SRmap_1,SRmap_0,SRmap_3,SRmap_2,SRmap_5,SRmap_4,ms-precue,ntrials,type,response,condition
15453.4211159,5,1000,2,1,2,1,0,5,4,3,0,250.0,train,5,H+
5439.32008743,5,1000,2,1,2,1,0,5,4,3,0,250.0,train,5,H+
576.064109802,5,1000,2,1,2,1,0,5,4,3,0,250.0,train,5,H+
720.121145248,0,1000,3,1,2,1,0,5,4,3,0,250.0,train,0,H+
832.085847855,4,1000,5,1,2,1,0,5,4,3,0,250.0,train,4,H+
544.082164764,4,1000,5,1,2,1,0,5,4,3,0,250.0,train,4,H+
480.020999908,4,1000,5,1,2,1,0,5,4,3,0,250.0,train,4,H+
688.116073608,1,1000,0,1,2,1,0,5,4,3,0,250.0,train,1,H+
784.048080444,0,1000,3,0,2,1,0,5,4,3,0,250.0,train,1,H+
864.093065262,4,1000,5,0,2,1,0,5,4,3,0,250.0,train,1,H+
752.075195312,1,1000,0,1,2,1,0,5,4,3,0,250.0,train,1,H+
1024.75881577,2,1000,1,1,2,1,0,5,4,3,0,250.0,train,2,H+
896.103143692,4,1000,5,1,2,1,0,5,4,3,0,250.0,train,4,H+
816.045045853,2,1000,1,1,2,1,0,5,4,3,0,250.0,train,2,H+
464.214086533,3,1000,4,1,2,1,0,5,4,3,0,250.0,train,3,H+
368.217945099,3,1000,4,1,2,1,0,5,4,3,0,250.0,train,3,H+
576.208114624,1,1000,0,1,2,1,0,5,4,3,0,250.0,train,1,H+
688.040971756,3,1000,4,0,2,1,0,5,4,3,0,250.0,train,4,H+
751.679897308,0,1000,3,1,2,1,0,5,4,3,0,250.0,train,0,H+
1152.07099915,4,1000,5,1,2,1,0,5,4,3,0,250.0,train,4,H+
976.160049438,4,1000,5,0,2,1,0,5,4,3,0,250.0,train,5,H+
640.146017075,1,1000,0,1,2,1,0,5,4,3,0,250.0,train,1,H+
976.072072983,2,1000,1,1,2,1,0,5,4,3,0,250.0,train,2,H+
816.297054291,3,1000,4,1,2,1,0,5,4,3,0,250.0,train,3,H+
640.124082565,5,1000,2,1,2,1,0,5,4,3,0,250.0,train,5,H+
496.265888214,5,1000,2,1,2,1,0,5,4,3,0,250.0,train,5,H+
736.262083054,4,1000,5,0,2,1,0,5,4,3,0,250.0,train,1,H+
1120.16916275,2,1000,1,1,2,1,0,5,4,3,0,250.0,train,2,H+
1136.23404503,4,1000,5,1,2,1,0,5,4,3,0,250.0,train,4,H+
800.081014633,5,1000,2,1,2,1,0,5,4,3,0,250.0,train,5,H+
672.639846802,0,1000,3,1,2,1,0,5,4,3,0,250.0,train,0,H+
672.230958939,3,1000,4,1,2,1,0,5,4,3,0,250.0,train,3,H+
528.147935867,5,1000,2,1,2,1,0,5,4,3,0,250.0,train,5,H+
624.28689003,1,1000,0,1,2,1,0,5,4,3,0,250.0,train,1,H+
544.186115265,5,1000,2,1,2,1,0,5,4,3,0,250.0,train,5,H+
559.84377861,5,1000,2,1,2,1,0,5,4,3,0,250.0,train,5,H+
576.167106628,1,1000,0,1,2,1,0,5,4,3,0,250.0,train,1,H+
928.211927414,4,1000,5,0,2,1,0,5,4,3,0,250.0,train,0,H+
528.095960617,0,1000,3,1,2,1,0,5,4,3,0,250.0,train,0,H+
688.112020493,3,1000,4,1,2,1,0,5,4,3,0,250.0,train,3,H+
528.188943863,5,1000,2,1,2,1,0,5,4,3,0,250.0,train,5,H+
719.880819321,3,1000,4,0,2,1,0,5,4,3,0,250.0,train,4,H+
512.119054794,5,1000,2,1,2,1,0,5,4,3,0,250.0,train,5,H+
448.259115219,5,1000,2,1,2,1,0,5,4,3,0,250.0,train,5,H+
671.983003616,2,1000,1,1,2,1,0,5,4,3,0,250.0,train,2,H+
768.097162247,1,1000,0,1,2,1,0,5,4,3,0,250.0,train,1,H+
688.328027725,4,1000,5,1,2,1,0,5,4,3,0,250.0,train,4,H+
720.261096954,2,1000,1,1,2,1,0,5,4,3,0,250.0,train,2,H+
928.292036057,1,1000,0,1,2,1,0,5,4,3,0,250.0,train,1,H+
703.992843628,2,1000,1,1,2,1,0,5,4,3,0,250.0,train,2,H+
592.249155045,3,1000,4,0,2,1,0,5,4,3,0,250.0,train,4,H+
560.255050659,5,1000,2,1,2,1,0,5,4,3,0,250.0,train,5,H+
463.483095169,3,1000,4,1,2,1,0,5,4,3,0,250.0,train,3,H+
592.231988907,0,1000,3,1,2,1,0,5,4,3,0,250.0,train,0,H+
560.124874115,0,1000,3,1,2,1,0,5,4,3,0,250.0,train,0,H+
544.268131256,0,1000,3,1,2,1,0,5,4,3,0,250.0,train,0,H+
416.191101074,0,1000,3,1,2,1,0,5,4,3,0,250.0,train,0,H+
448.179960251,0,1000,3,1,2,1,0,5,4,3,0,250.0,train,0,H+
336.105108261,0,1000,3,1,2,1,0,5,4,3,0,250.0,train,0,H+
544.171094894,0,1000,3,1,2,1,0,5,4,3,0,250.0,train,0,H+
752.481937408,1,1000,0,1,2,1,0,5,4,3,0,250.0,train,1,H+
623.522996902,3,1000,4,1,2,1,0,5,4,3,0,250.0,train,3,H+
848.052978516,4,1000,5,0,2,1,0,5,4,3,0,250.0,train,1,H+
608.644008636,3,1000,4,1,2,1,0,5,4,3,0,250.0,train,3,H+
719.835042953,4,1000,5,1,2,1,0,5,4,3,0,250.0,train,4,H+
688.513994217,4,1000,5,1,2,1,0,5,4,3,0,250.0,train,4,H+
527.760028839,4,1000,5,1,2,1,0,5,4,3,0,250.0,train,4,H+
543.892860413,3,1000,4,1,2,1,0,5,4,3,0,250.0,train,3,H+
479.901075363,0,1000,3,1,2,1,0,5,4,3,0,250.0,train,0,H+
768.230199814,4,1000,5,1,2,1,0,5,4,3,0,250.0,train,4,H+
527.714014053,5,1000,2,1,2,1,0,5,4,3,0,250.0,train,5,H+
623.571872711,2,1000,1,1,2,1,0,5,4,3,0,250.0,train,2,H+
463.655948639,2,1000,1,1,2,1,0,5,4,3,0,250.0,train,2,H+
591.739177704,3,1000,4,1,2,1,0,5,4,3,0,250.0,train,3,H+
863.647222519,4,1000,5,1,2,1,0,5,4,3,0,250.0,train,4,H+
544.64507103,4,1000,5,0,2,1,0,5,4,3,0,250.0,train,3,H+
720.180988312,5,1000,2,1,2,1,0,5,4,3,0,250.0,train,5,H+
592.200040817,2,1000,1,1,2,1,0,5,4,3,0,250.0,train,2,H+
463.646888733,5,1000,2,1,2,1,0,5,4,3,0,250.0,train,5,H+
848.212003708,1,1000,0,1,2,1,0,5,4,3,0,250.0,train,1,H+
384.207963943,1,1000,0,1,2,1,0,5,4,3,0,250.0,train,1,H+
431.985139847,1,1000,0,1,2,1,0,5,4,3,0,250.0,train,1,H+
496.140956879,5,1000,2,1,2,1,0,5,4,3,0,250.0,train,5,H+
479.772090912,5,1000,2,1,2,1,0,5,4,3,0,250.0,train,5,H+
544.451951981,1,1000,0,1,2,1,0,5,4,3,0,250.0,train,1,H+
607.789039612,3,1000,4,1,2,1,0,5,4,3,0,250.0,train,3,H+
607.517004013,0,1000,3,1,2,1,0,5,4,3,0,250.0,train,0,H+
752.262115479,1,1000,0,1,2,1,0,5,4,3,0,250.0,train,1,H+
607.743024826,1,1000,0,1,2,1,0,5,4,3,0,250.0,train,1,H+
751.723051071,2,1000,1,1,2,1,0,5,4,3,0,250.0,train,2,H+
543.75910759,3,1000,4,1,2,1,0,5,4,3,0,250.0,train,3,H+
543.802022934,5,1000,2,1,2,1,0,5,4,3,0,250.0,train,5,H+
544.672012329,0,1000,3,1,2,1,0,5,4,3,0,250.0,train,0,H+
592.167139053,1,1000,0,1,2,1,0,5,4,3,0,250.0,train,1,H+
495.428085327,5,1000,2,1,2,1,0,5,4,3,0,250.0,train,5,H+
655.94291687,1,1000,0,1,2,1,0,5,4,3,0,250.0,train,1,H+
624.159097672,4,1000,5,0,2,1,0,5,4,3,0,250.0,train,0,H+
512.146949768,0,1000,3,1,2,1,0,5,4,3,0,250.0,train,0,H+
432.101011276,0,1000,3,1,2,1,0,5,4,3,0,250.0,train,0,H+
496.104955673,5,1000,2,1,2,1,0,5,4,3,0,250.0,train,5,H+
607.877969742,3,1000,4,1,2,1,0,5,4,3,0,250.0,train,3,H+
672.286987305,1,1000,0,1,2,1,0,5,4,3,0,250.0,train,1,H+
431.69093132,0,1000,3,1,2,1,0,5,4,3,0,250.0,train,0,H+
448.207855225,5,1000,2,1,2,1,0,5,4,3,0,250.0,train,5,H+
591.970920563,4,1000,5,0,2,1,0,5,4,3,0,250.0,train,1,H+
559.61894989,3,1000,4,1,2,1,0,5,4,3,0,250.0,train,3,H+
576.586961746,3,1000,4,1,2,1,0,5,4,3,0,250.0,train,3,H+
480.232000351,0,1000,3,1,2,1,0,5,4,3,0,250.0,train,0,H+
559.934854507,4,1000,5,1,2,1,0,5,4,3,0,250.0,train,4,H+
752.002000809,2,1000,1,1,2,1,0,5,4,3,0,250.0,train,2,H+
511.72709465,0,1000,3,1,2,1,0,5,4,3,0,250.0,train,0,H+
528.247833252,5,1000,2,1,2,1,0,5,4,3,0,250.0,train,5,H+
832.15379715,4,1000,5,1,2,1,0,5,4,3,0,250.0,train,4,H+
608.187198639,2,1000,1,1,2,1,0,5,4,3,0,250.0,train,2,H+
528.150081635,2,1000,1,1,2,1,0,5,4,3,0,250.0,train,2,H+
608.196020126,4,1000,5,1,2,1,0,5,4,3,0,250.0,train,4,H+
528.257846832,5,1000,2,1,2,1,0,5,4,3,0,250.0,train,5,H+
512.264966965,2,1000,1,1,2,1,0,5,4,3,0,250.0,train,2,H+
832.296133041,1,1000,0,1,2,1,0,5,4,3,0,250.0,train,1,H+
1168.07985306,3,1000,4,1,2,1,0,5,4,3,0,250.0,train,3,H+
527.979135513,0,1000,3,1,2,1,0,5,4,3,0,250.0,train,0,H+
639.756917953,2,1000,1,1,2,1,0,5,4,3,0,250.0,train,2,H+
415.842056274,2,1000,1,1,2,1,0,5,4,3,0,250.0,train,2,H+
544.126987457,1,1000,0,1,2,1,0,5,4,3,0,250.0,train,1,H+
480.185985565,5,1000,2,1,2,1,0,5,4,3,0,250.0,train,5,H+
528.076887131,3,1000,4,1,2,1,0,5,4,3,0,250.0,train,3,H+
448.057174683,0,1000,3,1,2,1,0,5,4,3,0,250.0,train,0,H+
848.243951797,1,1000,0,1,2,1,0,5,4,3,0,250.0,train,1,H+
432.31010437,1,1000,0,1,2,1,0,5,4,3,0,250.0,train,1,H+
656.119823456,4,1000,5,1,2,1,0,5,4,3,0,250.0,train,4,H+
592.328071594,5,1000,2,1,2,1,0,5,4,3,0,250.0,train,5,H+
591.889858246,3,1000,4,1,2,1,0,5,4,3,0,250.0,train,3,H+
448.185920715,5,1000,2,1,2,1,0,5,4,3,0,250.0,train,5,H+
543.904066086,2,1000,1,0,2,1,0,5,4,3,0,250.0,train,1,H+
463.116168976,5,1000,2,1,2,1,0,5,4,3,0,250.0,train,5,H+
591.419935226,0,1000,3,1,2,1,0,5,4,3,0,250.0,train,0,H+
591.700077057,2,1000,1,1,2,1,0,5,4,3,0,250.0,train,2,H+
639.563083649,1,1000,0,1,2,1,0,5,4,3,0,250.0,train,1,H+
527.590036392,5,1000,2,1,2,1,0,5,4,3,0,250.0,train,5,H+
1056.2980175,4,1000,5,1,2,1,0,5,4,3,0,250.0,train,4,H+
528.044939041,4,1000,5,1,2,1,0,5,4,3,0,250.0,train,4,H+
736.226081848,1,1000,0,1,2,1,0,5,4,3,0,250.0,train,1,H+
640.217065811,3,1000,4,1,2,1,0,5,4,3,0,250.0,train,3,H+
479.893922806,5,1000,2,1,2,1,0,5,4,3,0,250.0,train,5,H+
640.239953995,2,1000,1,1,2,1,0,5,4,3,0,250.0,train,2,H+
559.97800827,3,1000,4,1,2,1,0,5,4,3,0,250.0,train,3,H+
543.724060059,5,1000,2,1,2,1,0,5,4,3,0,250.0,train,5,H+
624.226808548,4,1000,5,1,2,1,0,5,4,3,0,250.0,train,4,H+
560.142993927,0,1000,3,1,2,1,0,5,4,3,0,250.0,train,0,H+
1423.84696007,3,1000,4,1,2,1,0,5,4,3,0,250.0,train,3,H+
1151.33404732,1,1000,0,1,2,1,0,5,4,3,0,250.0,train,1,H+
479.955911636,1,1000,0,1,2,1,0,5,4,3,0,250.0,train,1,H+
432.210922241,1,1000,0,1,2,1,0,5,4,3,0,250.0,train,1,H+
448.2421875,1,1000,0,1,2,1,0,5,4,3,0,250.0,train,1,H+
768.039941788,2,1000,1,1,2,1,0,5,4,3,0,250.0,train,2,H+
607.609987259,0,1000,3,1,2,1,0,5,4,3,0,250.0,train,0,H+
527.95290947,0,1000,3,1,2,1,0,5,4,3,0,250.0,train,0,H+
528.568983078,2,1000,1,1,2,1,0,5,4,3,0,250.0,train,2,H+
592.169046402,1,1000,0,1,2,1,0,5,4,3,0,250.0,train,1,H+
720.304012299,1,1000,0,1,2,1,0,5,4,3,0,250.0,train,1,H+
736.225128174,5,1000,2,0,2,1,0,5,4,3,0,250.0,train,3,H+
608.054161072,1,1000,0,1,2,1,0,5,4,3,0,250.0,train,1,H+
656.227827072,2,1000,1,1,2,1,0,5,4,3,0,250.0,train,2,H+
496.266126633,0,1000,3,1,2,1,0,5,4,3,0,250.0,train,0,H+
432.106018066,5,1000,2,1,2,1,0,5,4,3,0,250.0,train,5,H+
511.972904205,0,1000,3,1,2,1,0,5,4,3,0,250.0,train,0,H+
576.642036438,2,1000,1,1,2,1,0,5,4,3,0,250.0,train,2,H+
544.629096985,2,1000,1,1,2,1,0,5,4,3,0,250.0,train,2,H+
560.623168945,5,1000,2,1,2,1,0,5,4,3,0,250.0,train,5,H+
591.860055923,1,1000,0,1,2,1,0,5,4,3,0,250.0,train,1,H+
415.684938431,1,1000,0,1,2,1,0,5,4,3,0,250.0,train,1,H+
496.624946594,0,1000,3,1,2,1,0,5,4,3,0,250.0,train,0,H+
480.593204498,5,1000,2,1,2,1,0,5,4,3,0,250.0,train,5,H+
736.636161804,4,1000,5,1,2,1,0,5,4,3,0,250.0,train,4,H+
336.699008942,4,1000,5,1,2,1,0,5,4,3,0,250.0,train,4,H+
496.253013611,2,1000,1,1,2,1,0,5,4,3,0,250.0,train,2,H+
432.192087173,5,1000,2,1,2,1,0,5,4,3,0,250.0,train,5,H+
688.173055649,1,1000,0,1,2,1,0,5,4,3,0,250.0,train,1,H+
512.132883072,0,1000,3,1,2,1,0,5,4,3,0,250.0,train,0,H+
591.958999634,5,1000,2,1,2,1,0,5,4,3,0,250.0,train,5,H+
640.173196793,4,1000,5,1,2,1,0,5,4,3,0,250.0,train,4,H+
592.163085938,3,1000,4,1,2,1,0,5,4,3,0,250.0,train,3,H+
480.118989944,0,1000,3,1,2,1,0,5,4,3,0,250.0,train,0,H+
560.189008713,3,1000,4,1,2,1,0,5,4,3,0,250.0,train,3,H+
736.159086227,1,1000,0,1,2,1,0,5,4,3,0,250.0,train,1,H+
544.191837311,3,1000,4,1,2,1,0,5,4,3,0,250.0,train,3,H+
592.213153839,3,1000,4,1,2,1,0,5,4,3,0,250.0,train,3,H+
656.125068665,5,1000,2,1,2,1,0,5,4,3,0,250.0,train,5,H+
752.179861069,1,1000,0,1,2,1,0,5,4,3,0,250.0,train,1,H+
480.14998436,5,1000,2,1,2,1,0,5,4,3,0,250.0,train,5,H+
464.138031006,1,1000,0,1,2,1,0,5,4,3,0,250.0,train,1,H+
512.10308075,0,1000,3,1,2,1,0,5,4,3,0,250.0,train,0,H+
704.184055328,4,1000,5,1,2,1,0,5,4,3,0,250.0,train,4,H+
528.209924698,3,1000,4,1,2,1,0,5,4,3,0,250.0,train,3,H+
608.104944229,3,1000,4,1,2,1,0,5,4,3,0,250.0,train,3,H+
592.242956161,2,1000,1,1,2,1,0,5,4,3,0,250.0,train,2,H+
752.285957336,1,1000,0,1,2,1,0,5,4,3,0,250.0,train,1,H+
432.226896286,1,1000,0,1,2,1,0,5,4,3,0,250.0,train,1,H+
544.272899628,2,1000,1,1,2,1,0,5,4,3,0,250.0,train,2,H+
528.247117996,5,1000,2,1,2,1,0,5,4,3,0,250.0,train,5,H+
624.805927277,5,1000,2,1,2,1,0,5,4,3,0,250.0,train,5,H+
560.219049454,2,1000,1,1,2,1,0,5,4,3,0,250.0,train,2,H+
816.174983978,4,1000,5,1,2,1,0,5,4,3,0,250.0,train,4,H+
672.169923782,4,1000,5,1,2,1,0,5,4,3,0,250.0,train,4,H+
576.093196869,1,1000,0,1,2,1,0,5,4,3,0,250.0,train,1,H+
495.985031128,0,1000,3,1,2,1,0,5,4,3,0,250.0,train,0,H+
1216.05420113,1,1000,0,1,2,1,0,5,4,3,0,250.0,train,1,H+
591.875076294,4,1000,5,1,2,1,0,5,4,3,0,250.0,train,4,H+
656.273841858,5,1000,2,1,2,1,0,5,4,3,0,250.0,train,5,H+
576.094150543,5,1000,2,1,2,1,0,5,4,3,0,250.0,train,5,H+
720.174074173,4,1000,5,1,2,1,0,5,4,3,0,250.0,train,4,H+
592.164039612,5,1000,2,1,2,1,0,5,4,3,0,250.0,train,5,H+
640.687942505,2,1000,1,1,2,1,0,5,4,3,0,250.0,train,2,H+
688.611030579,1,1000,0,1,2,1,0,5,4,3,0,250.0,train,1,H+
576.115846634,1,1000,0,1,2,1,0,5,4,3,0,250.0,train,1,H+
576.148033142,4,1000,5,1,2,1,0,5,4,3,0,250.0,train,4,H+
544.255018234,2,1000,1,1,2,1,0,5,4,3,0,250.0,train,2,H+
560.283184052,2,1000,1,1,2,1,0,5,4,3,0,250.0,train,2,H+
496.220111847,3,1000,4,0,2,1,0,5,4,3,0,250.0,train,4,H+
496.065855026,3,1000,4,1,2,1,0,5,4,3,0,250.0,train,3,H+
495.759010315,5,1000,2,1,2,1,0,5,4,3,0,250.0,train,5,H+
576.255083084,4,1000,5,1,2,1,0,5,4,3,0,250.0,train,4,H+
575.808048248,3,1000,4,1,2,1,0,5,4,3,0,250.0,train,3,H+
560.002088547,4,1000,5,1,2,1,0,5,4,3,0,250.0,train,4,H+
528.161048889,0,1000,3,1,2,1,0,5,4,3,0,250.0,train,0,H+
480.213165283,0,1000,3,1,2,1,0,5,4,3,0,250.0,train,0,H+
672.248840332,1,1000,0,1,2,1,0,5,4,3,0,250.0,train,1,H+
495.800018311,3,1000,4,1,2,1,0,5,4,3,0,250.0,train,3,H+
928.195953369,1,1000,0,1,2,1,0,5,4,3,0,250.0,train,1,H+
736.097812653,4,1000,5,1,2,1,0,5,4,3,0,250.0,train,4,H+
464.154958725,1,1000,0,1,2,1,0,5,4,3,0,250.0,train,1,H+
416.213989258,1,1000,0,0,2,1,0,5,4,3,0,250.0,train,4,H+
528.220176697,3,1000,4,1,2,1,0,5,4,3,0,250.0,train,3,H+
624.245882034,4,1000,5,1,2,1,0,5,4,3,0,250.0,train,4,H+
607.912063599,2,1000,1,1,2,1,0,5,4,3,0,250.0,train,2,H+
576.333999634,2,1000,1,1,2,1,0,5,4,3,0,250.0,train,2,H+
528.251171112,0,1000,3,1,2,1,0,5,4,3,0,250.0,train,0,H+
592.23985672,0,1000,3,1,2,1,0,5,4,3,0,250.0,train,0,H+
832.195043564,4,1000,5,1,2,1,0,5,4,3,0,250.0,train,4,H+
544.246912003,1,1000,0,1,2,1,0,5,4,3,0,250.0,train,1,H+
576.154947281,3,1000,4,1,2,1,0,5,4,3,0,250.0,train,3,H+
511.963844299,5,1000,2,1,2,1,0,5,4,3,0,250.0,train,5,H+
592.190027237,2,1000,1,1,2,1,0,5,4,3,0,250.0,train,2,H+
576.014995575,0,1000,3,1,2,1,0,5,4,3,0,250.0,train,0,H+
640.228033066,5,1000,2,1,2,1,0,5,4,3,0,250.0,train,5,H+
671.917915344,4,1000,5,1,2,1,0,5,4,3,0,250.0,train,4,H+
544.041872025,3,1000,4,1,2,1,0,5,4,3,0,250.0,train,3,H+
447.890043259,5,1000,2,1,2,1,0,5,4,3,0,250.0,train,5,H+
640.109062195,4,1000,5,1,2,1,0,5,4,3,0,250.0,train,4,H+
480.226039886,5,1000,2,1,2,1,0,5,4,3,0,250.0,train,5,H+
1231.79888725,4,1000,5,1,2,1,0,5,4,3,0,250.0,test,4,H+
528.048992157,2,1000,1,1,2,1,0,5,4,3,0,250.0,test,2,H+
608.052015305,1,1000,0,0,2,1,0,5,4,3,0,250.0,test,4,H+
480.206012726,5,1000,2,1,2,1,0,5,4,3,0,250.0,test,5,H+
624.336957932,4,1000,5,1,2,1,0,5,4,3,0,250.0,test,4,H+
496.299982071,0,1000,3,1,2,1,0,5,4,3,0,250.0,test,0,H+
511.910200119,5,1000,2,1,2,1,0,5,4,3,0,250.0,test,5,H+
496.162891388,5,1000,2,1,2,1,0,5,4,3,0,250.0,test,5,H+
544.209957123,2,1000,1,1,2,1,0,5,4,3,0,250.0,test,2,H+
448.185920715,0,1000,3,1,2,1,0,5,4,3,0,250.0,test,0,H+
672.602891922,3,1000,4,1,2,1,0,5,4,3,0,250.0,test,3,H+
480.062961578,2,1000,1,0,2,1,0,5,4,3,0,250.0,test,1,H+
880.070924759,4,1000,5,1,2,1,0,5,4,3,0,250.0,test,4,H+
640.020847321,1,1000,0,1,2,1,0,5,4,3,0,250.0,test,1,H+
528.09381485,2,1000,1,1,2,1,0,5,4,3,0,250.0,test,2,H+
384.620189667,0,1000,3,1,2,1,0,5,4,3,0,250.0,test,0,H+
559.64589119,2,1000,1,1,2,1,0,5,4,3,0,250.0,test,2,H+
559.824943542,4,1000,5,1,2,1,0,5,4,3,0,250.0,test,4,H+
479.839086533,4,1000,5,1,2,1,0,5,4,3,0,250.0,test,4,H+
559.271097183,4,1000,5,1,2,1,0,5,4,3,0,250.0,test,4,H+
527.359962463,0,1000,3,1,2,1,0,5,4,3,0,250.0,test,0,H+
592.056035995,5,1000,2,0,2,1,0,5,4,3,0,250.0,test,2,H+
640.023946762,1,1000,0,1,2,1,0,5,4,3,0,250.0,test,1,H+
511.665821075,4,1000,5,1,2,1,0,5,4,3,0,250.0,test,4,H+
480.619907379,1,1000,0,1,2,1,0,5,4,3,0,250.0,test,1,H+
496.611118317,0,1000,3,1,2,1,0,5,4,3,0,250.0,test,0,H+
527.786970139,0,1000,3,1,2,1,0,5,4,3,0,250.0,test,0,H+
544.546842575,4,1000,5,1,2,1,0,5,4,3,0,250.0,test,4,H+
575.721025467,1,1000,0,1,2,1,0,5,4,3,0,250.0,test,1,H+
640.214920044,1,1000,0,1,2,1,0,5,4,3,0,250.0,test,1,H+
576.294183731,3,1000,4,1,2,1,0,5,4,3,0,250.0,test,3,H+
640.146970749,5,1000,2,1,2,1,0,5,4,3,0,250.0,test,5,H+
512.177944183,0,1000,3,1,2,1,0,5,4,3,0,250.0,test,0,H+
671.994924545,1,1000,0,1,2,1,0,5,4,3,0,250.0,test,1,H+
545.094966888,3,1000,4,1,2,1,0,5,4,3,0,250.0,test,3,H+
559.569835663,4,1000,5,1,2,1,0,5,4,3,0,250.0,test,4,H+
591.825008392,3,1000,4,1,2,1,0,5,4,3,0,250.0,test,3,H+
576.663017273,0,1000,3,1,2,1,0,5,4,3,0,250.0,test,0,H+
512.64500618,3,1000,4,0,2,1,0,5,4,3,0,250.0,test,4,H+
528.007984161,4,1000,5,1,2,1,0,5,4,3,0,250.0,test,4,H+
575.819969177,2,1000,1,1,2,1,0,5,4,3,0,250.0,test,2,H+
543.650865555,4,1000,5,1,2,1,0,5,4,3,0,250.0,test,4,H+
479.803085327,2,1000,1,1,2,1,0,5,4,3,0,250.0,test,2,H+
368.437051773,0,1000,3,1,2,1,0,5,4,3,0,250.0,test,0,H+
320.311069489,0,1000,3,1,2,1,0,5,4,3,0,250.0,test,0,H+
480.171203613,3,1000,4,1,2,1,0,5,4,3,0,250.0,test,3,H+
512.129068375,2,1000,1,1,2,1,0,5,4,3,0,250.0,test,2,H+
544.10982132,4,1000,5,1,2,1,0,5,4,3,0,250.0,test,4,H+
543.758869171,5,1000,2,1,2,1,0,5,4,3,0,250.0,test,5,H+
671.741962433,1,1000,0,0,2,1,0,5,4,3,0,250.0,test,4,H+
575.641155243,3,1000,4,1,2,1,0,5,4,3,0,250.0,test,3,H+
575.163125992,2,1000,1,1,2,1,0,5,4,3,0,250.0,test,2,H+
1040.16804695,1,1000,0,1,2,1,0,5,4,3,0,250.0,test,1,H+
432.062149048,1,1000,0,1,2,1,0,5,4,3,0,250.0,test,1,H+
544.188022614,2,1000,1,1,2,1,0,5,4,3,0,250.0,test,2,H+
592.518091202,0,1000,3,1,2,1,0,5,4,3,0,250.0,test,0,H+
480.629920959,5,1000,2,1,2,1,0,5,4,3,0,250.0,test,5,H+
624.614953995,4,1000,5,1,2,1,0,5,4,3,0,250.0,test,4,H+
480.015039444,0,1000,3,1,2,1,0,5,4,3,0,250.0,test,0,H+
480.01909256,2,1000,1,1,2,1,0,5,4,3,0,250.0,test,2,H+
592.585086823,4,1000,5,1,2,1,0,5,4,3,0,250.0,test,4,H+
591.950893402,4,1000,5,1,2,1,0,5,4,3,0,250.0,test,4,H+
624.144077301,1,1000,0,1,2,1,0,5,4,3,0,250.0,test,1,H+
576.110124588,3,1000,4,1,2,1,0,5,4,3,0,250.0,test,3,H+
544.114112854,0,1000,3,1,2,1,0,5,4,3,0,250.0,test,0,H+
512.110948563,2,1000,1,1,2,1,0,5,4,3,0,250.0,test,2,H+
544.1801548,5,1000,2,1,2,1,0,5,4,3,0,250.0,test,5,H+
479.649066925,4,1000,5,1,2,1,0,5,4,3,0,250.0,test,4,H+
592.323064804,3,1000,4,1,2,1,0,5,4,3,0,250.0,test,3,H+
544.158935547,4,1000,5,1,2,1,0,5,4,3,0,250.0,test,4,H+
480.104923248,0,1000,3,1,2,1,0,5,4,3,0,250.0,test,0,H+
560.213088989,5,1000,2,1,2,1,0,5,4,3,0,250.0,test,5,H+
512.142896652,0,1000,3,1,2,1,0,5,4,3,0,250.0,test,0,H+
560.14585495,2,1000,1,1,2,1,0,5,4,3,0,250.0,test,2,H+
512.246847153,3,1000,4,1,2,1,0,5,4,3,0,250.0,test,3,H+
656.275033951,1,1000,0,1,2,1,0,5,4,3,0,250.0,test,1,H+
640.266895294,5,1000,2,1,2,1,0,5,4,3,0,250.0,test,5,H+
464.159965515,5,1000,2,1,2,1,0,5,4,3,0,250.0,test,5,H+
688.155174255,1,1000,0,1,2,1,0,5,4,3,0,250.0,test,1,H+
559.57698822,2,1000,1,1,2,1,0,5,4,3,0,250.0,test,2,H+
528.033971786,3,1000,4,1,2,1,0,5,4,3,0,250.0,test,3,H+
495.864152908,3,1000,4,1,2,1,0,5,4,3,0,250.0,test,3,H+
528.049945831,0,1000,3,1,2,1,0,5,4,3,0,250.0,test,0,H+
543.713092804,3,1000,4,1,2,1,0,5,4,3,0,250.0,test,3,H+
576.229095459,4,1000,5,1,2,1,0,5,4,3,0,250.0,test,4,H+
511.986970901,0,1000,3,1,2,1,0,5,4,3,0,250.0,test,0,H+
512.24899292,5,1000,2,1,2,1,0,5,4,3,0,250.0,test,5,H+
479.975938797,5,1000,2,1,2,1,0,5,4,3,0,250.0,test,5,H+
496.10710144,4,1000,5,1,2,1,0,5,4,3,0,250.0,test,4,H+
479.831933975,3,1000,4,1,2,1,0,5,4,3,0,250.0,test,3,H+
592.231988907,1,1000,0,0,2,1,0,5,4,3,0,250.0,test,4,H+
496.114969254,5,1000,2,1,2,1,0,5,4,3,0,250.0,test,5,H+
576.267957687,1,1000,0,1,2,1,0,5,4,3,0,250.0,test,1,H+
432.182788849,3,1000,4,0,2,1,0,5,4,3,0,250.0,test,4,H+
656.090974808,5,1000,2,1,2,1,0,5,4,3,0,250.0,test,5,H+
592.15593338,5,1000,2,1,2,1,0,5,4,3,0,250.0,test,5,H+
336.207866669,5,1000,2,1,2,1,0,5,4,3,0,250.0,test,5,H+
512.079000473,5,1000,2,1,2,1,0,5,4,3,0,250.0,test,5,H+
480.28588295,0,1000,3,1,2,1,0,5,4,3,0,250.0,test,0,H+
576.157093048,3,1000,4,1,2,1,0,5,4,3,0,250.0,test,3,H+
880.203962326,1,1000,0,1,2,1,0,5,4,3,0,250.0,test,1,H+
624.1710186,3,1000,4,1,2,1,0,5,4,3,0,250.0,test,3,H+
464.108943939,3,1000,4,1,2,1,0,5,4,3,0,250.0,test,3,H+
608.196973801,1,1000,0,1,2,1,0,5,4,3,0,250.0,test,1,H+
528.138160706,3,1000,4,1,2,1,0,5,4,3,0,250.0,test,3,H+
512.179136276,2,1000,1,0,2,1,0,5,4,3,0,250.0,test,1,H+
528.182983398,2,1000,1,1,2,1,0,5,4,3,0,250.0,test,2,H+
512.17007637,0,1000,3,1,2,1,0,5,4,3,0,250.0,test,0,H+
496.231079102,0,1000,3,1,2,1,0,5,4,3,0,250.0,test,0,H+
576.165914536,0,1000,3,1,2,1,0,5,4,3,0,250.0,test,0,H+
624.168872833,4,1000,5,1,2,1,0,5,4,3,0,250.0,test,4,H+
512.191057205,2,1000,1,1,2,1,0,5,4,3,0,250.0,test,2,H+
656.147956848,1,1000,0,1,2,1,0,5,4,3,0,250.0,test,1,H+
544.152975082,3,1000,4,1,2,1,0,5,4,3,0,250.0,test,3,H+
512.627124786,5,1000,2,1,2,1,0,5,4,3,0,250.0,test,5,H+
704.213857651,1,1000,0,0,2,1,0,5,4,3,0,250.0,test,4,H+
528.202056885,3,1000,4,1,2,1,0,5,4,3,0,250.0,test,3,H+
543.768882751,0,1000,3,1,2,1,0,5,4,3,0,250.0,test,0,H+
944.221973419,1,1000,0,1,2,1,0,5,4,3,0,250.0,test,1,H+
432.032108307,1,1000,0,1,2,1,0,5,4,3,0,250.0,test,1,H+
528.222084045,4,1000,5,1,2,1,0,5,4,3,0,250.0,test,4,H+
512.171983719,1,1000,0,1,2,1,0,5,4,3,0,250.0,test,1,H+
608.090877533,2,1000,1,1,2,1,0,5,4,3,0,250.0,test,2,H+
608.155965805,3,1000,4,1,2,1,0,5,4,3,0,250.0,test,3,H+
560.214996338,5,1000,2,1,2,1,0,5,4,3,0,250.0,test,5,H+
496.197938919,2,1000,1,1,2,1,0,5,4,3,0,250.0,test,2,H+
544.239044189,3,1000,4,1,2,1,0,5,4,3,0,250.0,test,3,H+
544.142961502,5,1000,2,1,2,1,0,5,4,3,0,250.0,test,5,H+
640.263080597,1,1000,0,1,2,1,0,5,4,3,0,250.0,test,1,H+
480.201005936,2,1000,1,1,2,1,0,5,4,3,0,250.0,test,2,H+
495.702028275,3,1000,4,1,2,1,0,5,4,3,0,250.0,test,3,H+
496.179103851,0,1000,3,1,2,1,0,5,4,3,0,250.0,test,0,H+
544.687986374,1,1000,0,1,2,1,0,5,4,3,0,250.0,test,1,H+
607.857942581,5,1000,2,1,2,1,0,5,4,3,0,250.0,test,5,H+
560.375928879,2,1000,1,1,2,1,0,5,4,3,0,250.0,test,2,H+
655.759811401,0,1000,3,1,2,1,0,5,4,3,0,250.0,test,0,H+
640.663146973,0,1000,3,1,2,1,0,5,4,3,0,250.0,test,0,H+
576.164007187,2,1000,1,1,2,1,0,5,4,3,0,250.0,test,2,H+
560.189962387,5,1000,2,1,2,1,0,5,4,3,0,250.0,test,5,H+
624.064922333,1,1000,0,1,2,1,0,5,4,3,0,250.0,test,1,H+
480.240821838,0,1000,3,1,2,1,0,5,4,3,0,250.0,test,0,H+
448.238134384,0,1000,3,1,2,1,0,5,4,3,0,250.0,test,0,H+
496.110916138,1,1000,0,1,2,1,0,5,4,3,0,250.0,test,1,H+
527.933120728,1,1000,0,1,2,1,0,5,4,3,0,250.0,test,1,H+
528.031110764,3,1000,4,1,2,1,0,5,4,3,0,250.0,test,3,H+
479.846954346,5,1000,2,1,2,1,0,5,4,3,0,250.0,test,5,H+
384.160995483,3,1000,4,0,2,1,0,5,4,3,0,250.0,test,5,H+
48.2671260834,3,1000,4,0,2,1,0,5,4,3,0,250.0,test,1,H+
160.200119019,2,1000,1,0,2,1,0,5,4,3,0,250.0,test,3,H+
496.063947678,5,1000,2,1,2,1,0,5,4,3,0,250.0,test,5,H+
543.906927109,0,1000,3,1,2,1,0,5,4,3,0,250.0,test,0,H+
512.406110764,1,1000,0,1,2,1,0,5,4,3,0,250.0,test,1,H+
544.224023819,2,1000,1,1,2,1,0,5,4,3,0,250.0,test,2,H+
1120.1608181,4,1000,5,1,2,1,0,5,4,3,0,250.0,test,4,H+
560.222864151,2,1000,1,1,2,1,0,5,4,3,0,250.0,test,2,H+
496.253013611,0,1000,3,1,2,1,0,5,4,3,0,250.0,test,0,H+
576.323986053,2,1000,1,1,2,1,0,5,4,3,0,250.0,test,2,H+
624.134063721,4,1000,5,1,2,1,0,5,4,3,0,250.0,test,4,H+
527.68611908,2,1000,1,1,2,1,0,5,4,3,0,250.0,test,2,H+
544.65007782,0,1000,3,1,2,1,0,5,4,3,0,250.0,test,0,H+
496.654987335,3,1000,4,1,2,1,0,5,4,3,0,250.0,test,3,H+
656.512975693,1,1000,0,1,2,1,0,5,4,3,0,250.0,test,1,H+
528.337001801,2,1000,1,1,2,1,0,5,4,3,0,250.0,test,2,H+
560.188055038,5,1000,2,1,2,1,0,5,4,3,0,250.0,test,5,H+
592.231035233,4,1000,5,1,2,1,0,5,4,3,0,250.0,test,4,H+
576.328039169,5,1000,2,1,2,1,0,5,4,3,0,250.0,test,5,H+
592.334985733,3,1000,4,1,2,1,0,5,4,3,0,250.0,test,3,H+
688.414096832,1,1000,0,0,2,1,0,5,4,3,0,250.0,test,4,H+
575.99401474,2,1000,1,1,2,1,0,5,4,3,0,250.0,test,2,H+
608.17694664,2,1000,1,1,2,1,0,5,4,3,0,250.0,test,2,H+
560.140132904,3,1000,4,1,2,1,0,5,4,3,0,250.0,test,3,H+
480.079889297,3,1000,4,1,2,1,0,5,4,3,0,250.0,test,3,H+
480.20195961,2,1000,1,1,2,1,0,5,4,3,0,250.0,test,2,H+
624.053955078,1,1000,0,1,2,1,0,5,4,3,0,250.0,test,1,H+
624.229192734,2,1000,1,1,2,1,0,5,4,3,0,250.0,test,2,H+
560.257911682,0,1000,3,1,2,1,0,5,4,3,0,250.0,test,0,H+
528.213024139,5,1000,2,1,2,1,0,5,4,3,0,250.0,test,5,H+
496.315956116,2,1000,1,1,2,1,0,5,4,3,0,250.0,test,2,H+
528.265953064,3,1000,4,1,2,1,0,5,4,3,0,250.0,test,3,H+
480.240106583,3,1000,4,1,2,1,0,5,4,3,0,250.0,test,3,H+
624.264001846,1,1000,0,1,2,1,0,5,4,3,0,250.0,test,1,H+
560.166835785,0,1000,3,1,2,1,0,5,4,3,0,250.0,test,0,H+
480.206012726,1,1000,0,1,2,1,0,5,4,3,0,250.0,test,1,H+
576.042175293,4,1000,5,0,2,1,0,5,4,3,0,250.0,test,1,H+
560.130834579,3,1000,4,1,2,1,0,5,4,3,0,250.0,test,3,H+
480.263948441,3,1000,4,1,2,1,0,5,4,3,0,250.0,test,3,H+
624.238967896,5,1000,2,1,2,1,0,5,4,3,0,250.0,test,5,H+
544.157028198,3,1000,4,1,2,1,0,5,4,3,0,250.0,test,3,H+
527.915000916,5,1000,2,1,2,1,0,5,4,3,0,250.0,test,5,H+
576.225042343,3,1000,4,1,2,1,0,5,4,3,0,250.0,test,3,H+
576.238870621,4,1000,5,1,2,1,0,5,4,3,0,250.0,test,4,H+
640.328884125,1,1000,0,1,2,1,0,5,4,3,0,250.0,test,1,H+
576.268911362,0,1000,3,1,2,1,0,5,4,3,0,250.0,test,0,H+
512.307882309,5,1000,2,1,2,1,0,5,4,3,0,250.0,test,5,H+
896.296977997,2,1000,1,1,2,1,0,5,4,3,0,250.0,test,2,H+
672.259807587,1,1000,0,1,2,1,0,5,4,3,0,250.0,test,1,H+
464.209079742,1,1000,0,1,2,1,0,5,4,3,0,250.0,test,1,H+
528.234004974,4,1000,5,1,2,1,0,5,4,3,0,250.0,test,4,H+
496.607065201,4,1000,5,1,2,1,0,5,4,3,0,250.0,test,4,H+
544.260978699,3,1000,4,1,2,1,0,5,4,3,0,250.0,test,3,H+
512.223005295,5,1000,2,1,2,1,0,5,4,3,0,250.0,test,5,H+
480.324029922,0,1000,3,1,2,1,0,5,4,3,0,250.0,test,0,H+
464.221954346,5,1000,2,1,2,1,0,5,4,3,0,250.0,test,5,H+
400.251150131,5,1000,2,1,2,1,0,5,4,3,0,250.0,test,5,H+
544.131040573,1,1000,0,1,2,1,0,5,4,3,0,250.0,test,1,H+
544.179916382,4,1000,5,1,2,1,0,5,4,3,0,250.0,test,4,H+
511.929988861,5,1000,2,1,2,1,0,5,4,3,0,250.0,test,5,H+
575.670003891,5,1000,2,1,2,1,0,5,4,3,0,250.0,test,5,H+
576.66516304,1,1000,0,0,2,1,0,5,4,3,0,250.0,test,4,H+
576.763868332,2,1000,1,1,2,1,0,5,4,3,0,250.0,test,2,H+
544.628858566,3,1000,4,1,2,1,0,5,4,3,0,250.0,test,3,H+
527.688980103,0,1000,3,1,2,1,0,5,4,3,0,250.0,test,0,H+
496.093988419,0,1000,3,1,2,1,0,5,4,3,0,250.0,test,0,H+
528.199911118,3,1000,4,1,2,1,0,5,4,3,0,250.0,test,3,H+
464.252948761,0,1000,3,1,2,1,0,5,4,3,0,250.0,test,0,H+
512.092113495,3,1000,4,1,2,1,0,5,4,3,0,250.0,test,3,H+
512.006998062,0,1000,3,1,2,1,0,5,4,3,0,250.0,test,0,H+
592.232942581,4,1000,5,1,2,1,0,5,4,3,0,250.0,test,4,H+
511.922121048,5,1000,2,1,2,1,0,5,4,3,0,250.0,test,5,H+
544.173002243,0,1000,3,1,2,1,0,5,4,3,0,250.0,test,0,H+
671.756982803,1,1000,0,1,2,1,0,5,4,3,0,250.0,test,1,H+
480.114936829,5,1000,2,1,2,1,0,5,4,3,0,250.0,test,5,H+
560.194969177,1,1000,0,1,2,1,0,5,4,3,0,250.0,test,1,H+
608.157157898,1,1000,0,1,2,1,0,5,4,3,0,250.0,test,1,H+
576.143980026,3,1000,4,1,2,1,0,5,4,3,0,250.0,test,3,H+
496.129989624,4,1000,5,0,2,1,0,5,4,3,0,250.0,test,5,H+
528.100967407,0,1000,3,1,2,1,0,5,4,3,0,250.0,test,0,H+
575.980901718,4,1000,5,1,2,1,0,5,4,3,0,250.0,test,4,H+
640.264034271,4,1000,5,1,2,1,0,5,4,3,0,250.0,test,4,H+
592.10896492,4,1000,5,1,2,1,0,5,4,3,0,250.0,test,4,H+
592.236995697,1,1000,0,1,2,1,0,5,4,3,0,250.0,test,1,H+
576.21216774,3,1000,4,1,2,1,0,5,4,3,0,250.0,test,3,H+
560.237884521,1,1000,0,1,2,1,0,5,4,3,0,250.0,test,1,H+
496.105909348,4,1000,5,1,2,1,0,5,4,3,0,250.0,test,4,H+
624.110937119,3,1000,4,1,2,1,0,5,4,3,0,250.0,test,3,H+
528.073787689,0,1000,3,1,2,1,0,5,4,3,0,250.0,test,0,H+
560.266017914,0,1000,3,0,2,1,0,5,4,3,0,250.0,test,1,H+
528.017044067,5,1000,2,1,2,1,0,5,4,3,0,250.0,test,5,H+
528.073072433,3,1000,4,1,2,1,0,5,4,3,0,250.0,test,3,H+
560.243844986,4,1000,5,1,2,1,0,5,4,3,0,250.0,test,4,H+
559.93103981,0,1000,3,1,2,1,0,5,4,3,0,250.0,test,0,H+
464.671134949,3,1000,4,1,2,1,0,5,4,3,0,250.0,test,3,H+
559.859991074,4,1000,5,1,2,1,0,5,4,3,0,250.0,test,4,H+
624.196052551,3,1000,4,1,2,1,0,5,4,3,0,250.0,test,3,H+
511.981964111,0,1000,3,1,2,1,0,5,4,3,0,250.0,test,0,H+
544.023036957,3,1000,4,1,2,1,0,5,4,3,0,250.0,test,3,H+
560.105085373,2,1000,1,0,2,1,0,5,4,3,0,250.0,test,1,H+
528.092861176,5,1000,2,1,2,1,0,5,4,3,0,250.0,test,5,H+
704.634904861,1,1000,0,1,2,1,0,5,4,3,0,250.0,test,1,H+
464.062929153,1,1000,0,0,2,1,0,5,4,3,0,250.0,test,2,H+
