RT,correct_response,ms-prestimblank,curstim,correct,SRmap_1,SRmap_0,SRmap_3,SRmap_2,SRmap_5,SRmap_4,ms-precue,ntrials,type,response,condition
5263.7219429,5,1000,4,1,3,0,1,4,2,5,0,250.0,train,5,M
1232.06305504,0,1000,0,1,3,0,1,4,2,5,0,250.0,train,0,M
896.155834198,5,1000,4,1,3,0,1,4,2,5,0,250.0,train,5,M
1936.08999252,3,1000,1,0,3,0,1,4,2,5,0,250.0,train,4,M
976.390838623,0,1000,0,1,3,0,1,4,2,5,0,250.0,train,0,M
1504.15205956,2,1000,5,0,3,0,1,4,2,5,0,250.0,train,3,M
1728.18088531,5,1000,4,1,3,0,1,4,2,5,0,250.0,train,5,M
832.232952118,1,1000,3,1,3,0,1,4,2,5,0,250.0,train,1,M
832.147836685,0,1000,0,1,3,0,1,4,2,5,0,250.0,train,0,M
832.277059555,1,1000,3,1,3,0,1,4,2,5,0,250.0,train,1,M
1040.28582573,5,1000,4,1,3,0,1,4,2,5,0,250.0,train,5,M
672.368049622,5,1000,4,1,3,0,1,4,2,5,0,250.0,train,5,M
1040.26317596,2,1000,5,1,3,0,1,4,2,5,0,250.0,train,2,M
784.18302536,5,1000,4,1,3,0,1,4,2,5,0,250.0,train,5,M
1008.14795494,3,1000,1,1,3,0,1,4,2,5,0,250.0,train,3,M
1040.30299187,4,1000,2,1,3,0,1,4,2,5,0,250.0,train,4,M
752.33912468,1,1000,3,1,3,0,1,4,2,5,0,250.0,train,1,M
816.334009171,5,1000,4,1,3,0,1,4,2,5,0,250.0,train,5,M
928.375005722,2,1000,5,1,3,0,1,4,2,5,0,250.0,train,2,M
1024.37496185,1,1000,3,1,3,0,1,4,2,5,0,250.0,train,1,M
752.269983292,4,1000,2,1,3,0,1,4,2,5,0,250.0,train,4,M
736.307859421,3,1000,1,0,3,0,1,4,2,5,0,250.0,train,2,M
1056.34689331,3,1000,1,1,3,0,1,4,2,5,0,250.0,train,3,M
912.358045578,3,1000,1,1,3,0,1,4,2,5,0,250.0,train,3,M
752.289772034,4,1000,2,1,3,0,1,4,2,5,0,250.0,train,4,M
1024.34802055,2,1000,5,1,3,0,1,4,2,5,0,250.0,train,2,M
800.356864929,1,1000,3,1,3,0,1,4,2,5,0,250.0,train,1,M
672.32298851,1,1000,3,1,3,0,1,4,2,5,0,250.0,train,1,M
752.315998077,5,1000,4,1,3,0,1,4,2,5,0,250.0,train,5,M
1104.45404053,2,1000,5,1,3,0,1,4,2,5,0,250.0,train,2,M
880.47003746,4,1000,2,1,3,0,1,4,2,5,0,250.0,train,4,M
832.376003265,2,1000,5,1,3,0,1,4,2,5,0,250.0,train,2,M
688.343048096,1,1000,3,1,3,0,1,4,2,5,0,250.0,train,1,M
768.354177475,5,1000,4,1,3,0,1,4,2,5,0,250.0,train,5,M
768.339157104,0,1000,0,1,3,0,1,4,2,5,0,250.0,train,0,M
1008.34202766,4,1000,2,1,3,0,1,4,2,5,0,250.0,train,4,M
704.301118851,1,1000,3,1,3,0,1,4,2,5,0,250.0,train,1,M
1248.32391739,3,1000,1,1,3,0,1,4,2,5,0,250.0,train,3,M
672.287940979,1,1000,3,1,3,0,1,4,2,5,0,250.0,train,1,M
719.372034073,5,1000,4,1,3,0,1,4,2,5,0,250.0,train,5,M
1055.21893501,3,1000,1,1,3,0,1,4,2,5,0,250.0,train,3,M
720.217943192,3,1000,1,1,3,0,1,4,2,5,0,250.0,train,3,M
688.274145126,4,1000,2,1,3,0,1,4,2,5,0,250.0,train,4,M
592.230081558,1,1000,3,1,3,0,1,4,2,5,0,250.0,train,1,M
688.179969788,0,1000,0,1,3,0,1,4,2,5,0,250.0,train,0,M
784.719944,4,1000,2,1,3,0,1,4,2,5,0,250.0,train,4,M
736.206054688,1,1000,3,1,3,0,1,4,2,5,0,250.0,train,1,M
864.06493187,2,1000,5,1,3,0,1,4,2,5,0,250.0,train,2,M
624.197006226,1,1000,3,1,3,0,1,4,2,5,0,250.0,train,1,M
927.756786346,5,1000,4,1,3,0,1,4,2,5,0,250.0,train,5,M
608.391046524,5,1000,4,1,3,0,1,4,2,5,0,250.0,train,5,M
736.464977264,2,1000,5,1,3,0,1,4,2,5,0,250.0,train,2,M
784.192085266,5,1000,4,1,3,0,1,4,2,5,0,250.0,train,5,M
640.267133713,3,1000,1,0,3,0,1,4,2,5,0,250.0,train,2,M
672.340869904,3,1000,1,1,3,0,1,4,2,5,0,250.0,train,3,M
768.269062042,4,1000,2,1,3,0,1,4,2,5,0,250.0,train,4,M
864.325046539,1,1000,3,1,3,0,1,4,2,5,0,250.0,train,1,M
976.394176483,2,1000,5,1,3,0,1,4,2,5,0,250.0,train,2,M
832.314014435,2,1000,5,1,3,0,1,4,2,5,0,250.0,train,2,M
816.283941269,5,1000,4,1,3,0,1,4,2,5,0,250.0,train,5,M
847.962856293,0,1000,0,1,3,0,1,4,2,5,0,250.0,train,0,M
656.270027161,1,1000,3,1,3,0,1,4,2,5,0,250.0,train,1,M
784.356117249,2,1000,5,1,3,0,1,4,2,5,0,250.0,train,2,M
736.354112625,0,1000,0,1,3,0,1,4,2,5,0,250.0,train,0,M
816.136837006,4,1000,2,1,3,0,1,4,2,5,0,250.0,train,4,M
752.476930618,2,1000,5,1,3,0,1,4,2,5,0,250.0,train,2,M
704.316139221,5,1000,4,1,3,0,1,4,2,5,0,250.0,train,5,M
688.274860382,2,1000,5,1,3,0,1,4,2,5,0,250.0,train,2,M
688.545942307,4,1000,2,1,3,0,1,4,2,5,0,250.0,train,4,M
800.472974777,5,1000,4,1,3,0,1,4,2,5,0,250.0,train,5,M
640.327215195,4,1000,2,1,3,0,1,4,2,5,0,250.0,train,4,M
816.383123398,1,1000,3,1,3,0,1,4,2,5,0,250.0,train,1,M
640.345096588,3,1000,1,1,3,0,1,4,2,5,0,250.0,train,3,M
607.916116714,2,1000,5,1,3,0,1,4,2,5,0,250.0,train,2,M
816.412210464,5,1000,4,1,3,0,1,4,2,5,0,250.0,train,5,M
848.500013351,3,1000,1,1,3,0,1,4,2,5,0,250.0,train,3,M
832.394123077,5,1000,4,1,3,0,1,4,2,5,0,250.0,train,5,M
624.309062958,4,1000,2,1,3,0,1,4,2,5,0,250.0,train,4,M
720.180034637,0,1000,0,1,3,0,1,4,2,5,0,250.0,train,0,M
704.274892807,0,1000,0,1,3,0,1,4,2,5,0,250.0,train,0,M
720.139980316,0,1000,0,1,3,0,1,4,2,5,0,250.0,train,0,M
784.389019012,2,1000,5,0,3,0,1,4,2,5,0,250.0,train,3,M
992.247104645,4,1000,2,1,3,0,1,4,2,5,0,250.0,train,4,M
608.351945877,0,1000,0,1,3,0,1,4,2,5,0,250.0,train,0,M
896.279096603,4,1000,2,1,3,0,1,4,2,5,0,250.0,train,4,M
688.266992569,0,1000,0,1,3,0,1,4,2,5,0,250.0,train,0,M
960.388183594,4,1000,2,1,3,0,1,4,2,5,0,250.0,train,4,M
800.285816193,1,1000,3,1,3,0,1,4,2,5,0,250.0,train,1,M
783.96987915,2,1000,5,1,3,0,1,4,2,5,0,250.0,train,2,M
992.475032806,5,1000,4,1,3,0,1,4,2,5,0,250.0,train,5,M
864.416122437,5,1000,4,1,3,0,1,4,2,5,0,250.0,train,5,M
944.319009781,3,1000,1,1,3,0,1,4,2,5,0,250.0,train,3,M
880.432128906,5,1000,4,1,3,0,1,4,2,5,0,250.0,train,5,M
672.348976135,1,1000,3,1,3,0,1,4,2,5,0,250.0,train,1,M
768.390893936,2,1000,5,1,3,0,1,4,2,5,0,250.0,train,2,M
864.420890808,4,1000,2,1,3,0,1,4,2,5,0,250.0,train,4,M
832.267999649,3,1000,1,1,3,0,1,4,2,5,0,250.0,train,3,M
768.312931061,1,1000,3,1,3,0,1,4,2,5,0,250.0,train,1,M
704.406023026,2,1000,5,1,3,0,1,4,2,5,0,250.0,train,2,M
560.403108597,3,1000,1,1,3,0,1,4,2,5,0,250.0,train,3,M
848.375082016,3,1000,1,1,3,0,1,4,2,5,0,250.0,train,3,M
784.368038177,3,1000,1,1,3,0,1,4,2,5,0,250.0,train,3,M
720.42798996,5,1000,4,1,3,0,1,4,2,5,0,250.0,train,5,M
896.358013153,5,1000,4,1,3,0,1,4,2,5,0,250.0,train,5,M
688.319921494,0,1000,0,1,3,0,1,4,2,5,0,250.0,train,0,M
608.234882355,0,1000,0,1,3,0,1,4,2,5,0,250.0,train,0,M
768.380880356,3,1000,1,1,3,0,1,4,2,5,0,250.0,train,3,M
752.34913826,5,1000,4,1,3,0,1,4,2,5,0,250.0,train,5,M
752.308130264,1,1000,3,1,3,0,1,4,2,5,0,250.0,train,1,M
672.297954559,4,1000,2,1,3,0,1,4,2,5,0,250.0,train,4,M
672.405004501,0,1000,0,1,3,0,1,4,2,5,0,250.0,train,0,M
944.351911545,2,1000,5,1,3,0,1,4,2,5,0,250.0,train,2,M
800.383090973,4,1000,2,1,3,0,1,4,2,5,0,250.0,train,4,M
992.365837097,5,1000,4,1,3,0,1,4,2,5,0,250.0,train,5,M
1024.42407608,3,1000,1,1,3,0,1,4,2,5,0,250.0,train,3,M
672.413110733,0,1000,0,1,3,0,1,4,2,5,0,250.0,train,0,M
688.07721138,5,1000,4,1,3,0,1,4,2,5,0,250.0,train,5,M
688.373088837,1,1000,3,1,3,0,1,4,2,5,0,250.0,train,1,M
656.304121017,4,1000,2,1,3,0,1,4,2,5,0,250.0,train,4,M
736.209869385,0,1000,0,1,3,0,1,4,2,5,0,250.0,train,0,M
656.126022339,4,1000,2,1,3,0,1,4,2,5,0,250.0,train,4,M
928.275108337,2,1000,5,1,3,0,1,4,2,5,0,250.0,train,2,M
656.276941299,4,1000,2,1,3,0,1,4,2,5,0,250.0,train,4,M
784.29889679,2,1000,5,1,3,0,1,4,2,5,0,250.0,train,2,M
560.32204628,4,1000,2,1,3,0,1,4,2,5,0,250.0,train,4,M
576.173067093,3,1000,1,1,3,0,1,4,2,5,0,250.0,train,3,M
624.224901199,0,1000,0,1,3,0,1,4,2,5,0,250.0,train,0,M
880.330085754,0,1000,0,1,3,0,1,4,2,5,0,250.0,train,0,M
1088.31810951,2,1000,5,1,3,0,1,4,2,5,0,250.0,train,2,M
736.411094666,4,1000,2,1,3,0,1,4,2,5,0,250.0,train,4,M
704.383850098,2,1000,5,1,3,0,1,4,2,5,0,250.0,train,2,M
640.05613327,0,1000,0,1,3,0,1,4,2,5,0,250.0,train,0,M
592.407941818,1,1000,3,1,3,0,1,4,2,5,0,250.0,train,1,M
576.38001442,0,1000,0,1,3,0,1,4,2,5,0,250.0,train,0,M
560.338973999,1,1000,3,1,3,0,1,4,2,5,0,250.0,train,1,M
768.260002136,4,1000,2,1,3,0,1,4,2,5,0,250.0,train,4,M
464.285135269,0,1000,0,1,3,0,1,4,2,5,0,250.0,train,0,M
720.330953598,5,1000,4,1,3,0,1,4,2,5,0,250.0,train,5,M
544.289112091,0,1000,0,1,3,0,1,4,2,5,0,250.0,train,0,M
784.430980682,3,1000,1,1,3,0,1,4,2,5,0,250.0,train,3,M
688.35401535,4,1000,2,1,3,0,1,4,2,5,0,250.0,train,4,M
736.479043961,0,1000,0,1,3,0,1,4,2,5,0,250.0,train,0,M
464.276790619,0,1000,0,1,3,0,1,4,2,5,0,250.0,train,0,M
704.384803772,5,1000,4,1,3,0,1,4,2,5,0,250.0,train,5,M
624.017953873,0,1000,0,1,3,0,1,4,2,5,0,250.0,train,0,M
640.033006668,5,1000,4,1,3,0,1,4,2,5,0,250.0,train,5,M
832.679986954,2,1000,5,1,3,0,1,4,2,5,0,250.0,train,2,M
688.24005127,5,1000,4,1,3,0,1,4,2,5,0,250.0,train,5,M
463.624954224,5,1000,4,1,3,0,1,4,2,5,0,250.0,train,5,M
1664.03388977,2,1000,5,1,3,0,1,4,2,5,0,250.0,train,2,M
639.339923859,1,1000,3,1,3,0,1,4,2,5,0,250.0,train,1,M
671.458005905,4,1000,2,1,3,0,1,4,2,5,0,250.0,train,4,M
704.380989075,5,1000,4,1,3,0,1,4,2,5,0,250.0,train,5,M
831.920146942,4,1000,2,1,3,0,1,4,2,5,0,250.0,train,4,M
608.501911163,5,1000,4,1,3,0,1,4,2,5,0,250.0,train,5,M
623.930931091,5,1000,4,1,3,0,1,4,2,5,0,250.0,train,5,M
608.299016953,4,1000,2,1,3,0,1,4,2,5,0,250.0,train,4,M
720.148086548,1,1000,3,1,3,0,1,4,2,5,0,250.0,train,1,M
784.440040588,3,1000,1,1,3,0,1,4,2,5,0,250.0,train,3,M
1136.42907143,2,1000,5,1,3,0,1,4,2,5,0,250.0,train,2,M
688.389062881,3,1000,1,1,3,0,1,4,2,5,0,250.0,train,3,M
480.287075043,2,1000,5,1,3,0,1,4,2,5,0,250.0,train,2,M
640.457868576,4,1000,2,1,3,0,1,4,2,5,0,250.0,train,4,M
560.296058655,5,1000,4,1,3,0,1,4,2,5,0,250.0,train,5,M
736.357927322,2,1000,5,1,3,0,1,4,2,5,0,250.0,train,2,M
592.417955399,1,1000,3,1,3,0,1,4,2,5,0,250.0,train,1,M
640.323877335,1,1000,3,1,3,0,1,4,2,5,0,250.0,train,1,M
640.44713974,1,1000,3,1,3,0,1,4,2,5,0,250.0,train,1,M
592.357873917,0,1000,0,1,3,0,1,4,2,5,0,250.0,train,0,M
688.370943069,5,1000,4,1,3,0,1,4,2,5,0,250.0,train,5,M
608.43706131,1,1000,3,1,3,0,1,4,2,5,0,250.0,train,1,M
704.359054565,4,1000,2,1,3,0,1,4,2,5,0,250.0,train,4,M
672.435045242,5,1000,4,1,3,0,1,4,2,5,0,250.0,train,5,M
687.787055969,2,1000,5,1,3,0,1,4,2,5,0,250.0,train,2,M
1280.45988083,4,1000,2,1,3,0,1,4,2,5,0,250.0,train,4,M
752.429962158,5,1000,4,1,3,0,1,4,2,5,0,250.0,train,5,M
1872.51281738,4,1000,2,1,3,0,1,4,2,5,0,250.0,train,4,M
560.418128967,0,1000,0,1,3,0,1,4,2,5,0,250.0,train,0,M
752.335071564,3,1000,1,1,3,0,1,4,2,5,0,250.0,train,3,M
1696.41590118,3,1000,1,1,3,0,1,4,2,5,0,250.0,train,3,M
768.519878387,5,1000,4,1,3,0,1,4,2,5,0,250.0,train,5,M
655.831813812,0,1000,0,1,3,0,1,4,2,5,0,250.0,train,0,M
720.453977585,5,1000,4,1,3,0,1,4,2,5,0,250.0,train,5,M
1216.4041996,2,1000,5,1,3,0,1,4,2,5,0,250.0,train,2,M
672.431945801,1,1000,3,1,3,0,1,4,2,5,0,250.0,train,1,M
624.434947968,0,1000,0,1,3,0,1,4,2,5,0,250.0,train,0,M
656.403064728,4,1000,2,1,3,0,1,4,2,5,0,250.0,train,4,M
768.497943878,2,1000,5,1,3,0,1,4,2,5,0,250.0,train,2,M
1392.52901077,5,1000,4,1,3,0,1,4,2,5,0,250.0,train,5,M
688.550949097,5,1000,4,1,3,0,1,4,2,5,0,250.0,train,5,M
688.26007843,0,1000,0,1,3,0,1,4,2,5,0,250.0,train,0,M
672.486782074,1,1000,3,1,3,0,1,4,2,5,0,250.0,train,1,M
672.544956207,2,1000,5,1,3,0,1,4,2,5,0,250.0,train,2,M
640.535116196,1,1000,3,1,3,0,1,4,2,5,0,250.0,train,1,M
688.472032547,5,1000,4,1,3,0,1,4,2,5,0,250.0,train,5,M
672.428131104,1,1000,3,1,3,0,1,4,2,5,0,250.0,train,1,M
656.458854675,5,1000,4,1,3,0,1,4,2,5,0,250.0,train,5,M
576.558113098,5,1000,4,1,3,0,1,4,2,5,0,250.0,train,5,M
512.506008148,5,1000,4,1,3,0,1,4,2,5,0,250.0,train,5,M
656.423807144,4,1000,2,1,3,0,1,4,2,5,0,250.0,train,4,M
560.497999191,1,1000,3,1,3,0,1,4,2,5,0,250.0,train,1,M
816.519975662,2,1000,5,1,3,0,1,4,2,5,0,250.0,train,2,M
560.446023941,3,1000,1,1,3,0,1,4,2,5,0,250.0,train,3,M
576.439857483,0,1000,0,1,3,0,1,4,2,5,0,250.0,train,0,M
608.353853226,5,1000,4,1,3,0,1,4,2,5,0,250.0,train,5,M
528.144836426,5,1000,4,1,3,0,1,4,2,5,0,250.0,train,5,M
448.358058929,5,1000,4,1,3,0,1,4,2,5,0,250.0,train,5,M
688.457012177,2,1000,5,0,3,0,1,4,2,5,0,250.0,train,3,M
704.334974289,4,1000,2,1,3,0,1,4,2,5,0,250.0,train,4,M
720.33405304,4,1000,2,1,3,0,1,4,2,5,0,250.0,train,4,M
656.453132629,4,1000,2,1,3,0,1,4,2,5,0,250.0,train,4,M
656.476974487,4,1000,2,1,3,0,1,4,2,5,0,250.0,train,4,M
592.356920242,4,1000,2,1,3,0,1,4,2,5,0,250.0,train,4,M
816.406011581,1,1000,3,1,3,0,1,4,2,5,0,250.0,train,1,M
704.231977463,2,1000,5,1,3,0,1,4,2,5,0,250.0,train,2,M
544.090986252,3,1000,1,1,3,0,1,4,2,5,0,250.0,train,3,M
799.66711998,5,1000,4,1,3,0,1,4,2,5,0,250.0,train,5,M
720.393896103,3,1000,1,1,3,0,1,4,2,5,0,250.0,train,3,M
736.525058746,4,1000,2,1,3,0,1,4,2,5,0,250.0,train,4,M
672.508955002,0,1000,0,1,3,0,1,4,2,5,0,250.0,train,0,M
704.382896423,1,1000,3,1,3,0,1,4,2,5,0,250.0,train,1,M
640.430927277,1,1000,3,1,3,0,1,4,2,5,0,250.0,train,1,M
720.375776291,5,1000,4,1,3,0,1,4,2,5,0,250.0,train,5,M
608.281850815,0,1000,0,1,3,0,1,4,2,5,0,250.0,train,0,M
608.367919922,5,1000,4,1,3,0,1,4,2,5,0,250.0,train,5,M
528.175115585,4,1000,2,1,3,0,1,4,2,5,0,250.0,train,4,M
656.483888626,2,1000,5,1,3,0,1,4,2,5,0,250.0,train,2,M
624.500989914,1,1000,3,1,3,0,1,4,2,5,0,250.0,train,1,M
560.37402153,0,1000,0,1,3,0,1,4,2,5,0,250.0,train,0,M
640.377998352,5,1000,4,1,3,0,1,4,2,5,0,250.0,train,5,M
688.354969025,5,1000,4,1,3,0,1,4,2,5,0,250.0,train,5,M
464.425086975,4,1000,2,1,3,0,1,4,2,5,0,250.0,train,4,M
512.387990952,4,1000,2,1,3,0,1,4,2,5,0,250.0,train,4,M
480.885982513,3,1000,1,1,3,0,1,4,2,5,0,250.0,train,3,M
831.400156021,4,1000,2,1,3,0,1,4,2,5,0,250.0,train,4,M
704.735994339,2,1000,5,1,3,0,1,4,2,5,0,250.0,train,2,M
528.459072113,3,1000,1,0,3,0,1,4,2,5,0,250.0,train,4,M
1008.11100006,2,1000,5,1,3,0,1,4,2,5,0,250.0,train,2,M
688.53020668,5,1000,4,1,3,0,1,4,2,5,0,250.0,train,5,M
688.485145569,5,1000,4,1,3,0,1,4,2,5,0,250.0,train,5,M
1056.56480789,3,1000,1,1,3,0,1,4,2,5,0,250.0,train,3,M
752.446174622,0,1000,0,1,3,0,1,4,2,5,0,250.0,train,0,M
720.412969589,4,1000,2,1,3,0,1,4,2,5,0,250.0,train,4,M
848.390817642,2,1000,5,1,3,0,1,4,2,5,0,250.0,train,2,M
720.491886139,5,1000,4,1,3,0,1,4,2,5,0,250.0,train,5,M
864.248037338,2,1000,5,1,3,0,1,4,2,5,0,250.0,train,2,M
528.428077698,3,1000,1,1,3,0,1,4,2,5,0,250.0,train,3,M
768.505096436,2,1000,5,1,3,0,1,4,2,5,0,250.0,train,2,M
720.478057861,3,1000,1,1,3,0,1,4,2,5,0,250.0,train,3,M
800.34995079,0,1000,0,1,3,0,1,4,2,5,0,250.0,train,0,M
49518.7520981,3,1000,1,1,3,0,1,4,2,5,0,250.0,test,3,M
3280.19499779,5,1000,4,1,3,0,1,4,2,5,0,250.0,test,5,M
2336.27009392,0,1000,0,1,3,0,1,4,2,5,0,250.0,test,0,M
1168.32780838,1,1000,3,1,3,0,1,4,2,5,0,250.0,test,1,M
928.424119949,5,1000,4,1,3,0,1,4,2,5,0,250.0,test,5,M
928.472042084,5,1000,4,1,3,0,1,4,2,5,0,250.0,test,5,M
672.297000885,5,1000,4,1,3,0,1,4,2,5,0,250.0,test,5,M
1136.48486137,2,1000,5,1,3,0,1,4,2,5,0,250.0,test,2,M
832.514047623,2,1000,5,1,3,0,1,4,2,5,0,250.0,test,2,M
1168.42603683,0,1000,0,1,3,0,1,4,2,5,0,250.0,test,0,M
1328.42898369,4,1000,2,1,3,0,1,4,2,5,0,250.0,test,4,M
848.3979702,5,1000,4,1,3,0,1,4,2,5,0,250.0,test,5,M
1087.94093132,1,1000,3,1,3,0,1,4,2,5,0,250.0,test,1,M
912.776947021,4,1000,2,1,3,0,1,4,2,5,0,250.0,test,4,M
784.431934357,4,1000,2,1,3,0,1,4,2,5,0,250.0,test,4,M
895.987033844,2,1000,5,1,3,0,1,4,2,5,0,250.0,test,2,M
719.792127609,5,1000,4,1,3,0,1,4,2,5,0,250.0,test,5,M
815.488100052,1,1000,3,1,3,0,1,4,2,5,0,250.0,test,1,M
655.997991562,4,1000,2,1,3,0,1,4,2,5,0,250.0,test,4,M
863.896846771,5,1000,4,1,3,0,1,4,2,5,0,250.0,test,5,M
1279.70314026,2,1000,5,1,3,0,1,4,2,5,0,250.0,test,2,M
639.981985092,2,1000,5,1,3,0,1,4,2,5,0,250.0,test,2,M
704.442024231,2,1000,5,1,3,0,1,4,2,5,0,250.0,test,2,M
816.445827484,2,1000,5,1,3,0,1,4,2,5,0,250.0,test,2,M
704.432964325,2,1000,5,1,3,0,1,4,2,5,0,250.0,test,2,M
640.455007553,5,1000,4,1,3,0,1,4,2,5,0,250.0,test,5,M
784.40117836,4,1000,2,1,3,0,1,4,2,5,0,250.0,test,4,M
1040.43722153,1,1000,3,1,3,0,1,4,2,5,0,250.0,test,1,M
1456.39491081,3,1000,1,1,3,0,1,4,2,5,0,250.0,test,3,M
960.361003876,4,1000,2,1,3,0,1,4,2,5,0,250.0,test,4,M
784.41119194,1,1000,3,1,3,0,1,4,2,5,0,250.0,test,1,M
800.318002701,1,1000,3,1,3,0,1,4,2,5,0,250.0,test,1,M
768.24092865,0,1000,0,1,3,0,1,4,2,5,0,250.0,test,0,M
1376.45292282,4,1000,2,1,3,0,1,4,2,5,0,250.0,test,4,M
704.428195953,5,1000,4,1,3,0,1,4,2,5,0,250.0,test,5,M
831.999063492,0,1000,0,1,3,0,1,4,2,5,0,250.0,test,0,M
544.405937195,3,1000,1,1,3,0,1,4,2,5,0,250.0,test,3,M
800.333976746,1,1000,3,1,3,0,1,4,2,5,0,250.0,test,1,M
656.263113022,5,1000,4,1,3,0,1,4,2,5,0,250.0,test,5,M
1216.37201309,1,1000,3,1,3,0,1,4,2,5,0,250.0,test,1,M
688.016891479,2,1000,5,1,3,0,1,4,2,5,0,250.0,test,2,M
608.047008514,5,1000,4,1,3,0,1,4,2,5,0,250.0,test,5,M
992.079973221,1,1000,3,0,3,0,1,4,2,5,0,250.0,test,2,M
736.740112305,0,1000,0,1,3,0,1,4,2,5,0,250.0,test,0,M
1072.65210152,2,1000,5,1,3,0,1,4,2,5,0,250.0,test,2,M
752.732992172,2,1000,5,1,3,0,1,4,2,5,0,250.0,test,2,M
1279.20293808,3,1000,1,1,3,0,1,4,2,5,0,250.0,test,3,M
1008.00299644,2,1000,5,1,3,0,1,4,2,5,0,250.0,test,2,M
767.628908157,3,1000,1,1,3,0,1,4,2,5,0,250.0,test,3,M
1423.9449501,3,1000,1,1,3,0,1,4,2,5,0,250.0,test,3,M
656.245946884,3,1000,1,1,3,0,1,4,2,5,0,250.0,test,3,M
703.969955444,1,1000,3,1,3,0,1,4,2,5,0,250.0,test,1,M
624.094963074,0,1000,0,1,3,0,1,4,2,5,0,250.0,test,0,M
736.229896545,3,1000,1,1,3,0,1,4,2,5,0,250.0,test,3,M
672.811985016,3,1000,1,1,3,0,1,4,2,5,0,250.0,test,3,M
623.948812485,5,1000,4,1,3,0,1,4,2,5,0,250.0,test,5,M
992.076873779,3,1000,1,1,3,0,1,4,2,5,0,250.0,test,3,M
704.205989838,4,1000,2,1,3,0,1,4,2,5,0,250.0,test,4,M
575.865983963,4,1000,2,1,3,0,1,4,2,5,0,250.0,test,4,M
1440.16098976,2,1000,5,1,3,0,1,4,2,5,0,250.0,test,2,M
720.263004303,0,1000,0,1,3,0,1,4,2,5,0,250.0,test,0,M
656.478881836,1,1000,3,1,3,0,1,4,2,5,0,250.0,test,1,M
640.445947647,0,1000,0,1,3,0,1,4,2,5,0,250.0,test,0,M
752.447843552,2,1000,5,0,3,0,1,4,2,5,0,250.0,test,1,M
752.317905426,3,1000,1,1,3,0,1,4,2,5,0,250.0,test,3,M
1360.36610603,3,1000,1,1,3,0,1,4,2,5,0,250.0,test,3,M
1136.40093803,1,1000,3,1,3,0,1,4,2,5,0,250.0,test,1,M
688.364982605,0,1000,0,1,3,0,1,4,2,5,0,250.0,test,0,M
1168.44010353,4,1000,2,1,3,0,1,4,2,5,0,250.0,test,4,M
720.205068588,4,1000,2,1,3,0,1,4,2,5,0,250.0,test,4,M
608.404159546,4,1000,2,1,3,0,1,4,2,5,0,250.0,test,4,M
832.324028015,2,1000,5,1,3,0,1,4,2,5,0,250.0,test,2,M
960.394859314,4,1000,2,0,3,0,1,4,2,5,0,250.0,test,3,M
1056.36906624,2,1000,5,1,3,0,1,4,2,5,0,250.0,test,2,M
752.452850342,1,1000,3,1,3,0,1,4,2,5,0,250.0,test,1,M
736.47403717,0,1000,0,1,3,0,1,4,2,5,0,250.0,test,0,M
656.519889832,5,1000,4,1,3,0,1,4,2,5,0,250.0,test,5,M
864.149093628,2,1000,5,1,3,0,1,4,2,5,0,250.0,test,2,M
640.19203186,1,1000,3,1,3,0,1,4,2,5,0,250.0,test,1,M
656.423091888,5,1000,4,1,3,0,1,4,2,5,0,250.0,test,5,M
1040.45891762,3,1000,1,1,3,0,1,4,2,5,0,250.0,test,3,M
736.359119415,2,1000,5,1,3,0,1,4,2,5,0,250.0,test,2,M
848.320007324,1,1000,3,1,3,0,1,4,2,5,0,250.0,test,1,M
1120.3391552,1,1000,3,1,3,0,1,4,2,5,0,250.0,test,1,M
1168.02406311,2,1000,5,1,3,0,1,4,2,5,0,250.0,test,2,M
1408.24985504,4,1000,2,1,3,0,1,4,2,5,0,250.0,test,4,M
816.274166107,2,1000,5,1,3,0,1,4,2,5,0,250.0,test,2,M
912.33086586,4,1000,2,1,3,0,1,4,2,5,0,250.0,test,4,M
641.174077988,5,1000,4,1,3,0,1,4,2,5,0,250.0,test,5,M
751.839876175,2,1000,5,1,3,0,1,4,2,5,0,250.0,test,2,M
752.207040787,4,1000,2,1,3,0,1,4,2,5,0,250.0,test,4,M
656.371831894,5,1000,4,1,3,0,1,4,2,5,0,250.0,test,5,M
960.301876068,2,1000,5,1,3,0,1,4,2,5,0,250.0,test,2,M
1024.27577972,1,1000,3,1,3,0,1,4,2,5,0,250.0,test,1,M
816.379070282,5,1000,4,1,3,0,1,4,2,5,0,250.0,test,5,M
656.235933304,2,1000,5,1,3,0,1,4,2,5,0,250.0,test,2,M
848.311901093,4,1000,2,1,3,0,1,4,2,5,0,250.0,test,4,M
800.389051437,5,1000,4,1,3,0,1,4,2,5,0,250.0,test,5,M
992.396831512,1,1000,3,1,3,0,1,4,2,5,0,250.0,test,1,M
736.308097839,5,1000,4,1,3,0,1,4,2,5,0,250.0,test,5,M
848.377943039,3,1000,1,1,3,0,1,4,2,5,0,250.0,test,3,M
816.37597084,1,1000,3,1,3,0,1,4,2,5,0,250.0,test,1,M
895.992994308,4,1000,2,1,3,0,1,4,2,5,0,250.0,test,4,M
816.207885742,2,1000,5,1,3,0,1,4,2,5,0,250.0,test,2,M
944.381952286,3,1000,1,1,3,0,1,4,2,5,0,250.0,test,3,M
576.43699646,3,1000,1,1,3,0,1,4,2,5,0,250.0,test,3,M
976.410865784,1,1000,3,1,3,0,1,4,2,5,0,250.0,test,1,M
848.284006119,5,1000,4,1,3,0,1,4,2,5,0,250.0,test,5,M
848.448991776,4,1000,2,1,3,0,1,4,2,5,0,250.0,test,4,M
944.344997406,2,1000,5,1,3,0,1,4,2,5,0,250.0,test,2,M
1295.61901093,0,1000,0,1,3,0,1,4,2,5,0,250.0,test,0,M
864.332914352,3,1000,1,1,3,0,1,4,2,5,0,250.0,test,3,M
768.370866776,2,1000,5,1,3,0,1,4,2,5,0,250.0,test,2,M
720.514059067,3,1000,1,1,3,0,1,4,2,5,0,250.0,test,3,M
912.482023239,2,1000,5,1,3,0,1,4,2,5,0,250.0,test,2,M
672.284126282,0,1000,0,1,3,0,1,4,2,5,0,250.0,test,0,M
640.360116959,3,1000,1,1,3,0,1,4,2,5,0,250.0,test,3,M
848.398208618,0,1000,0,1,3,0,1,4,2,5,0,250.0,test,0,M
736.439943314,4,1000,2,1,3,0,1,4,2,5,0,250.0,test,4,M
1088.47808838,0,1000,0,1,3,0,1,4,2,5,0,250.0,test,0,M
624.445915222,0,1000,0,1,3,0,1,4,2,5,0,250.0,test,0,M
736.506938934,3,1000,1,1,3,0,1,4,2,5,0,250.0,test,3,M
752.437114716,1,1000,3,1,3,0,1,4,2,5,0,250.0,test,1,M
736.407995224,0,1000,0,1,3,0,1,4,2,5,0,250.0,test,0,M
592.355012894,5,1000,4,1,3,0,1,4,2,5,0,250.0,test,5,M
704.285860062,0,1000,0,1,3,0,1,4,2,5,0,250.0,test,0,M
688.289165497,4,1000,2,1,3,0,1,4,2,5,0,250.0,test,4,M
640.367984772,0,1000,0,1,3,0,1,4,2,5,0,250.0,test,0,M
736.381053925,4,1000,2,1,3,0,1,4,2,5,0,250.0,test,4,M
688.024044037,2,1000,5,1,3,0,1,4,2,5,0,250.0,test,2,M
672.330141068,5,1000,4,1,3,0,1,4,2,5,0,250.0,test,5,M
528.27000618,5,1000,4,1,3,0,1,4,2,5,0,250.0,test,5,M
1104.30312157,2,1000,5,1,3,0,1,4,2,5,0,250.0,test,2,M
592.323064804,1,1000,3,1,3,0,1,4,2,5,0,250.0,test,1,M
688.360929489,0,1000,0,1,3,0,1,4,2,5,0,250.0,test,0,M
928.322076797,2,1000,5,1,3,0,1,4,2,5,0,250.0,test,2,M
832.310914993,3,1000,1,1,3,0,1,4,2,5,0,250.0,test,3,M
560.91594696,3,1000,1,1,3,0,1,4,2,5,0,250.0,test,3,M
752.22492218,2,1000,5,1,3,0,1,4,2,5,0,250.0,test,2,M
720.311880112,0,1000,0,1,3,0,1,4,2,5,0,250.0,test,0,M
720.184087753,4,1000,2,1,3,0,1,4,2,5,0,250.0,test,4,M
720.094919205,3,1000,1,1,3,0,1,4,2,5,0,250.0,test,3,M
736.790895462,0,1000,0,1,3,0,1,4,2,5,0,250.0,test,0,M
784.67798233,4,1000,2,1,3,0,1,4,2,5,0,250.0,test,4,M
688.756942749,2,1000,5,1,3,0,1,4,2,5,0,250.0,test,2,M
1152.45294571,4,1000,2,1,3,0,1,4,2,5,0,250.0,test,4,M
944.251060486,3,1000,1,1,3,0,1,4,2,5,0,250.0,test,3,M
704.312086105,2,1000,5,1,3,0,1,4,2,5,0,250.0,test,2,M
736.340045929,5,1000,4,1,3,0,1,4,2,5,0,250.0,test,5,M
880.37776947,2,1000,5,1,3,0,1,4,2,5,0,250.0,test,2,M
848.3710289,3,1000,1,1,3,0,1,4,2,5,0,250.0,test,3,M
1184.16500092,1,1000,3,1,3,0,1,4,2,5,0,250.0,test,1,M
848.250865936,0,1000,0,1,3,0,1,4,2,5,0,250.0,test,0,M
896.506071091,2,1000,5,1,3,0,1,4,2,5,0,250.0,test,2,M
848.343849182,4,1000,2,1,3,0,1,4,2,5,0,250.0,test,4,M
624.392986298,4,1000,2,1,3,0,1,4,2,5,0,250.0,test,4,M
592.45300293,5,1000,4,1,3,0,1,4,2,5,0,250.0,test,5,M
704.481840134,3,1000,1,1,3,0,1,4,2,5,0,250.0,test,3,M
1104.3419838,1,1000,3,1,3,0,1,4,2,5,0,250.0,test,1,M
848.176002502,3,1000,1,1,3,0,1,4,2,5,0,250.0,test,3,M
720.106124878,3,1000,1,1,3,0,1,4,2,5,0,250.0,test,3,M
688.283205032,0,1000,0,1,3,0,1,4,2,5,0,250.0,test,0,M
607.988119125,1,1000,3,1,3,0,1,4,2,5,0,250.0,test,1,M
608.177900314,0,1000,0,1,3,0,1,4,2,5,0,250.0,test,0,M
736.064910889,0,1000,0,1,3,0,1,4,2,5,0,250.0,test,0,M
464.359998703,1,1000,3,1,3,0,1,4,2,5,0,250.0,test,1,M
1232.43808746,4,1000,2,1,3,0,1,4,2,5,0,250.0,test,4,M
656.330108643,5,1000,4,1,3,0,1,4,2,5,0,250.0,test,5,M
688.400030136,0,1000,0,1,3,0,1,4,2,5,0,250.0,test,0,M
1104.30502892,1,1000,3,1,3,0,1,4,2,5,0,250.0,test,1,M
784.450054169,3,1000,1,1,3,0,1,4,2,5,0,250.0,test,3,M
720.478057861,2,1000,5,1,3,0,1,4,2,5,0,250.0,test,2,M
640.422821045,3,1000,1,1,3,0,1,4,2,5,0,250.0,test,3,M
608.271837234,5,1000,4,1,3,0,1,4,2,5,0,250.0,test,5,M
576.427936554,5,1000,4,1,3,0,1,4,2,5,0,250.0,test,5,M
672.343015671,1,1000,3,1,3,0,1,4,2,5,0,250.0,test,1,M
624.25494194,1,1000,3,1,3,0,1,4,2,5,0,250.0,test,1,M
512.166976929,1,1000,3,1,3,0,1,4,2,5,0,250.0,test,1,M
688.340187073,3,1000,1,1,3,0,1,4,2,5,0,250.0,test,3,M
640.543937683,5,1000,4,1,3,0,1,4,2,5,0,250.0,test,5,M
864.229917526,2,1000,5,1,3,0,1,4,2,5,0,250.0,test,2,M
656.480073929,1,1000,3,1,3,0,1,4,2,5,0,250.0,test,1,M
672.465085983,3,1000,1,1,3,0,1,4,2,5,0,250.0,test,3,M
704.402923584,0,1000,0,1,3,0,1,4,2,5,0,250.0,test,0,M
752.429962158,0,1000,0,1,3,0,1,4,2,5,0,250.0,test,0,M
480.422973633,0,1000,0,1,3,0,1,4,2,5,0,250.0,test,0,M
640.444993973,1,1000,3,1,3,0,1,4,2,5,0,250.0,test,1,M
672.403097153,5,1000,4,1,3,0,1,4,2,5,0,250.0,test,5,M
655.71308136,5,1000,4,1,3,0,1,4,2,5,0,250.0,test,5,M
768.176078796,0,1000,0,1,3,0,1,4,2,5,0,250.0,test,0,M
816.253900528,4,1000,2,1,3,0,1,4,2,5,0,250.0,test,4,M
656.175851822,0,1000,0,1,3,0,1,4,2,5,0,250.0,test,0,M
607.954025269,1,1000,3,1,3,0,1,4,2,5,0,250.0,test,1,M
688.191175461,0,1000,0,1,3,0,1,4,2,5,0,250.0,test,0,M
704.442024231,3,1000,1,1,3,0,1,4,2,5,0,250.0,test,3,M
960.470914841,2,1000,5,1,3,0,1,4,2,5,0,250.0,test,2,M
608.461856842,0,1000,0,1,3,0,1,4,2,5,0,250.0,test,0,M
608.1199646,1,1000,3,1,3,0,1,4,2,5,0,250.0,test,1,M
784.405946732,1,1000,3,1,3,0,1,4,2,5,0,250.0,test,1,M
704.336166382,0,1000,0,1,3,0,1,4,2,5,0,250.0,test,0,M
608.199119568,1,1000,3,1,3,0,1,4,2,5,0,250.0,test,1,M
672.429084778,1,1000,3,1,3,0,1,4,2,5,0,250.0,test,1,M
640.43712616,3,1000,1,1,3,0,1,4,2,5,0,250.0,test,3,M
608.48903656,1,1000,3,1,3,0,1,4,2,5,0,250.0,test,1,M
704.346895218,4,1000,2,1,3,0,1,4,2,5,0,250.0,test,4,M
656.43119812,0,1000,0,1,3,0,1,4,2,5,0,250.0,test,0,M
512.398958206,0,1000,0,1,3,0,1,4,2,5,0,250.0,test,0,M
656.419038773,4,1000,2,1,3,0,1,4,2,5,0,250.0,test,4,M
560.292005539,5,1000,4,1,3,0,1,4,2,5,0,250.0,test,5,M
704.395055771,2,1000,5,1,3,0,1,4,2,5,0,250.0,test,2,M
720.414161682,0,1000,0,1,3,0,1,4,2,5,0,250.0,test,0,M
704.426050186,4,1000,2,1,3,0,1,4,2,5,0,250.0,test,4,M
624.352216721,4,1000,2,1,3,0,1,4,2,5,0,250.0,test,4,M
1216.36199951,1,1000,3,1,3,0,1,4,2,5,0,250.0,test,1,M
736.484050751,5,1000,4,1,3,0,1,4,2,5,0,250.0,test,5,M
592.167854309,3,1000,1,1,3,0,1,4,2,5,0,250.0,test,3,M
576.469898224,5,1000,4,1,3,0,1,4,2,5,0,250.0,test,5,M
720.03698349,4,1000,2,1,3,0,1,4,2,5,0,250.0,test,4,M
624.438047409,5,1000,4,1,3,0,1,4,2,5,0,250.0,test,5,M
720.160961151,3,1000,1,1,3,0,1,4,2,5,0,250.0,test,3,M
560.402870178,5,1000,4,1,3,0,1,4,2,5,0,250.0,test,5,M
720.353841782,4,1000,2,1,3,0,1,4,2,5,0,250.0,test,4,M
592.252016068,5,1000,4,1,3,0,1,4,2,5,0,250.0,test,5,M
784.554004669,1,1000,3,0,3,0,1,4,2,5,0,250.0,test,2,M
783.782958984,4,1000,2,1,3,0,1,4,2,5,0,250.0,test,4,M
736.325025558,0,1000,0,1,3,0,1,4,2,5,0,250.0,test,0,M
656.512975693,4,1000,2,1,3,0,1,4,2,5,0,250.0,test,4,M
672.482013702,3,1000,1,1,3,0,1,4,2,5,0,250.0,test,3,M
784.471035004,0,1000,0,1,3,0,1,4,2,5,0,250.0,test,0,M
672.17206955,4,1000,2,1,3,0,1,4,2,5,0,250.0,test,4,M
608.453989029,3,1000,1,1,3,0,1,4,2,5,0,250.0,test,3,M
528.007984161,3,1000,1,1,3,0,1,4,2,5,0,250.0,test,3,M
1232.432127,1,1000,3,1,3,0,1,4,2,5,0,250.0,test,1,M
608.336925507,1,1000,3,1,3,0,1,4,2,5,0,250.0,test,1,M
528.159856796,2,1000,5,1,3,0,1,4,2,5,0,250.0,test,2,M
960.410833359,4,1000,2,1,3,0,1,4,2,5,0,250.0,test,4,M
544.417858124,4,1000,2,1,3,0,1,4,2,5,0,250.0,test,4,M
688.395023346,5,1000,4,1,3,0,1,4,2,5,0,250.0,test,5,M
976.421833038,1,1000,3,1,3,0,1,4,2,5,0,250.0,test,1,M
512.376070023,1,1000,3,1,3,0,1,4,2,5,0,250.0,test,1,M
576.44200325,1,1000,3,1,3,0,1,4,2,5,0,250.0,test,1,M
656.394004822,0,1000,0,1,3,0,1,4,2,5,0,250.0,test,0,M
880.42807579,1,1000,3,1,3,0,1,4,2,5,0,250.0,test,1,M
704.469203949,2,1000,5,1,3,0,1,4,2,5,0,250.0,test,2,M
800.490856171,5,1000,4,1,3,0,1,4,2,5,0,250.0,test,5,M
848.359823227,1,1000,3,1,3,0,1,4,2,5,0,250.0,test,1,M
496.469974518,2,1000,5,1,3,0,1,4,2,5,0,250.0,test,2,M
576.266050339,5,1000,4,1,3,0,1,4,2,5,0,250.0,test,5,M
688.292980194,4,1000,2,1,3,0,1,4,2,5,0,250.0,test,4,M
704.405069351,5,1000,4,1,3,0,1,4,2,5,0,250.0,test,5,M
