RT,correct_response,ms-prestimblank,curstim,correct,SRmap_1,SRmap_0,SRmap_3,SRmap_2,SRmap_5,SRmap_4,ms-precue,ntrials,type,response,condition
7038.09499741,2,600,1,1,2,1,5,4,0,3,400,250.0,train,2,E+
910.211086273,4,600,2,1,2,1,5,4,0,3,400,250.0,train,4,E+
670.460939407,1,600,0,1,2,1,5,4,0,3,400,250.0,train,1,E+
414.91484642,2,600,1,0,2,1,5,4,0,3,400,250.0,train,1,E+
767.503023148,5,600,3,1,2,1,5,4,0,3,400,250.0,train,5,E+
349.637985229,5,600,3,0,2,1,5,4,0,3,400,250.0,train,4,E+
1599.06196594,5,600,3,1,2,1,5,4,0,3,400,250.0,train,5,E+
1823.1408596,3,600,4,1,2,1,5,4,0,3,400,250.0,train,3,E+
847.12600708,4,600,2,1,2,1,5,4,0,3,400,250.0,train,4,E+
463.401079178,1,600,0,1,2,1,5,4,0,3,400,250.0,train,1,E+
382.117033005,5,600,3,1,2,1,5,4,0,3,400,250.0,train,5,E+
159.515857697,0,600,5,1,2,1,5,4,0,3,400,250.0,train,0,E+
158.174037933,2,600,1,1,2,1,5,4,0,3,400,250.0,train,2,E+
110.831975937,0,600,5,1,2,1,5,4,0,3,400,250.0,train,0,E+
79.274892807,0,600,5,1,2,1,5,4,0,3,400,250.0,train,0,E+
575.446844101,0,600,5,1,2,1,5,4,0,3,400,250.0,train,0,E+
255.47504425,2,600,1,1,2,1,5,4,0,3,400,250.0,train,2,E+
79.5140266418,1,600,0,1,2,1,5,4,0,3,400,250.0,train,1,E+
191.521167755,5,600,3,1,2,1,5,4,0,3,400,250.0,train,5,E+
31.5270423889,5,600,3,1,2,1,5,4,0,3,400,250.0,train,5,E+
15.6548023224,0,600,5,1,2,1,5,4,0,3,400,250.0,train,0,E+
383.461952209,0,600,5,1,2,1,5,4,0,3,400,250.0,train,0,E+
479.569911957,3,600,4,1,2,1,5,4,0,3,400,250.0,train,3,E+
95.6518650055,4,600,2,1,2,1,5,4,0,3,400,250.0,train,4,E+
286.828041077,2,600,1,0,2,1,5,4,0,3,400,250.0,train,1,E+
143.066167831,5,600,3,1,2,1,5,4,0,3,400,250.0,train,5,E+
175.476789474,1,600,0,0,2,1,5,4,0,3,400,250.0,train,0,E+
319.541931152,5,600,3,1,2,1,5,4,0,3,400,250.0,train,5,E+
559.491872787,1,600,0,1,2,1,5,4,0,3,400,250.0,train,1,E+
575.4570961,4,600,2,1,2,1,5,4,0,3,400,250.0,train,4,E+
414.72697258,2,600,1,1,2,1,5,4,0,3,400,250.0,train,2,E+
494.899988174,3,600,4,1,2,1,5,4,0,3,400,250.0,train,3,E+
511.584997177,2,600,1,1,2,1,5,4,0,3,400,250.0,train,2,E+
175.049066544,1,600,0,1,2,1,5,4,0,3,400,250.0,train,1,E+
63.5530948639,1,600,0,1,2,1,5,4,0,3,400,250.0,train,1,E+
30.2929878235,1,600,0,1,2,1,5,4,0,3,400,250.0,train,1,E+
78.4969329834,1,600,0,1,2,1,5,4,0,3,400,250.0,train,1,E+
606.997013092,5,600,3,1,2,1,5,4,0,3,400,250.0,train,5,E+
190.082073212,0,600,5,1,2,1,5,4,0,3,400,250.0,train,0,E+
207.463979721,0,600,5,1,2,1,5,4,0,3,400,250.0,train,0,E+
302.935123444,5,600,3,1,2,1,5,4,0,3,400,250.0,train,5,E+
430.830001831,5,600,3,1,2,1,5,4,0,3,400,250.0,train,5,E+
174.644947052,5,600,3,1,2,1,5,4,0,3,400,250.0,train,5,E+
351.463079453,3,600,4,1,2,1,5,4,0,3,400,250.0,train,3,E+
94.8178768158,3,600,4,1,2,1,5,4,0,3,400,250.0,train,3,E+
334.575176239,5,600,3,1,2,1,5,4,0,3,400,250.0,train,5,E+
431.150913239,1,600,0,1,2,1,5,4,0,3,400,250.0,train,1,E+
335.170030594,5,600,3,1,2,1,5,4,0,3,400,250.0,train,5,E+
239.46595192,3,600,4,1,2,1,5,4,0,3,400,250.0,train,3,E+
255.527973175,4,600,2,1,2,1,5,4,0,3,400,250.0,train,4,E+
207.478046417,0,600,5,1,2,1,5,4,0,3,400,250.0,train,0,E+
110.700845718,0,600,5,1,2,1,5,4,0,3,400,250.0,train,0,E+
175.789833069,5,600,3,1,2,1,5,4,0,3,400,250.0,train,5,E+
222.506046295,4,600,2,1,2,1,5,4,0,3,400,250.0,train,4,E+
127.641916275,4,600,2,1,2,1,5,4,0,3,400,250.0,train,4,E+
590.334177017,4,600,2,1,2,1,5,4,0,3,400,250.0,train,4,E+
255.541086197,2,600,1,1,2,1,5,4,0,3,400,250.0,train,2,E+
159.516096115,1,600,0,1,2,1,5,4,0,3,400,250.0,train,1,E+
239.551067352,5,600,3,1,2,1,5,4,0,3,400,250.0,train,5,E+
430.924892426,0,600,5,1,2,1,5,4,0,3,400,250.0,train,0,E+
110.960006714,5,600,3,1,2,1,5,4,0,3,400,250.0,train,5,E+
63.6658668518,4,600,2,1,2,1,5,4,0,3,400,250.0,train,4,E+
191.524982452,5,600,3,1,2,1,5,4,0,3,400,250.0,train,5,E+
175.622940063,2,600,1,1,2,1,5,4,0,3,400,250.0,train,2,E+
127.644062042,2,600,1,1,2,1,5,4,0,3,400,250.0,train,2,E+
62.4148845673,3,600,4,0,2,1,5,4,0,3,400,250.0,train,4,E+
207.397937775,5,600,3,1,2,1,5,4,0,3,400,250.0,train,5,E+
207.617044449,4,600,2,1,2,1,5,4,0,3,400,250.0,train,4,E+
111.152887344,5,600,3,1,2,1,5,4,0,3,400,250.0,train,5,E+
287.49704361,5,600,3,1,2,1,5,4,0,3,400,250.0,train,5,E+
79.6318054199,4,600,2,1,2,1,5,4,0,3,400,250.0,train,4,E+
431.59198761,1,600,0,1,2,1,5,4,0,3,400,250.0,train,1,E+
174.757957458,5,600,3,1,2,1,5,4,0,3,400,250.0,train,5,E+
127.178907394,5,600,3,1,2,1,5,4,0,3,400,250.0,train,5,E+
190.398931503,4,600,2,1,2,1,5,4,0,3,400,250.0,train,4,E+
223.583936691,3,600,4,1,2,1,5,4,0,3,400,250.0,train,3,E+
159.464836121,0,600,5,1,2,1,5,4,0,3,400,250.0,train,0,E+
286.381006241,4,600,2,1,2,1,5,4,0,3,400,250.0,train,4,E+
110.386133194,4,600,2,1,2,1,5,4,0,3,400,250.0,train,4,E+
47.2271442413,4,600,2,1,2,1,5,4,0,3,400,250.0,train,4,E+
47.5058555603,5,600,3,1,2,1,5,4,0,3,400,250.0,train,5,E+
14.7531032562,4,600,2,0,2,1,5,4,0,3,400,250.0,train,3,E+
526.258945465,4,600,2,1,2,1,5,4,0,3,400,250.0,train,4,E+
143.192052841,0,600,5,1,2,1,5,4,0,3,400,250.0,train,0,E+
175.073862076,5,600,3,1,2,1,5,4,0,3,400,250.0,train,5,E+
62.2680187225,0,600,5,1,2,1,5,4,0,3,400,250.0,train,0,E+
174.190998077,4,600,2,1,2,1,5,4,0,3,400,250.0,train,4,E+
270.338058472,3,600,4,1,2,1,5,4,0,3,400,250.0,train,3,E+
222.684144974,2,600,1,1,2,1,5,4,0,3,400,250.0,train,2,E+
334.563016891,3,600,4,1,2,1,5,4,0,3,400,250.0,train,3,E+
94.3160057068,3,600,4,1,2,1,5,4,0,3,400,250.0,train,3,E+
414.160013199,3,600,4,1,2,1,5,4,0,3,400,250.0,train,3,E+
350.275039673,2,600,1,1,2,1,5,4,0,3,400,250.0,train,2,E+
15.5999660492,3,600,4,1,2,1,5,4,0,3,400,250.0,train,3,E+
111.486911774,1,600,0,1,2,1,5,4,0,3,400,250.0,train,1,E+
78.9020061493,0,600,5,1,2,1,5,4,0,3,400,250.0,train,0,E+
239.06493187,4,600,2,1,2,1,5,4,0,3,400,250.0,train,4,E+
63.2839202881,3,600,4,1,2,1,5,4,0,3,400,250.0,train,3,E+
62.7131462097,3,600,4,1,2,1,5,4,0,3,400,250.0,train,3,E+
15.6219005585,4,600,2,1,2,1,5,4,0,3,400,250.0,train,4,E+
143.547058105,4,600,2,1,2,1,5,4,0,3,400,250.0,train,4,E+
159.565925598,3,600,4,1,2,1,5,4,0,3,400,250.0,train,3,E+
78.3989429474,3,600,4,1,2,1,5,4,0,3,400,250.0,train,3,E+
270.563840866,2,600,1,1,2,1,5,4,0,3,400,250.0,train,2,E+
158.660888672,0,600,5,1,2,1,5,4,0,3,400,250.0,train,0,E+
175.624847412,5,600,3,1,2,1,5,4,0,3,400,250.0,train,5,E+
590.908050537,5,600,3,1,2,1,5,4,0,3,400,250.0,train,5,E+
222.398042679,3,600,4,1,2,1,5,4,0,3,400,250.0,train,3,E+
319.452047348,5,600,3,1,2,1,5,4,0,3,400,250.0,train,5,E+
479.59280014,0,600,5,1,2,1,5,4,0,3,400,250.0,train,0,E+
287.614107132,5,600,3,1,2,1,5,4,0,3,400,250.0,train,5,E+
351.468086243,3,600,4,1,2,1,5,4,0,3,400,250.0,train,3,E+
335.484027863,1,600,0,1,2,1,5,4,0,3,400,250.0,train,1,E+
191.442012787,5,600,3,1,2,1,5,4,0,3,400,250.0,train,5,E+
479.462862015,4,600,2,0,2,1,5,4,0,3,400,250.0,train,3,E+
335.484027863,3,600,4,1,2,1,5,4,0,3,400,250.0,train,3,E+
237.721920013,1,600,0,1,2,1,5,4,0,3,400,250.0,train,1,E+
478.622913361,1,600,0,1,2,1,5,4,0,3,400,250.0,train,1,E+
111.473083496,0,600,5,1,2,1,5,4,0,3,400,250.0,train,0,E+
190.421819687,0,600,5,1,2,1,5,4,0,3,400,250.0,train,0,E+
111.289978027,2,600,1,1,2,1,5,4,0,3,400,250.0,train,2,E+
143.244981766,2,600,1,1,2,1,5,4,0,3,400,250.0,train,2,E+
238.718032837,3,600,4,1,2,1,5,4,0,3,400,250.0,train,3,E+
78.5000324249,0,600,5,1,2,1,5,4,0,3,400,250.0,train,0,E+
62.4179840088,0,600,5,1,2,1,5,4,0,3,400,250.0,train,0,E+
174.085855484,3,600,4,1,2,1,5,4,0,3,400,250.0,train,3,E+
158.189058304,4,600,2,1,2,1,5,4,0,3,400,250.0,train,4,E+
0.0309944152832,0,600,5,1,2,1,5,4,0,3,400,250.0,train,0,E+
94.3400859833,5,600,3,1,2,1,5,4,0,3,400,250.0,train,5,E+
446.916818619,5,600,3,1,2,1,5,4,0,3,400,250.0,train,5,E+
127.076864243,2,600,1,1,2,1,5,4,0,3,400,250.0,train,2,E+
62.4120235443,3,600,4,1,2,1,5,4,0,3,400,250.0,train,3,E+
63.6520385742,0,600,5,1,2,1,5,4,0,3,400,250.0,train,0,E+
126.506090164,5,600,3,1,2,1,5,4,0,3,400,250.0,train,5,E+
0.0600814819336,0,600,5,1,2,1,5,4,0,3,400,250.0,train,0,E+
174.157857895,2,600,1,1,2,1,5,4,0,3,400,250.0,train,2,E+
30.5638313293,1,600,0,1,2,1,5,4,0,3,400,250.0,train,1,E+
126.631975174,3,600,4,1,2,1,5,4,0,3,400,250.0,train,3,E+
463.459014893,3,600,4,1,2,1,5,4,0,3,400,250.0,train,3,E+
62.7977848053,4,600,2,1,2,1,5,4,0,3,400,250.0,train,4,E+
125.29706955,0,600,5,1,2,1,5,4,0,3,400,250.0,train,0,E+
95.6249237061,3,600,4,1,2,1,5,4,0,3,400,250.0,train,3,E+
223.464012146,3,600,4,1,2,1,5,4,0,3,400,250.0,train,3,E+
159.415006638,5,600,3,1,2,1,5,4,0,3,400,250.0,train,5,E+
79.6620845795,4,600,2,1,2,1,5,4,0,3,400,250.0,train,4,E+
159.562110901,5,600,3,1,2,1,5,4,0,3,400,250.0,train,5,E+
126.859903336,0,600,5,1,2,1,5,4,0,3,400,250.0,train,0,E+
223.472118378,0,600,5,1,2,1,5,4,0,3,400,250.0,train,0,E+
14.8429870605,0,600,5,1,2,1,5,4,0,3,400,250.0,train,0,E+
319.060087204,2,600,1,1,2,1,5,4,0,3,400,250.0,train,2,E+
79.6339511871,3,600,4,1,2,1,5,4,0,3,400,250.0,train,3,E+
479.433059692,4,600,2,1,2,1,5,4,0,3,400,250.0,train,4,E+
142.942905426,1,600,0,1,2,1,5,4,0,3,400,250.0,train,1,E+
79.5822143555,0,600,5,1,2,1,5,4,0,3,400,250.0,train,0,E+
415.483951569,0,600,5,1,2,1,5,4,0,3,400,250.0,train,0,E+
79.6539783478,1,600,0,1,2,1,5,4,0,3,400,250.0,train,1,E+
111.514806747,1,600,0,1,2,1,5,4,0,3,400,250.0,train,1,E+
415.490865707,1,600,0,1,2,1,5,4,0,3,400,250.0,train,1,E+
207.002878189,5,600,3,1,2,1,5,4,0,3,400,250.0,train,5,E+
63.0700588226,1,600,0,1,2,1,5,4,0,3,400,250.0,train,1,E+
79.6749591827,0,600,5,1,2,1,5,4,0,3,400,250.0,train,0,E+
79.5638561249,3,600,4,1,2,1,5,4,0,3,400,250.0,train,3,E+
31.5730571747,0,600,5,1,2,1,5,4,0,3,400,250.0,train,0,E+
62.1008872986,0,600,5,1,2,1,5,4,0,3,400,250.0,train,0,E+
239.491939545,5,600,3,1,2,1,5,4,0,3,400,250.0,train,5,E+
126.368999481,0,600,5,1,2,1,5,4,0,3,400,250.0,train,0,E+
95.7090854645,5,600,3,1,2,1,5,4,0,3,400,250.0,train,5,E+
207.165956497,2,600,1,1,2,1,5,4,0,3,400,250.0,train,2,E+
127.523899078,4,600,2,1,2,1,5,4,0,3,400,250.0,train,4,E+
95.2830314636,5,600,3,1,2,1,5,4,0,3,400,250.0,train,5,E+
95.2908992767,4,600,2,1,2,1,5,4,0,3,400,250.0,train,4,E+
463.464975357,4,600,2,1,2,1,5,4,0,3,400,250.0,train,4,E+
143.548965454,3,600,4,1,2,1,5,4,0,3,400,250.0,train,3,E+
318.916797638,3,600,4,1,2,1,5,4,0,3,400,250.0,train,3,E+
46.945810318,0,600,5,1,2,1,5,4,0,3,400,250.0,train,0,E+
111.538887024,3,600,4,0,2,1,5,4,0,3,400,250.0,train,2,E+
206.651926041,1,600,0,1,2,1,5,4,0,3,400,250.0,train,1,E+
62.9620552063,3,600,4,1,2,1,5,4,0,3,400,250.0,train,3,E+
14.4810676575,3,600,4,1,2,1,5,4,0,3,400,250.0,train,3,E+
654.582023621,2,600,1,1,2,1,5,4,0,3,400,250.0,train,2,E+
511.157035828,3,600,4,1,2,1,5,4,0,3,400,250.0,train,3,E+
175.544023514,1,600,0,1,2,1,5,4,0,3,400,250.0,train,1,E+
110.513925552,2,600,1,1,2,1,5,4,0,3,400,250.0,train,2,E+
94.7830677032,0,600,5,1,2,1,5,4,0,3,400,250.0,train,0,E+
142.362833023,3,600,4,1,2,1,5,4,0,3,400,250.0,train,3,E+
254.22501564,3,600,4,1,2,1,5,4,0,3,400,250.0,train,3,E+
79.6298980713,4,600,2,1,2,1,5,4,0,3,400,250.0,train,4,E+
270.526170731,1,600,0,1,2,1,5,4,0,3,400,250.0,train,1,E+
158.529996872,2,600,1,1,2,1,5,4,0,3,400,250.0,train,2,E+
222.404003143,4,600,2,1,2,1,5,4,0,3,400,250.0,train,4,E+
46.3228225708,4,600,2,1,2,1,5,4,0,3,400,250.0,train,4,E+
112.038135529,0,600,5,1,2,1,5,4,0,3,400,250.0,train,0,E+
510.205984116,0,600,5,1,2,1,5,4,0,3,400,250.0,train,0,E+
318.112850189,0,600,5,1,2,1,5,4,0,3,400,250.0,train,0,E+
174.357891083,4,600,2,0,2,1,5,4,0,3,400,250.0,train,3,E+
14.3880844116,4,600,2,1,2,1,5,4,0,3,400,250.0,train,4,E+
174.566984177,5,600,3,1,2,1,5,4,0,3,400,250.0,train,5,E+
95.2639579773,0,600,5,1,2,1,5,4,0,3,400,250.0,train,0,E+
334.455013275,0,600,5,1,2,1,5,4,0,3,400,250.0,train,0,E+
206.321954727,0,600,5,1,2,1,5,4,0,3,400,250.0,train,0,E+
78.6769390106,3,600,4,1,2,1,5,4,0,3,400,250.0,train,3,E+
0.0569820404053,3,600,4,1,2,1,5,4,0,3,400,250.0,train,3,E+
190.538883209,3,600,4,1,2,1,5,4,0,3,400,250.0,train,3,E+
95.6699848175,1,600,0,0,2,1,5,4,0,3,400,250.0,train,0,E+
110.699176788,0,600,5,1,2,1,5,4,0,3,400,250.0,train,0,E+
14.3439769745,0,600,5,1,2,1,5,4,0,3,400,250.0,train,0,E+
222.254991531,3,600,4,1,2,1,5,4,0,3,400,250.0,train,3,E+
159.562826157,1,600,0,1,2,1,5,4,0,3,400,250.0,train,1,E+
271.492958069,3,600,4,1,2,1,5,4,0,3,400,250.0,train,3,E+
255.086898804,2,600,1,1,2,1,5,4,0,3,400,250.0,train,2,E+
238.502979279,5,600,3,1,2,1,5,4,0,3,400,250.0,train,5,E+
207.121133804,2,600,1,1,2,1,5,4,0,3,400,250.0,train,2,E+
127.369165421,4,600,2,0,2,1,5,4,0,3,400,250.0,train,3,E+
143.216133118,4,600,2,0,2,1,5,4,0,3,400,250.0,train,3,E+
478.957891464,1,600,0,0,2,1,5,4,0,3,400,250.0,train,0,E+
223.050832748,1,600,0,1,2,1,5,4,0,3,400,250.0,train,1,E+
94.621181488,0,600,5,1,2,1,5,4,0,3,400,250.0,train,0,E+
127.288818359,3,600,4,1,2,1,5,4,0,3,400,250.0,train,3,E+
15.2471065521,4,600,2,1,2,1,5,4,0,3,400,250.0,train,4,E+
191.058158875,3,600,4,1,2,1,5,4,0,3,400,250.0,train,3,E+
158.616781235,1,600,0,1,2,1,5,4,0,3,400,250.0,train,1,E+
206.424951553,5,600,3,1,2,1,5,4,0,3,400,250.0,train,5,E+
47.2328662872,5,600,3,1,2,1,5,4,0,3,400,250.0,train,5,E+
430.325984955,5,600,3,1,2,1,5,4,0,3,400,250.0,train,5,E+
159.509897232,4,600,2,1,2,1,5,4,0,3,400,250.0,train,4,E+
223.544120789,5,600,3,1,2,1,5,4,0,3,400,250.0,train,5,E+
191.529035568,0,600,5,1,2,1,5,4,0,3,400,250.0,train,0,E+
255.50198555,0,600,5,1,2,1,5,4,0,3,400,250.0,train,0,E+
111.02604866,2,600,1,1,2,1,5,4,0,3,400,250.0,train,2,E+
190.875053406,1,600,0,1,2,1,5,4,0,3,400,250.0,train,1,E+
286.371946335,4,600,2,1,2,1,5,4,0,3,400,250.0,train,4,E+
110.773086548,5,600,3,1,2,1,5,4,0,3,400,250.0,train,5,E+
174.404859543,3,600,4,1,2,1,5,4,0,3,400,250.0,train,3,E+
239.191055298,2,600,1,1,2,1,5,4,0,3,400,250.0,train,2,E+
238.410949707,3,600,4,1,2,1,5,4,0,3,400,250.0,train,3,E+
207.513093948,2,600,1,1,2,1,5,4,0,3,400,250.0,train,2,E+
255.561113358,2,600,1,1,2,1,5,4,0,3,400,250.0,train,2,E+
110.994100571,0,600,5,1,2,1,5,4,0,3,400,250.0,train,0,E+
175.467967987,4,600,2,1,2,1,5,4,0,3,400,250.0,train,4,E+
271.175146103,3,600,4,1,2,1,5,4,0,3,400,250.0,train,3,E+
174.856901169,1,600,0,1,2,1,5,4,0,3,400,250.0,train,1,E+
79.0169239044,1,600,0,1,2,1,5,4,0,3,400,250.0,train,1,E+
223.467111588,3,600,4,1,2,1,5,4,0,3,400,250.0,train,3,E+
335.492134094,1,600,0,1,2,1,5,4,0,3,400,250.0,train,1,E+
463.51313591,5,600,3,1,2,1,5,4,0,3,400,250.0,train,5,E+
254.405021667,0,600,5,1,2,1,5,4,0,3,400,250.0,train,0,E+
255.475997925,3,600,4,1,2,1,5,4,0,3,400,250.0,train,3,E+
287.552118301,2,600,1,1,2,1,5,4,0,3,400,250.0,train,2,E+
607.481002808,3,600,4,1,2,1,5,4,0,3,400,250.0,train,3,E+
206.540107727,2,600,1,1,2,1,5,4,0,3,400,250.0,train,2,E+
606.788873672,5,1000,3,1,2,1,5,4,0,3,0,250.0,test,5,E+
543.561935425,4,1000,2,1,2,1,5,4,0,3,0,250.0,test,4,E+
463.06014061,3,1000,4,1,2,1,5,4,0,3,0,250.0,test,3,E+
493.580102921,1,1000,0,1,2,1,5,4,0,3,0,250.0,test,1,E+
639.564037323,5,1000,3,1,2,1,5,4,0,3,0,250.0,test,5,E+
510.175943375,0,1000,5,1,2,1,5,4,0,3,0,250.0,test,0,E+
479.019880295,3,1000,4,1,2,1,5,4,0,3,0,250.0,test,3,E+
447.568893433,3,1000,4,1,2,1,5,4,0,3,0,250.0,test,3,E+
527.004003525,1,1000,0,1,2,1,5,4,0,3,0,250.0,test,1,E+
447.031974792,2,1000,1,1,2,1,5,4,0,3,0,250.0,test,2,E+
510.497808456,1,1000,0,1,2,1,5,4,0,3,0,250.0,test,1,E+
622.426986694,3,1000,4,1,2,1,5,4,0,3,0,250.0,test,3,E+
558.168888092,2,1000,1,1,2,1,5,4,0,3,0,250.0,test,2,E+
478.074073792,0,1000,5,1,2,1,5,4,0,3,0,250.0,test,0,E+
462.071895599,4,1000,2,0,2,1,5,4,0,3,0,250.0,test,3,E+
477.205991745,5,1000,3,1,2,1,5,4,0,3,0,250.0,test,5,E+
414.906024933,0,1000,5,1,2,1,5,4,0,3,0,250.0,test,0,E+
415.416955948,0,1000,5,1,2,1,5,4,0,3,0,250.0,test,0,E+
574.916124344,4,1000,2,0,2,1,5,4,0,3,0,250.0,test,5,E+
670.619010925,2,1000,1,1,2,1,5,4,0,3,0,250.0,test,2,E+
591.420173645,5,1000,3,1,2,1,5,4,0,3,0,250.0,test,5,E+
397.681951523,2,1000,1,1,2,1,5,4,0,3,0,250.0,test,2,E+
303.43413353,2,1000,1,0,2,1,5,4,0,3,0,250.0,test,1,E+
510.787963867,5,1000,3,1,2,1,5,4,0,3,0,250.0,test,5,E+
510.19692421,2,1000,1,1,2,1,5,4,0,3,0,250.0,test,2,E+
461.369991302,2,1000,1,1,2,1,5,4,0,3,0,250.0,test,2,E+
479.533910751,4,1000,2,1,2,1,5,4,0,3,0,250.0,test,4,E+
510.251998901,3,1000,4,1,2,1,5,4,0,3,0,250.0,test,3,E+
381.542921066,3,1000,4,1,2,1,5,4,0,3,0,250.0,test,3,E+
335.474967957,1,1000,0,0,2,1,5,4,0,3,0,250.0,test,4,E+
766.129970551,3,1000,4,1,2,1,5,4,0,3,0,250.0,test,3,E+
447.525978088,4,1000,2,1,2,1,5,4,0,3,0,250.0,test,4,E+
382.155895233,4,1000,2,1,2,1,5,4,0,3,0,250.0,test,4,E+
749.230861664,2,1000,1,0,2,1,5,4,0,3,0,250.0,test,3,E+
525.192975998,5,1000,3,1,2,1,5,4,0,3,0,250.0,test,5,E+
558.083057404,1,1000,0,1,2,1,5,4,0,3,0,250.0,test,1,E+
542.392015457,4,1000,2,1,2,1,5,4,0,3,0,250.0,test,4,E+
494.056940079,5,1000,3,1,2,1,5,4,0,3,0,250.0,test,5,E+
477.288961411,4,1000,2,1,2,1,5,4,0,3,0,250.0,test,4,E+
462.089061737,1,1000,0,1,2,1,5,4,0,3,0,250.0,test,1,E+
430.48620224,2,1000,1,1,2,1,5,4,0,3,0,250.0,test,2,E+
479.607820511,3,1000,4,1,2,1,5,4,0,3,0,250.0,test,3,E+
493.631839752,0,1000,5,1,2,1,5,4,0,3,0,250.0,test,0,E+
463.08016777,1,1000,0,1,2,1,5,4,0,3,0,250.0,test,1,E+
333.583116531,4,1000,2,1,2,1,5,4,0,3,0,250.0,test,4,E+
287.199020386,5,1000,3,1,2,1,5,4,0,3,0,250.0,test,5,E+
398.765087128,4,1000,2,1,2,1,5,4,0,3,0,250.0,test,4,E+
446.527957916,0,1000,5,1,2,1,5,4,0,3,0,250.0,test,0,E+
398.558855057,0,1000,5,1,2,1,5,4,0,3,0,250.0,test,0,E+
445.21689415,1,1000,0,0,2,1,5,4,0,3,0,250.0,test,0,E+
493.572950363,5,1000,3,1,2,1,5,4,0,3,0,250.0,test,5,E+
462.316036224,5,1000,3,1,2,1,5,4,0,3,0,250.0,test,5,E+
477.398872375,1,1000,0,1,2,1,5,4,0,3,0,250.0,test,1,E+
575.563907623,3,1000,4,1,2,1,5,4,0,3,0,250.0,test,3,E+
527.148962021,2,1000,1,1,2,1,5,4,0,3,0,250.0,test,2,E+
493.402004242,0,1000,5,1,2,1,5,4,0,3,0,250.0,test,0,E+
463.006973267,4,1000,2,1,2,1,5,4,0,3,0,250.0,test,4,E+
511.0039711,1,1000,0,1,2,1,5,4,0,3,0,250.0,test,1,E+
479.0828228,3,1000,4,1,2,1,5,4,0,3,0,250.0,test,3,E+
542.215824127,2,1000,1,1,2,1,5,4,0,3,0,250.0,test,2,E+
573.024988174,4,1000,2,1,2,1,5,4,0,3,0,250.0,test,4,E+
494.500160217,5,1000,3,1,2,1,5,4,0,3,0,250.0,test,5,E+
509.707212448,2,1000,1,1,2,1,5,4,0,3,0,250.0,test,2,E+
525.333166122,3,1000,4,1,2,1,5,4,0,3,0,250.0,test,3,E+
365.272045135,4,1000,2,1,2,1,5,4,0,3,0,250.0,test,4,E+
493.400096893,3,1000,4,1,2,1,5,4,0,3,0,250.0,test,3,E+
493.510007858,1,1000,0,1,2,1,5,4,0,3,0,250.0,test,1,E+
398.713111877,4,1000,2,1,2,1,5,4,0,3,0,250.0,test,4,E+
526.609897614,2,1000,1,1,2,1,5,4,0,3,0,250.0,test,2,E+
557.178974152,2,1000,1,1,2,1,5,4,0,3,0,250.0,test,2,E+
542.979001999,5,1000,3,1,2,1,5,4,0,3,0,250.0,test,5,E+
494.960069656,3,1000,4,1,2,1,5,4,0,3,0,250.0,test,3,E+
462.807178497,3,1000,4,1,2,1,5,4,0,3,0,250.0,test,3,E+
382.937908173,4,1000,2,1,2,1,5,4,0,3,0,250.0,test,4,E+
446.504116058,4,1000,2,1,2,1,5,4,0,3,0,250.0,test,4,E+
349.331855774,4,1000,2,1,2,1,5,4,0,3,0,250.0,test,4,E+
526.093006134,1,1000,0,1,2,1,5,4,0,3,0,250.0,test,1,E+
479.510068893,5,1000,3,1,2,1,5,4,0,3,0,250.0,test,5,E+
447.484016418,1,1000,0,1,2,1,5,4,0,3,0,250.0,test,1,E+
494.467973709,0,1000,5,1,2,1,5,4,0,3,0,250.0,test,0,E+
303.008079529,2,1000,1,0,2,1,5,4,0,3,0,250.0,test,1,E+
478.873968124,0,1000,5,1,2,1,5,4,0,3,0,250.0,test,0,E+
431.043863297,0,1000,5,1,2,1,5,4,0,3,0,250.0,test,0,E+
414.047956467,3,1000,4,0,2,1,5,4,0,3,0,250.0,test,0,E+
685.203075409,2,1000,1,1,2,1,5,4,0,3,0,250.0,test,2,E+
590.346813202,3,1000,4,1,2,1,5,4,0,3,0,250.0,test,3,E+
623.538017273,1,1000,0,1,2,1,5,4,0,3,0,250.0,test,1,E+
558.549880981,2,1000,1,0,2,1,5,4,0,3,0,250.0,test,3,E+
670.94707489,1,1000,0,1,2,1,5,4,0,3,0,250.0,test,1,E+
638.650894165,3,1000,4,1,2,1,5,4,0,3,0,250.0,test,3,E+
734.16185379,2,1000,1,1,2,1,5,4,0,3,0,250.0,test,2,E+
830.933094025,4,1000,2,1,2,1,5,4,0,3,0,250.0,test,4,E+
622.339963913,0,1000,5,1,2,1,5,4,0,3,0,250.0,test,0,E+
510.367155075,0,1000,5,1,2,1,5,4,0,3,0,250.0,test,0,E+
542.515993118,3,1000,4,1,2,1,5,4,0,3,0,250.0,test,3,E+
559.054136276,1,1000,0,0,2,1,5,4,0,3,0,250.0,test,0,E+
606.951951981,0,1000,5,1,2,1,5,4,0,3,0,250.0,test,0,E+
591.347932816,3,1000,4,1,2,1,5,4,0,3,0,250.0,test,3,E+
431.352853775,1,1000,0,1,2,1,5,4,0,3,0,250.0,test,1,E+
511.499166489,0,1000,5,1,2,1,5,4,0,3,0,250.0,test,0,E+
493.597984314,0,1000,5,1,2,1,5,4,0,3,0,250.0,test,0,E+
526.761054993,3,1000,4,1,2,1,5,4,0,3,0,250.0,test,3,E+
557.631969452,1,1000,0,1,2,1,5,4,0,3,0,250.0,test,1,E+
333.523988724,3,1000,4,1,2,1,5,4,0,3,0,250.0,test,3,E+
366.635084152,2,1000,1,0,2,1,5,4,0,3,0,250.0,test,4,E+
494.834184647,0,1000,5,1,2,1,5,4,0,3,0,250.0,test,0,E+
430.850982666,0,1000,5,1,2,1,5,4,0,3,0,250.0,test,0,E+
526.224851608,4,1000,2,1,2,1,5,4,0,3,0,250.0,test,4,E+
543.546199799,2,1000,1,1,2,1,5,4,0,3,0,250.0,test,2,E+
542.224884033,4,1000,2,1,2,1,5,4,0,3,0,250.0,test,4,E+
383.41999054,4,1000,2,1,2,1,5,4,0,3,0,250.0,test,4,E+
542.97709465,5,1000,3,1,2,1,5,4,0,3,0,250.0,test,5,E+
478.670835495,3,1000,4,1,2,1,5,4,0,3,0,250.0,test,3,E+
526.091098785,2,1000,1,1,2,1,5,4,0,3,0,250.0,test,2,E+
477.648019791,1,1000,0,1,2,1,5,4,0,3,0,250.0,test,1,E+
542.330980301,2,1000,1,1,2,1,5,4,0,3,0,250.0,test,2,E+
509.024143219,2,1000,1,1,2,1,5,4,0,3,0,250.0,test,2,E+
366.076946259,2,1000,1,1,2,1,5,4,0,3,0,250.0,test,2,E+
462.384939194,1,1000,0,1,2,1,5,4,0,3,0,250.0,test,1,E+
431.573867798,1,1000,0,0,2,1,5,4,0,3,0,250.0,test,2,E+
526.036977768,3,1000,4,1,2,1,5,4,0,3,0,250.0,test,3,E+
525.202989578,0,1000,5,1,2,1,5,4,0,3,0,250.0,test,0,E+
461.301088333,0,1000,5,1,2,1,5,4,0,3,0,250.0,test,0,E+
461.948156357,5,1000,3,1,2,1,5,4,0,3,0,250.0,test,5,E+
511.028051376,3,1000,4,1,2,1,5,4,0,3,0,250.0,test,3,E+
462.507963181,4,1000,2,1,2,1,5,4,0,3,0,250.0,test,4,E+
559.047937393,0,1000,5,1,2,1,5,4,0,3,0,250.0,test,0,E+
446.281909943,0,1000,5,1,2,1,5,4,0,3,0,250.0,test,0,E+
559.530973434,5,1000,3,1,2,1,5,4,0,3,0,250.0,test,5,E+
462.13889122,3,1000,4,1,2,1,5,4,0,3,0,250.0,test,3,E+
463.020086288,0,1000,5,1,2,1,5,4,0,3,0,250.0,test,0,E+
638.929843903,2,1000,1,1,2,1,5,4,0,3,0,250.0,test,2,E+
398.963928223,0,1000,5,1,2,1,5,4,0,3,0,250.0,test,0,E+
607.552051544,5,1000,3,1,2,1,5,4,0,3,0,250.0,test,5,E+
431.091070175,4,1000,2,1,2,1,5,4,0,3,0,250.0,test,4,E+
525.234937668,5,1000,3,1,2,1,5,4,0,3,0,250.0,test,5,E+
495.584964752,0,1000,5,1,2,1,5,4,0,3,0,250.0,test,0,E+
527.35710144,3,1000,4,1,2,1,5,4,0,3,0,250.0,test,3,E+
622.297048569,5,1000,3,1,2,1,5,4,0,3,0,250.0,test,5,E+
574.517965317,1,1000,0,1,2,1,5,4,0,3,0,250.0,test,1,E+
414.542198181,3,1000,4,1,2,1,5,4,0,3,0,250.0,test,3,E+
462.96787262,3,1000,4,1,2,1,5,4,0,3,0,250.0,test,3,E+
381.708145142,4,1000,2,0,2,1,5,4,0,3,0,250.0,test,3,E+
494.873046875,5,1000,3,1,2,1,5,4,0,3,0,250.0,test,5,E+
558.572053909,5,1000,3,1,2,1,5,4,0,3,0,250.0,test,5,E+
559.018135071,1,1000,0,1,2,1,5,4,0,3,0,250.0,test,1,E+
478.446006775,3,1000,4,1,2,1,5,4,0,3,0,250.0,test,3,E+
461.163043976,0,1000,5,1,2,1,5,4,0,3,0,250.0,test,0,E+
461.167097092,1,1000,0,1,2,1,5,4,0,3,0,250.0,test,1,E+
478.045940399,3,1000,4,1,2,1,5,4,0,3,0,250.0,test,3,E+
463.054180145,1,1000,0,1,2,1,5,4,0,3,0,250.0,test,1,E+
494.293928146,5,1000,3,1,2,1,5,4,0,3,0,250.0,test,5,E+
446.87795639,1,1000,0,1,2,1,5,4,0,3,0,250.0,test,1,E+
463.490962982,3,1000,4,1,2,1,5,4,0,3,0,250.0,test,3,E+
494.911909103,5,1000,3,1,2,1,5,4,0,3,0,250.0,test,5,E+
478.877067566,5,1000,3,1,2,1,5,4,0,3,0,250.0,test,5,E+
527.515172958,3,1000,4,1,2,1,5,4,0,3,0,250.0,test,3,E+
446.804046631,3,1000,4,1,2,1,5,4,0,3,0,250.0,test,3,E+
461.093187332,1,1000,0,1,2,1,5,4,0,3,0,250.0,test,1,E+
413.675069809,0,1000,5,1,2,1,5,4,0,3,0,250.0,test,0,E+
462.279081345,3,1000,4,1,2,1,5,4,0,3,0,250.0,test,3,E+
446.609020233,5,1000,3,1,2,1,5,4,0,3,0,250.0,test,5,E+
557.824134827,1,1000,0,1,2,1,5,4,0,3,0,250.0,test,1,E+
525.361776352,5,1000,3,1,2,1,5,4,0,3,0,250.0,test,5,E+
462.198972702,0,1000,5,1,2,1,5,4,0,3,0,250.0,test,0,E+
525.17414093,0,1000,5,1,2,1,5,4,0,3,0,250.0,test,0,E+
637.251853943,3,1000,4,1,2,1,5,4,0,3,0,250.0,test,3,E+
526.306867599,2,1000,1,1,2,1,5,4,0,3,0,250.0,test,2,E+
447.556972504,0,1000,5,1,2,1,5,4,0,3,0,250.0,test,0,E+
751.05214119,2,1000,1,1,2,1,5,4,0,3,0,250.0,test,2,E+
446.458101273,3,1000,4,1,2,1,5,4,0,3,0,250.0,test,3,E+
399.089097977,1,1000,0,1,2,1,5,4,0,3,0,250.0,test,1,E+
415.499925613,0,1000,5,1,2,1,5,4,0,3,0,250.0,test,0,E+
415.516138077,3,1000,4,1,2,1,5,4,0,3,0,250.0,test,3,E+
462.374210358,4,1000,2,1,2,1,5,4,0,3,0,250.0,test,4,E+
399.161100388,3,1000,4,1,2,1,5,4,0,3,0,250.0,test,3,E+
559.057950974,1,1000,0,1,2,1,5,4,0,3,0,250.0,test,1,E+
607.491970062,0,1000,5,1,2,1,5,4,0,3,0,250.0,test,0,E+
365.777015686,4,1000,2,1,2,1,5,4,0,3,0,250.0,test,4,E+
463.561058044,0,1000,5,1,2,1,5,4,0,3,0,250.0,test,0,E+
527.148962021,4,1000,2,1,2,1,5,4,0,3,0,250.0,test,4,E+
526.773929596,4,1000,2,1,2,1,5,4,0,3,0,250.0,test,4,E+
798.418998718,2,1000,1,0,2,1,5,4,0,3,0,250.0,test,3,E+
526.285886765,1,1000,0,0,2,1,5,4,0,3,0,250.0,test,0,E+
494.251966476,0,1000,5,1,2,1,5,4,0,3,0,250.0,test,0,E+
494.429111481,4,1000,2,1,2,1,5,4,0,3,0,250.0,test,4,E+
510.437965393,4,1000,2,1,2,1,5,4,0,3,0,250.0,test,4,E+
430.949926376,1,1000,0,1,2,1,5,4,0,3,0,250.0,test,1,E+
526.218891144,5,1000,3,1,2,1,5,4,0,3,0,250.0,test,5,E+
413.305997849,5,1000,3,1,2,1,5,4,0,3,0,250.0,test,5,E+
814.297914505,0,1000,5,1,2,1,5,4,0,3,0,250.0,test,0,E+
349.373102188,4,1000,2,1,2,1,5,4,0,3,0,250.0,test,4,E+
526.18598938,5,1000,3,1,2,1,5,4,0,3,0,250.0,test,5,E+
366.283893585,4,1000,2,1,2,1,5,4,0,3,0,250.0,test,4,E+
365.319013596,0,1000,5,0,2,1,5,4,0,3,0,250.0,test,3,E+
637.109041214,3,1000,4,1,2,1,5,4,0,3,0,250.0,test,3,E+
525.941848755,1,1000,0,1,2,1,5,4,0,3,0,250.0,test,1,E+
431.430101395,3,1000,4,1,2,1,5,4,0,3,0,250.0,test,3,E+
398.343086243,3,1000,4,1,2,1,5,4,0,3,0,250.0,test,3,E+
686.588048935,3,1000,4,1,2,1,5,4,0,3,0,250.0,test,3,E+
462.208032608,1,1000,0,1,2,1,5,4,0,3,0,250.0,test,1,E+
365.626096725,2,1000,1,0,2,1,5,4,0,3,0,250.0,test,1,E+
494.421958923,5,1000,3,1,2,1,5,4,0,3,0,250.0,test,5,E+
349.323034286,4,1000,2,1,2,1,5,4,0,3,0,250.0,test,4,E+
445.713043213,4,1000,2,1,2,1,5,4,0,3,0,250.0,test,4,E+
414.121866226,4,1000,2,1,2,1,5,4,0,3,0,250.0,test,4,E+
445.475101471,1,1000,0,1,2,1,5,4,0,3,0,250.0,test,1,E+
414.02721405,2,1000,1,1,2,1,5,4,0,3,0,250.0,test,2,E+
526.731014252,0,1000,5,1,2,1,5,4,0,3,0,250.0,test,0,E+
559.582948685,2,1000,1,1,2,1,5,4,0,3,0,250.0,test,2,E+
462.387800217,2,1000,1,1,2,1,5,4,0,3,0,250.0,test,2,E+
383.678913116,2,1000,1,1,2,1,5,4,0,3,0,250.0,test,2,E+
445.763111115,3,1000,4,1,2,1,5,4,0,3,0,250.0,test,3,E+
367.532014847,3,1000,4,1,2,1,5,4,0,3,0,250.0,test,3,E+
382.822036743,4,1000,2,0,2,1,5,4,0,3,0,250.0,test,3,E+
510.344982147,3,1000,4,1,2,1,5,4,0,3,0,250.0,test,3,E+
510.926008224,0,1000,5,1,2,1,5,4,0,3,0,250.0,test,0,E+
430.902004242,3,1000,4,1,2,1,5,4,0,3,0,250.0,test,3,E+
414.483070374,4,1000,2,1,2,1,5,4,0,3,0,250.0,test,4,E+
365.619897842,4,1000,2,1,2,1,5,4,0,3,0,250.0,test,4,E+
510.768175125,0,1000,5,1,2,1,5,4,0,3,0,250.0,test,0,E+
445.124864578,2,1000,1,0,2,1,5,4,0,3,0,250.0,test,5,E+
638.434886932,3,1000,4,1,2,1,5,4,0,3,0,250.0,test,3,E+
302.284002304,4,1000,2,1,2,1,5,4,0,3,0,250.0,test,4,E+
430.759906769,5,1000,3,1,2,1,5,4,0,3,0,250.0,test,5,E+
622.448921204,2,1000,1,1,2,1,5,4,0,3,0,250.0,test,2,E+
430.440187454,2,1000,1,1,2,1,5,4,0,3,0,250.0,test,2,E+
430.74798584,2,1000,1,1,2,1,5,4,0,3,0,250.0,test,2,E+
381.254196167,2,1000,1,1,2,1,5,4,0,3,0,250.0,test,2,E+
557.449817657,1,1000,0,1,2,1,5,4,0,3,0,250.0,test,1,E+
494.983911514,2,1000,1,1,2,1,5,4,0,3,0,250.0,test,2,E+
413.645982742,2,1000,1,1,2,1,5,4,0,3,0,250.0,test,2,E+
397.362947464,3,1000,4,1,2,1,5,4,0,3,0,250.0,test,3,E+
254.395961761,2,1000,1,0,2,1,5,4,0,3,0,250.0,test,4,E+
525.240898132,0,1000,5,1,2,1,5,4,0,3,0,250.0,test,0,E+
461.369037628,3,1000,4,1,2,1,5,4,0,3,0,250.0,test,3,E+
445.020914078,3,1000,4,1,2,1,5,4,0,3,0,250.0,test,3,E+
429.161071777,3,1000,4,1,2,1,5,4,0,3,0,250.0,test,3,E+
413.475036621,4,1000,2,1,2,1,5,4,0,3,0,250.0,test,4,E+
542.438030243,1,1000,0,1,2,1,5,4,0,3,0,250.0,test,1,E+
397.905111313,1,1000,0,1,2,1,5,4,0,3,0,250.0,test,1,E+
415.137052536,0,1000,5,1,2,1,5,4,0,3,0,250.0,test,0,E+
511.475086212,2,1000,1,1,2,1,5,4,0,3,0,250.0,test,2,E+
463.557004929,0,1000,5,1,2,1,5,4,0,3,0,250.0,test,0,E+
542.741060257,3,1000,4,1,2,1,5,4,0,3,0,250.0,test,3,E+
511.028051376,4,1000,2,1,2,1,5,4,0,3,0,250.0,test,4,E+
366.307020187,3,1000,4,1,2,1,5,4,0,3,0,250.0,test,3,E+
414.255142212,3,1000,4,1,2,1,5,4,0,3,0,250.0,test,3,E+
382.043838501,5,1000,3,0,2,1,5,4,0,3,0,250.0,test,4,E+
494.202852249,5,1000,3,1,2,1,5,4,0,3,0,250.0,test,5,E+
