RT,correct_response,ms-prestimblank,curstim,correct,SRmap_1,SRmap_0,SRmap_3,SRmap_2,SRmap_5,SRmap_4,ms-precue,ntrials,type,response,condition
8968.66989136,2,600,1,1,2,5,4,3,0,1,400,250.0,train,2,E-
4711.76981926,4,600,3,1,2,5,4,3,0,1,400,250.0,train,4,E-
2567.78597832,2,600,1,1,2,5,4,3,0,1,400,250.0,train,2,E-
1416.44310951,5,600,0,1,2,5,4,3,0,1,400,250.0,train,5,E-
791.710853577,2,600,1,1,2,5,4,3,0,1,400,250.0,train,2,E-
1255.68413734,4,600,3,0,2,5,4,3,0,1,400,250.0,train,3,E-
649.331092834,0,600,5,1,2,5,4,3,0,1,400,250.0,train,0,E-
695.57094574,3,600,2,1,2,5,4,3,0,1,400,250.0,train,3,E-
376.322984695,3,600,2,1,2,5,4,3,0,1,400,250.0,train,3,E-
521.054983139,1,600,4,1,2,5,4,3,0,1,400,250.0,train,1,E-
199.303150177,1,600,4,1,2,5,4,3,0,1,400,250.0,train,1,E-
231.807947159,1,600,4,1,2,5,4,3,0,1,400,250.0,train,1,E-
423.717975616,1,600,4,1,2,5,4,3,0,1,400,250.0,train,1,E-
967.727184296,4,600,3,1,2,5,4,3,0,1,400,250.0,train,4,E-
455.812931061,3,600,2,1,2,5,4,3,0,1,400,250.0,train,3,E-
182.488918304,2,600,1,0,2,5,4,3,0,1,400,250.0,train,1,E-
121.068000793,2,600,1,1,2,5,4,3,0,1,400,250.0,train,2,E-
151.779174805,1,600,4,1,2,5,4,3,0,1,400,250.0,train,1,E-
71.8531608582,1,600,4,1,2,5,4,3,0,1,400,250.0,train,1,E-
103.940010071,2,600,1,1,2,5,4,3,0,1,400,250.0,train,2,E-
57.1990013123,2,600,1,1,2,5,4,3,0,1,400,250.0,train,2,E-
279.99997139,4,600,3,1,2,5,4,3,0,1,400,250.0,train,4,E-
1432.15799332,5,600,0,1,2,5,4,3,0,1,400,250.0,train,5,E-
312.427043915,1,600,4,1,2,5,4,3,0,1,400,250.0,train,1,E-
1399.67083931,1,600,4,1,2,5,4,3,0,1,400,250.0,train,1,E-
265.152931213,0,600,5,1,2,5,4,3,0,1,400,250.0,train,0,E-
471.753120422,4,600,3,1,2,5,4,3,0,1,400,250.0,train,4,E-
55.5739402771,1,600,4,1,2,5,4,3,0,1,400,250.0,train,1,E-
232.5258255,5,600,0,1,2,5,4,3,0,1,400,250.0,train,5,E-
327.73399353,1,600,4,1,2,5,4,3,0,1,400,250.0,train,1,E-
215.628147125,2,600,1,1,2,5,4,3,0,1,400,250.0,train,2,E-
265.328884125,3,600,2,1,2,5,4,3,0,1,400,250.0,train,3,E-
393.357038498,3,600,2,1,2,5,4,3,0,1,400,250.0,train,3,E-
119.678974152,1,600,4,1,2,5,4,3,0,1,400,250.0,train,1,E-
119.701862335,5,600,0,1,2,5,4,3,0,1,400,250.0,train,5,E-
247.629165649,2,600,1,1,2,5,4,3,0,1,400,250.0,train,2,E-
121.167898178,0,600,5,1,2,5,4,3,0,1,400,250.0,train,0,E-
201.13992691,5,600,0,1,2,5,4,3,0,1,400,250.0,train,5,E-
327.78096199,3,600,2,1,2,5,4,3,0,1,400,250.0,train,3,E-
23.8859653473,3,600,2,1,2,5,4,3,0,1,400,250.0,train,3,E-
119.814157486,1,600,4,1,2,5,4,3,0,1,400,250.0,train,1,E-
359.826087952,4,600,3,1,2,5,4,3,0,1,400,250.0,train,4,E-
231.467962265,0,600,5,1,2,5,4,3,0,1,400,250.0,train,0,E-
375.717163086,3,600,2,1,2,5,4,3,0,1,400,250.0,train,3,E-
407.957077026,1,600,4,1,2,5,4,3,0,1,400,250.0,train,1,E-
135.894060135,5,600,0,1,2,5,4,3,0,1,400,250.0,train,5,E-
89.1509056091,1,600,4,1,2,5,4,3,0,1,400,250.0,train,1,E-
1225.08001328,0,600,5,1,2,5,4,3,0,1,400,250.0,train,0,E-
72.6041793823,2,600,1,1,2,5,4,3,0,1,400,250.0,train,2,E-
215.898036957,2,600,1,1,2,5,4,3,0,1,400,250.0,train,2,E-
135.926008224,3,600,2,1,2,5,4,3,0,1,400,250.0,train,3,E-
71.9549655914,5,600,0,1,2,5,4,3,0,1,400,250.0,train,5,E-
119.652032852,2,600,1,0,2,5,4,3,0,1,400,250.0,train,0,E-
247.938871384,5,600,0,1,2,5,4,3,0,1,400,250.0,train,5,E-
233.225107193,4,600,3,1,2,5,4,3,0,1,400,250.0,train,4,E-
137.203931808,0,600,5,1,2,5,4,3,0,1,400,250.0,train,0,E-
279.793977737,4,600,3,0,2,5,4,3,0,1,400,250.0,train,5,E-
472.695827484,2,600,1,0,2,5,4,3,0,1,400,250.0,train,3,E-
567.744970322,4,600,3,1,2,5,4,3,0,1,400,250.0,train,4,E-
456.596851349,2,600,1,1,2,5,4,3,0,1,400,250.0,train,2,E-
423.817873001,3,600,2,1,2,5,4,3,0,1,400,250.0,train,3,E-
39.803981781,3,600,2,1,2,5,4,3,0,1,400,250.0,train,3,E-
119.832038879,0,600,5,1,2,5,4,3,0,1,400,250.0,train,0,E-
23.8590240479,1,600,4,1,2,5,4,3,0,1,400,250.0,train,1,E-
1063.89188766,2,600,1,1,2,5,4,3,0,1,400,250.0,train,2,E-
119.863986969,5,600,0,1,2,5,4,3,0,1,400,250.0,train,5,E-
137.040138245,4,600,3,1,2,5,4,3,0,1,400,250.0,train,4,E-
839.938879013,0,600,5,1,2,5,4,3,0,1,400,250.0,train,0,E-
583.759069443,4,600,3,1,2,5,4,3,0,1,400,250.0,train,4,E-
215.758085251,3,600,2,0,2,5,4,3,0,1,400,250.0,train,2,E-
615.644931793,2,600,1,1,2,5,4,3,0,1,400,250.0,train,2,E-
119.630098343,3,600,2,1,2,5,4,3,0,1,400,250.0,train,3,E-
135.720968246,1,600,4,1,2,5,4,3,0,1,400,250.0,train,1,E-
247.727155685,3,600,2,1,2,5,4,3,0,1,400,250.0,train,3,E-
407.650947571,2,600,1,1,2,5,4,3,0,1,400,250.0,train,2,E-
87.7840518951,0,600,5,1,2,5,4,3,0,1,400,250.0,train,0,E-
135.797977448,5,600,0,1,2,5,4,3,0,1,400,250.0,train,5,E-
199.838876724,2,600,1,1,2,5,4,3,0,1,400,250.0,train,2,E-
103.631019592,3,600,2,1,2,5,4,3,0,1,400,250.0,train,3,E-
119.899988174,0,600,5,0,2,5,4,3,0,1,400,250.0,train,2,E-
503.883123398,2,600,1,1,2,5,4,3,0,1,400,250.0,train,2,E-
137.046098709,3,600,2,1,2,5,4,3,0,1,400,250.0,train,3,E-
599.981069565,2,600,1,1,2,5,4,3,0,1,400,250.0,train,2,E-
39.8511886597,1,600,4,1,2,5,4,3,0,1,400,250.0,train,1,E-
104.61306572,0,600,5,1,2,5,4,3,0,1,400,250.0,train,0,E-
89.1258716583,1,600,4,1,2,5,4,3,0,1,400,250.0,train,1,E-
297.182798386,3,600,2,1,2,5,4,3,0,1,400,250.0,train,3,E-
167.644023895,5,600,0,1,2,5,4,3,0,1,400,250.0,train,5,E-
87.7170562744,4,600,3,1,2,5,4,3,0,1,400,250.0,train,4,E-
263.744115829,0,600,5,1,2,5,4,3,0,1,400,250.0,train,0,E-
153.167963028,2,600,1,1,2,5,4,3,0,1,400,250.0,train,2,E-
199.526071548,4,600,3,1,2,5,4,3,0,1,400,250.0,train,4,E-
105.121135712,0,600,5,1,2,5,4,3,0,1,400,250.0,train,0,E-
280.648946762,4,600,3,1,2,5,4,3,0,1,400,250.0,train,4,E-
807.741880417,3,600,2,1,2,5,4,3,0,1,400,250.0,train,3,E-
151.695013046,5,600,0,1,2,5,4,3,0,1,400,250.0,train,5,E-
695.559024811,0,600,5,1,2,5,4,3,0,1,400,250.0,train,0,E-
185.294866562,5,600,0,1,2,5,4,3,0,1,400,250.0,train,5,E-
407.595157623,2,600,1,1,2,5,4,3,0,1,400,250.0,train,2,E-
103.72710228,0,600,5,1,2,5,4,3,0,1,400,250.0,train,0,E-
105.137825012,2,600,1,1,2,5,4,3,0,1,400,250.0,train,2,E-
103.670835495,4,600,3,1,2,5,4,3,0,1,400,250.0,train,4,E-
217.156887054,5,600,0,1,2,5,4,3,0,1,400,250.0,train,5,E-
103.586912155,4,600,3,1,2,5,4,3,0,1,400,250.0,train,4,E-
119.726896286,0,600,5,1,2,5,4,3,0,1,400,250.0,train,0,E-
168.977975845,5,600,0,1,2,5,4,3,0,1,400,250.0,train,5,E-
87.5811576843,5,600,0,1,2,5,4,3,0,1,400,250.0,train,5,E-
1337.04900742,5,600,0,1,2,5,4,3,0,1,400,250.0,train,5,E-
327.793121338,3,600,2,0,2,5,4,3,0,1,400,250.0,train,2,E-
199.763059616,1,600,4,1,2,5,4,3,0,1,400,250.0,train,1,E-
87.8069400787,5,600,0,1,2,5,4,3,0,1,400,250.0,train,5,E-
72.4928379059,0,600,5,1,2,5,4,3,0,1,400,250.0,train,0,E-
23.8308906555,0,600,5,1,2,5,4,3,0,1,400,250.0,train,0,E-
456.552028656,2,600,1,1,2,5,4,3,0,1,400,250.0,train,2,E-
471.786022186,4,600,3,1,2,5,4,3,0,1,400,250.0,train,4,E-
87.9280567169,0,600,5,1,2,5,4,3,0,1,400,250.0,train,0,E-
55.8369159698,4,600,3,1,2,5,4,3,0,1,400,250.0,train,4,E-
104.802846909,0,600,5,1,2,5,4,3,0,1,400,250.0,train,0,E-
135.938167572,2,600,1,1,2,5,4,3,0,1,400,250.0,train,2,E-
167.908906937,4,600,3,1,2,5,4,3,0,1,400,250.0,train,4,E-
393.331050873,1,600,4,1,2,5,4,3,0,1,400,250.0,train,1,E-
1527.6901722,4,600,3,1,2,5,4,3,0,1,400,250.0,train,4,E-
521.224021912,2,600,1,1,2,5,4,3,0,1,400,250.0,train,2,E-
231.708049774,5,600,0,1,2,5,4,3,0,1,400,250.0,train,5,E-
391.694068909,3,600,2,1,2,5,4,3,0,1,400,250.0,train,3,E-
121.206045151,3,600,2,1,2,5,4,3,0,1,400,250.0,train,3,E-
503.625869751,1,600,4,1,2,5,4,3,0,1,400,250.0,train,1,E-
135.918855667,0,600,5,1,2,5,4,3,0,1,400,250.0,train,0,E-
231.672048569,3,600,2,1,2,5,4,3,0,1,400,250.0,train,3,E-
567.56901741,2,600,1,1,2,5,4,3,0,1,400,250.0,train,2,E-
57.2869777679,1,600,4,1,2,5,4,3,0,1,400,250.0,train,1,E-
169.149160385,4,600,3,1,2,5,4,3,0,1,400,250.0,train,4,E-
167.755126953,5,600,0,1,2,5,4,3,0,1,400,250.0,train,5,E-
503.681898117,2,600,1,1,2,5,4,3,0,1,400,250.0,train,2,E-
87.7299308777,4,600,3,1,2,5,4,3,0,1,400,250.0,train,4,E-
169.119119644,3,600,2,1,2,5,4,3,0,1,400,250.0,train,3,E-
55.6948184967,4,600,3,1,2,5,4,3,0,1,400,250.0,train,4,E-
71.7618465424,5,600,0,1,2,5,4,3,0,1,400,250.0,train,5,E-
375.733137131,4,600,3,1,2,5,4,3,0,1,400,250.0,train,4,E-
55.7899475098,4,600,3,1,2,5,4,3,0,1,400,250.0,train,4,E-
119.724035263,5,600,0,1,2,5,4,3,0,1,400,250.0,train,5,E-
103.773832321,3,600,2,1,2,5,4,3,0,1,400,250.0,train,3,E-
184.568881989,3,600,2,1,2,5,4,3,0,1,400,250.0,train,3,E-
231.829881668,0,600,5,1,2,5,4,3,0,1,400,250.0,train,0,E-
375.852108002,3,600,2,1,2,5,4,3,0,1,400,250.0,train,3,E-
121.098041534,4,600,3,1,2,5,4,3,0,1,400,250.0,train,4,E-
135.856866837,0,600,5,1,2,5,4,3,0,1,400,250.0,train,0,E-
151.833057404,3,600,2,1,2,5,4,3,0,1,400,250.0,train,3,E-
518.617868423,2,600,1,1,2,5,4,3,0,1,400,250.0,train,2,E-
375.982046127,1,600,4,1,2,5,4,3,0,1,400,250.0,train,1,E-
457.050085068,5,600,0,1,2,5,4,3,0,1,400,250.0,train,5,E-
103.985071182,5,600,0,1,2,5,4,3,0,1,400,250.0,train,5,E-
105.221033096,4,600,3,1,2,5,4,3,0,1,400,250.0,train,4,E-
361.186981201,2,600,1,1,2,5,4,3,0,1,400,250.0,train,2,E-
87.8250598907,2,600,1,1,2,5,4,3,0,1,400,250.0,train,2,E-
153.327941895,5,600,0,1,2,5,4,3,0,1,400,250.0,train,5,E-
135.780096054,4,600,3,1,2,5,4,3,0,1,400,250.0,train,4,E-
697.304964066,2,600,1,1,2,5,4,3,0,1,400,250.0,train,2,E-
551.844835281,0,600,5,0,2,5,4,3,0,1,400,250.0,train,3,E-
55.6988716125,1,600,4,1,2,5,4,3,0,1,400,250.0,train,1,E-
1689.11504745,1,600,4,1,2,5,4,3,0,1,400,250.0,train,1,E-
119.742155075,4,600,3,1,2,5,4,3,0,1,400,250.0,train,4,E-
119.701147079,5,600,0,0,2,5,4,3,0,1,400,250.0,train,2,E-
151.621103287,3,600,2,1,2,5,4,3,0,1,400,250.0,train,3,E-
137.445926666,1,600,4,1,2,5,4,3,0,1,400,250.0,train,1,E-
361.279010773,2,600,1,1,2,5,4,3,0,1,400,250.0,train,2,E-
167.306900024,3,600,2,1,2,5,4,3,0,1,400,250.0,train,3,E-
295.635938644,0,600,5,1,2,5,4,3,0,1,400,250.0,train,0,E-
71.6710090637,0,600,5,1,2,5,4,3,0,1,400,250.0,train,0,E-
169.213056564,5,600,0,1,2,5,4,3,0,1,400,250.0,train,5,E-
103.73711586,3,600,2,1,2,5,4,3,0,1,400,250.0,train,3,E-
153.167963028,5,600,0,1,2,5,4,3,0,1,400,250.0,train,5,E-
681.21099472,2,600,1,0,2,5,4,3,0,1,400,250.0,train,3,E-
247.820854187,2,600,1,1,2,5,4,3,0,1,400,250.0,train,2,E-
73.0550289154,3,600,2,1,2,5,4,3,0,1,400,250.0,train,3,E-
136.430978775,0,600,5,1,2,5,4,3,0,1,400,250.0,train,0,E-
55.8068752289,2,600,1,1,2,5,4,3,0,1,400,250.0,train,2,E-
200.513124466,5,600,0,1,2,5,4,3,0,1,400,250.0,train,5,E-
247.648954391,2,600,1,1,2,5,4,3,0,1,400,250.0,train,2,E-
1257.11297989,0,600,5,1,2,5,4,3,0,1,400,250.0,train,0,E-
247.878074646,2,600,1,1,2,5,4,3,0,1,400,250.0,train,2,E-
247.944116592,4,600,3,1,2,5,4,3,0,1,400,250.0,train,4,E-
375.962972641,2,600,1,1,2,5,4,3,0,1,400,250.0,train,2,E-
695.944070816,5,600,0,0,2,5,4,3,0,1,400,250.0,train,2,E-
647.774934769,3,600,2,1,2,5,4,3,0,1,400,250.0,train,3,E-
1015.91587067,2,600,1,0,2,5,4,3,0,1,400,250.0,train,5,E-
519.754886627,2,600,1,1,2,5,4,3,0,1,400,250.0,train,2,E-
89.3099308014,5,600,0,0,2,5,4,3,0,1,400,250.0,train,2,E-
631.796121597,4,600,3,1,2,5,4,3,0,1,400,250.0,train,4,E-
24.5108604431,4,600,3,1,2,5,4,3,0,1,400,250.0,train,4,E-
359.680891037,3,600,2,1,2,5,4,3,0,1,400,250.0,train,3,E-
615.787982941,2,600,1,1,2,5,4,3,0,1,400,250.0,train,2,E-
119.80509758,5,600,0,1,2,5,4,3,0,1,400,250.0,train,5,E-
25.16913414,4,600,3,1,2,5,4,3,0,1,400,250.0,train,4,E-
265.549898148,2,600,1,1,2,5,4,3,0,1,400,250.0,train,2,E-
167.645931244,3,600,2,1,2,5,4,3,0,1,400,250.0,train,3,E-
72.5190639496,4,600,3,1,2,5,4,3,0,1,400,250.0,train,4,E-
103.728055954,4,600,3,1,2,5,4,3,0,1,400,250.0,train,4,E-
104.545116425,5,600,0,1,2,5,4,3,0,1,400,250.0,train,5,E-
88.3729457855,5,600,0,1,2,5,4,3,0,1,400,250.0,train,5,E-
41.207075119,5,600,0,1,2,5,4,3,0,1,400,250.0,train,5,E-
103.634119034,4,600,3,1,2,5,4,3,0,1,400,250.0,train,4,E-
263.787031174,0,600,5,1,2,5,4,3,0,1,400,250.0,train,0,E-
135.768890381,2,600,1,1,2,5,4,3,0,1,400,250.0,train,2,E-
71.8319416046,5,600,0,1,2,5,4,3,0,1,400,250.0,train,5,E-
86.6968631744,1,600,4,1,2,5,4,3,0,1,400,250.0,train,1,E-
71.8100070953,5,600,0,1,2,5,4,3,0,1,400,250.0,train,5,E-
71.7930793762,0,600,5,1,2,5,4,3,0,1,400,250.0,train,0,E-
151.874065399,4,600,3,1,2,5,4,3,0,1,400,250.0,train,4,E-
375.774860382,1,600,4,1,2,5,4,3,0,1,400,250.0,train,1,E-
200.289011002,4,600,3,1,2,5,4,3,0,1,400,250.0,train,4,E-
518.556118011,2,600,1,1,2,5,4,3,0,1,400,250.0,train,2,E-
1273.08797836,1,600,4,1,2,5,4,3,0,1,400,250.0,train,1,E-
215.936183929,3,600,2,1,2,5,4,3,0,1,400,250.0,train,3,E-
39.8638248444,1,600,4,1,2,5,4,3,0,1,400,250.0,train,1,E-
183.89415741,4,600,3,1,2,5,4,3,0,1,400,250.0,train,4,E-
119.961977005,3,600,2,1,2,5,4,3,0,1,400,250.0,train,3,E-
137.094020844,4,600,3,1,2,5,4,3,0,1,400,250.0,train,4,E-
72.5729465485,1,600,4,1,2,5,4,3,0,1,400,250.0,train,1,E-
87.6321792603,4,600,3,1,2,5,4,3,0,1,400,250.0,train,4,E-
121.251106262,3,600,2,1,2,5,4,3,0,1,400,250.0,train,3,E-
169.237852097,1,600,4,1,2,5,4,3,0,1,400,250.0,train,1,E-
103.81102562,3,600,2,1,2,5,4,3,0,1,400,250.0,train,3,E-
199.803113937,4,600,3,1,2,5,4,3,0,1,400,250.0,train,4,E-
633.171796799,2,600,1,1,2,5,4,3,0,1,400,250.0,train,2,E-
87.7890586853,1,600,4,0,2,5,4,3,0,1,400,250.0,train,4,E-
151.648044586,2,600,1,0,2,5,4,3,0,1,400,250.0,train,5,E-
216.497898102,5,600,0,1,2,5,4,3,0,1,400,250.0,train,5,E-
455.71398735,0,600,5,1,2,5,4,3,0,1,400,250.0,train,0,E-
216.611146927,3,600,2,1,2,5,4,3,0,1,400,250.0,train,3,E-
169.270992279,5,600,0,1,2,5,4,3,0,1,400,250.0,train,5,E-
248.578071594,0,600,5,1,2,5,4,3,0,1,400,250.0,train,0,E-
359.586000443,2,600,1,1,2,5,4,3,0,1,400,250.0,train,2,E-
166.656017303,3,600,2,1,2,5,4,3,0,1,400,250.0,train,3,E-
201.209068298,4,600,3,1,2,5,4,3,0,1,400,250.0,train,4,E-
1542.59300232,5,600,0,1,2,5,4,3,0,1,400,250.0,train,5,E-
169.179916382,1,600,4,1,2,5,4,3,0,1,400,250.0,train,1,E-
1000.42510033,2,600,1,1,2,5,4,3,0,1,400,250.0,train,2,E-
41.228055954,1,600,4,1,2,5,4,3,0,1,400,250.0,train,1,E-
647.81999588,2,600,1,1,2,5,4,3,0,1,400,250.0,train,2,E-
151.793003082,0,600,5,1,2,5,4,3,0,1,400,250.0,train,0,E-
295.826911926,3,600,2,1,2,5,4,3,0,1,400,250.0,train,3,E-
7.85398483276,1,600,4,1,2,5,4,3,0,1,400,250.0,train,1,E-
23.805141449,3,600,2,0,2,5,4,3,0,1,400,250.0,train,2,E-
39.6227836609,5,600,0,1,2,5,4,3,0,1,400,250.0,train,5,E-
135.879993439,5,600,0,1,2,5,4,3,0,1,400,250.0,train,5,E-
903.956890106,3,600,2,0,2,5,4,3,0,1,400,250.0,train,2,E-
151.919841766,0,600,5,1,2,5,4,3,0,1,400,250.0,train,0,E-
231.962919235,2,600,1,1,2,5,4,3,0,1,400,250.0,train,2,E-
135.934114456,2,600,1,1,2,5,4,3,0,1,400,250.0,train,2,E-
537.07909584,1,1000,3,1,3,5,1,4,2,0,0,250.0,test,1,E-
646.129846573,3,1000,1,1,3,5,1,4,2,0,0,250.0,test,3,E-
502.060890198,3,1000,1,1,3,5,1,4,2,0,0,250.0,test,3,E-
534.108877182,1,1000,3,1,3,5,1,4,2,0,0,250.0,test,1,E-
838.152885437,3,1000,1,1,3,5,1,4,2,0,0,250.0,test,3,E-
599.141836166,5,1000,0,1,3,5,1,4,2,0,0,250.0,test,5,E-
537.101984024,0,1000,4,0,3,5,1,4,2,0,0,250.0,test,3,E-
598.028898239,1,1000,3,1,3,5,1,4,2,0,0,250.0,test,1,E-
439.033031464,1,1000,3,1,3,5,1,4,2,0,0,250.0,test,1,E-
518.059015274,5,1000,0,1,3,5,1,4,2,0,0,250.0,test,5,E-
374.294996262,1,1000,3,0,3,5,1,4,2,0,0,250.0,test,4,E-
614.151954651,0,1000,4,1,3,5,1,4,2,0,0,250.0,test,0,E-
743.425130844,4,1000,2,1,3,5,1,4,2,0,0,250.0,test,4,E-
1383.6619854,3,1000,1,1,3,5,1,4,2,0,0,250.0,test,3,E-
663.83099556,0,1000,4,1,3,5,1,4,2,0,0,250.0,test,0,E-
247.910022736,2,1000,5,0,3,5,1,4,2,0,0,250.0,test,1,E-
231.47892952,2,1000,5,0,3,5,1,4,2,0,0,250.0,test,4,E-
567.750930786,1,1000,3,1,3,5,1,4,2,0,0,250.0,test,1,E-
744.590997696,2,1000,5,1,3,5,1,4,2,0,0,250.0,test,2,E-
775.814056396,3,1000,1,1,3,5,1,4,2,0,0,250.0,test,3,E-
503.858089447,3,1000,1,1,3,5,1,4,2,0,0,250.0,test,3,E-
487.722158432,1,1000,3,1,3,5,1,4,2,0,0,250.0,test,1,E-
535.341978073,5,1000,0,1,3,5,1,4,2,0,0,250.0,test,5,E-
535.836935043,4,1000,2,1,3,5,1,4,2,0,0,250.0,test,4,E-
534.09409523,4,1000,2,1,3,5,1,4,2,0,0,250.0,test,4,E-
441.185951233,4,1000,2,1,3,5,1,4,2,0,0,250.0,test,4,E-
1510.31899452,2,1000,5,1,3,5,1,4,2,0,0,250.0,test,2,E-
758.118152618,4,1000,2,1,3,5,1,4,2,0,0,250.0,test,4,E-
982.079029083,5,1000,0,1,3,5,1,4,2,0,0,250.0,test,5,E-
1097.22304344,3,1000,1,1,3,5,1,4,2,0,0,250.0,test,3,E-
521.077156067,3,1000,1,1,3,5,1,4,2,0,0,250.0,test,3,E-
886.389970779,2,1000,5,1,3,5,1,4,2,0,0,250.0,test,2,E-
581.999063492,1,1000,3,1,3,5,1,4,2,0,0,250.0,test,1,E-
694.839000702,5,1000,0,1,3,5,1,4,2,0,0,250.0,test,5,E-
789.670944214,4,1000,2,1,3,5,1,4,2,0,0,250.0,test,4,E-
1463.71817589,0,1000,4,1,3,5,1,4,2,0,0,250.0,test,0,E-
775.026082993,2,1000,5,1,3,5,1,4,2,0,0,250.0,test,2,E-
551.659107208,2,1000,5,1,3,5,1,4,2,0,0,250.0,test,2,E-
726.131916046,4,1000,2,1,3,5,1,4,2,0,0,250.0,test,4,E-
662.050962448,3,1000,1,1,3,5,1,4,2,0,0,250.0,test,3,E-
550.215005875,3,1000,1,1,3,5,1,4,2,0,0,250.0,test,3,E-
919.653177261,2,1000,5,1,3,5,1,4,2,0,0,250.0,test,2,E-
391.77107811,1,1000,3,1,3,5,1,4,2,0,0,250.0,test,1,E-
647.917985916,3,1000,1,1,3,5,1,4,2,0,0,250.0,test,3,E-
775.748968124,0,1000,4,1,3,5,1,4,2,0,0,250.0,test,0,E-
983.876943588,4,1000,2,1,3,5,1,4,2,0,0,250.0,test,4,E-
583.789825439,1,1000,3,1,3,5,1,4,2,0,0,250.0,test,1,E-
807.271957397,0,1000,4,1,3,5,1,4,2,0,0,250.0,test,0,E-
663.882017136,5,1000,0,1,3,5,1,4,2,0,0,250.0,test,5,E-
807.792901993,4,1000,2,1,3,5,1,4,2,0,0,250.0,test,4,E-
600.010871887,5,1000,0,1,3,5,1,4,2,0,0,250.0,test,5,E-
1304.03590202,2,1000,5,1,3,5,1,4,2,0,0,250.0,test,2,E-
758.073091507,0,1000,4,1,3,5,1,4,2,0,0,250.0,test,0,E-
745.032072067,1,1000,3,1,3,5,1,4,2,0,0,250.0,test,1,E-
629.987955093,4,1000,2,1,3,5,1,4,2,0,0,250.0,test,4,E-
503.476142883,4,1000,2,1,3,5,1,4,2,0,0,250.0,test,4,E-
679.748058319,1,1000,3,1,3,5,1,4,2,0,0,250.0,test,1,E-
2073.21596146,2,1000,5,1,3,5,1,4,2,0,0,250.0,test,2,E-
758.139848709,1,1000,3,1,3,5,1,4,2,0,0,250.0,test,1,E-
791.26906395,4,1000,2,1,3,5,1,4,2,0,0,250.0,test,4,E-
758.059978485,2,1000,5,1,3,5,1,4,2,0,0,250.0,test,2,E-
470.887899399,2,1000,5,1,3,5,1,4,2,0,0,250.0,test,2,E-
791.330099106,0,1000,4,0,3,5,1,4,2,0,0,250.0,test,3,E-
2774.00612831,3,1000,1,1,3,5,1,4,2,0,0,250.0,test,3,E-
694.063186646,5,1000,0,1,3,5,1,4,2,0,0,250.0,test,5,E-
694.871902466,4,1000,2,1,3,5,1,4,2,0,0,250.0,test,4,E-
601.269960403,0,1000,4,0,3,5,1,4,2,0,0,250.0,test,3,E-
1111.7939949,4,1000,2,1,3,5,1,4,2,0,0,250.0,test,4,E-
791.434049606,4,1000,2,1,3,5,1,4,2,0,0,250.0,test,4,E-
1879.13799286,3,1000,1,1,3,5,1,4,2,0,0,250.0,test,3,E-
759.909152985,1,1000,3,1,3,5,1,4,2,0,0,250.0,test,1,E-
646.089076996,2,1000,5,0,3,5,1,4,2,0,0,250.0,test,5,E-
1959.86199379,3,1000,1,1,3,5,1,4,2,0,0,250.0,test,3,E-
950.073957443,5,1000,0,1,3,5,1,4,2,0,0,250.0,test,5,E-
615.707874298,1,1000,3,0,3,5,1,4,2,0,0,250.0,test,4,E-
695.729017258,1,1000,3,1,3,5,1,4,2,0,0,250.0,test,1,E-
663.732051849,4,1000,2,1,3,5,1,4,2,0,0,250.0,test,4,E-
583.841085434,1,1000,3,1,3,5,1,4,2,0,0,250.0,test,1,E-
823.891878128,3,1000,1,1,3,5,1,4,2,0,0,250.0,test,3,E-
774.351119995,5,1000,0,1,3,5,1,4,2,0,0,250.0,test,5,E-
455.705881119,4,1000,2,1,3,5,1,4,2,0,0,250.0,test,4,E-
584.523916245,0,1000,4,1,3,5,1,4,2,0,0,250.0,test,0,E-
486.266136169,1,1000,3,1,3,5,1,4,2,0,0,250.0,test,1,E-
441.077947617,1,1000,3,1,3,5,1,4,2,0,0,250.0,test,1,E-
457.275867462,5,1000,0,1,3,5,1,4,2,0,0,250.0,test,5,E-
425.262928009,5,1000,0,1,3,5,1,4,2,0,0,250.0,test,5,E-
502.125024796,1,1000,3,1,3,5,1,4,2,0,0,250.0,test,1,E-
757.930040359,2,1000,5,1,3,5,1,4,2,0,0,250.0,test,2,E-
614.044904709,0,1000,4,1,3,5,1,4,2,0,0,250.0,test,0,E-
790.071964264,2,1000,5,1,3,5,1,4,2,0,0,250.0,test,2,E-
665.111064911,2,1000,5,1,3,5,1,4,2,0,0,250.0,test,2,E-
582.001924515,1,1000,3,1,3,5,1,4,2,0,0,250.0,test,1,E-
695.318222046,2,1000,5,1,3,5,1,4,2,0,0,250.0,test,2,E-
326.075077057,4,1000,2,1,3,5,1,4,2,0,0,250.0,test,4,E-
438.704967499,3,1000,1,1,3,5,1,4,2,0,0,250.0,test,3,E-
342.107057571,2,1000,5,1,3,5,1,4,2,0,0,250.0,test,2,E-
535.592079163,3,1000,1,0,3,5,1,4,2,0,0,250.0,test,2,E-
886.204004288,3,1000,1,1,3,5,1,4,2,0,0,250.0,test,3,E-
599.534034729,1,1000,3,1,3,5,1,4,2,0,0,250.0,test,1,E-
551.628828049,0,1000,4,1,3,5,1,4,2,0,0,250.0,test,0,E-
518.502950668,2,1000,5,0,3,5,1,4,2,0,0,250.0,test,4,E-
582.159996033,3,1000,1,0,3,5,1,4,2,0,0,250.0,test,2,E-
759.75394249,0,1000,4,1,3,5,1,4,2,0,0,250.0,test,0,E-
647.82500267,2,1000,5,1,3,5,1,4,2,0,0,250.0,test,2,E-
840.690851212,4,1000,2,1,3,5,1,4,2,0,0,250.0,test,4,E-
679.780960083,1,1000,3,1,3,5,1,4,2,0,0,250.0,test,1,E-
759.928226471,0,1000,4,1,3,5,1,4,2,0,0,250.0,test,0,E-
535.793066025,0,1000,4,1,3,5,1,4,2,0,0,250.0,test,0,E-
392.009973526,0,1000,4,1,3,5,1,4,2,0,0,250.0,test,0,E-
678.139925003,1,1000,3,1,3,5,1,4,2,0,0,250.0,test,1,E-
6008.0871582,0,1000,4,1,3,5,1,4,2,0,0,250.0,test,0,E-
966.113090515,2,1000,5,1,3,5,1,4,2,0,0,250.0,test,2,E-
585.144042969,0,1000,4,1,3,5,1,4,2,0,0,250.0,test,0,E-
601.246118546,2,1000,5,1,3,5,1,4,2,0,0,250.0,test,2,E-
679.048061371,3,1000,1,1,3,5,1,4,2,0,0,250.0,test,3,E-
806.07509613,3,1000,1,1,3,5,1,4,2,0,0,250.0,test,3,E-
454.168081284,3,1000,1,1,3,5,1,4,2,0,0,250.0,test,3,E-
665.383815765,4,1000,2,1,3,5,1,4,2,0,0,250.0,test,4,E-
838.017940521,2,1000,5,1,3,5,1,4,2,0,0,250.0,test,2,E-
537.06908226,2,1000,5,1,3,5,1,4,2,0,0,250.0,test,2,E-
713.387012482,1,1000,3,1,3,5,1,4,2,0,0,250.0,test,1,E-
438.12584877,1,1000,3,1,3,5,1,4,2,0,0,250.0,test,1,E-
598.191976547,0,1000,4,1,3,5,1,4,2,0,0,250.0,test,0,E-
1047.67298698,4,1000,2,1,3,5,1,4,2,0,0,250.0,test,4,E-
1079.74100113,2,1000,5,1,3,5,1,4,2,0,0,250.0,test,2,E-
615.577220917,0,1000,4,1,3,5,1,4,2,0,0,250.0,test,0,E-
806.12206459,5,1000,0,1,3,5,1,4,2,0,0,250.0,test,5,E-
598.763942719,0,1000,4,1,3,5,1,4,2,0,0,250.0,test,0,E-
471.51184082,1,1000,3,1,3,5,1,4,2,0,0,250.0,test,1,E-
534.791946411,1,1000,3,1,3,5,1,4,2,0,0,250.0,test,1,E-
919.833183289,3,1000,1,1,3,5,1,4,2,0,0,250.0,test,3,E-
567.811965942,1,1000,3,1,3,5,1,4,2,0,0,250.0,test,1,E-
855.973005295,4,1000,2,1,3,5,1,4,2,0,0,250.0,test,4,E-
583.727121353,5,1000,0,1,3,5,1,4,2,0,0,250.0,test,5,E-
663.903951645,0,1000,4,1,3,5,1,4,2,0,0,250.0,test,0,E-
583.482027054,5,1000,0,1,3,5,1,4,2,0,0,250.0,test,5,E-
566.356897354,4,1000,2,1,3,5,1,4,2,0,0,250.0,test,4,E-
551.805019379,4,1000,2,1,3,5,1,4,2,0,0,250.0,test,4,E-
759.963035583,0,1000,4,1,3,5,1,4,2,0,0,250.0,test,0,E-
791.849136353,3,1000,1,1,3,5,1,4,2,0,0,250.0,test,3,E-
568.078041077,0,1000,4,1,3,5,1,4,2,0,0,250.0,test,0,E-
505.358934402,0,1000,4,1,3,5,1,4,2,0,0,250.0,test,0,E-
519.863128662,5,1000,0,1,3,5,1,4,2,0,0,250.0,test,5,E-
486.124038696,5,1000,0,1,3,5,1,4,2,0,0,250.0,test,5,E-
567.757129669,0,1000,4,1,3,5,1,4,2,0,0,250.0,test,0,E-
633.232116699,4,1000,2,1,3,5,1,4,2,0,0,250.0,test,4,E-
676.846027374,1,1000,3,1,3,5,1,4,2,0,0,250.0,test,1,E-
534.012079239,1,1000,3,1,3,5,1,4,2,0,0,250.0,test,1,E-
454.112052917,1,1000,3,1,3,5,1,4,2,0,0,250.0,test,1,E-
966.099977493,3,1000,1,1,3,5,1,4,2,0,0,250.0,test,3,E-
937.251091003,2,1000,5,1,3,5,1,4,2,0,0,250.0,test,2,E-
566.619873047,0,1000,4,1,3,5,1,4,2,0,0,250.0,test,0,E-
598.106145859,1,1000,3,1,3,5,1,4,2,0,0,250.0,test,1,E-
648.606061935,5,1000,0,1,3,5,1,4,2,0,0,250.0,test,5,E-
726.063966751,3,1000,1,1,3,5,1,4,2,0,0,250.0,test,3,E-
662.070989609,0,1000,4,1,3,5,1,4,2,0,0,250.0,test,0,E-
550.215005875,0,1000,4,1,3,5,1,4,2,0,0,250.0,test,0,E-
549.99089241,5,1000,0,1,3,5,1,4,2,0,0,250.0,test,5,E-
630.081176758,1,1000,3,1,3,5,1,4,2,0,0,250.0,test,1,E-
713.303089142,2,1000,5,1,3,5,1,4,2,0,0,250.0,test,2,E-
519.556045532,2,1000,5,1,3,5,1,4,2,0,0,250.0,test,2,E-
599.672079086,4,1000,2,1,3,5,1,4,2,0,0,250.0,test,4,E-
600.523948669,4,1000,2,1,3,5,1,4,2,0,0,250.0,test,4,E-
615.593910217,0,1000,4,1,3,5,1,4,2,0,0,250.0,test,0,E-
550.489187241,1,1000,3,1,3,5,1,4,2,0,0,250.0,test,1,E-
663.719177246,0,1000,4,1,3,5,1,4,2,0,0,250.0,test,0,E-
566.14613533,3,1000,1,1,3,5,1,4,2,0,0,250.0,test,3,E-
551.724910736,5,1000,0,1,3,5,1,4,2,0,0,250.0,test,5,E-
486.936092377,5,1000,0,1,3,5,1,4,2,0,0,250.0,test,5,E-
615.294933319,1,1000,3,1,3,5,1,4,2,0,0,250.0,test,1,E-
615.825891495,4,1000,2,1,3,5,1,4,2,0,0,250.0,test,4,E-
757.990121841,2,1000,5,1,3,5,1,4,2,0,0,250.0,test,2,E-
599.7569561,1,1000,3,1,3,5,1,4,2,0,0,250.0,test,1,E-
408.586978912,4,1000,2,1,3,5,1,4,2,0,0,250.0,test,4,E-
633.259057999,2,1000,5,1,3,5,1,4,2,0,0,250.0,test,2,E-
551.910161972,1,1000,3,1,3,5,1,4,2,0,0,250.0,test,1,E-
583.809137344,4,1000,2,1,3,5,1,4,2,0,0,250.0,test,4,E-
455.358982086,5,1000,0,1,3,5,1,4,2,0,0,250.0,test,5,E-
518.11504364,5,1000,0,1,3,5,1,4,2,0,0,250.0,test,5,E-
343.728065491,5,1000,0,1,3,5,1,4,2,0,0,250.0,test,5,E-
663.748025894,0,1000,4,1,3,5,1,4,2,0,0,250.0,test,0,E-
502.058982849,1,1000,3,1,3,5,1,4,2,0,0,250.0,test,1,E-
518.114089966,5,1000,0,1,3,5,1,4,2,0,0,250.0,test,5,E-
582.08990097,1,1000,3,0,3,5,1,4,2,0,0,250.0,test,4,E-
662.028074265,5,1000,0,1,3,5,1,4,2,0,0,250.0,test,5,E-
518.171072006,5,1000,0,1,3,5,1,4,2,0,0,250.0,test,5,E-
1030.02595901,3,1000,1,0,3,5,1,4,2,0,0,250.0,test,2,E-
566.100120544,1,1000,3,1,3,5,1,4,2,0,0,250.0,test,1,E-
438.192129135,3,1000,1,1,3,5,1,4,2,0,0,250.0,test,3,E-
694.174051285,0,1000,4,1,3,5,1,4,2,0,0,250.0,test,0,E-
662.886857986,5,1000,0,1,3,5,1,4,2,0,0,250.0,test,5,E-
503.618001938,5,1000,0,1,3,5,1,4,2,0,0,250.0,test,5,E-
566.190958023,4,1000,2,1,3,5,1,4,2,0,0,250.0,test,4,E-
1158.20789337,2,1000,5,1,3,5,1,4,2,0,0,250.0,test,2,E-
807.622909546,2,1000,5,1,3,5,1,4,2,0,0,250.0,test,2,E-
503.613948822,5,1000,0,1,3,5,1,4,2,0,0,250.0,test,5,E-
535.832881927,4,1000,2,1,3,5,1,4,2,0,0,250.0,test,4,E-
1110.5568409,3,1000,1,1,3,5,1,4,2,0,0,250.0,test,3,E-
599.95007515,4,1000,2,1,3,5,1,4,2,0,0,250.0,test,4,E-
887.798070908,2,1000,5,1,3,5,1,4,2,0,0,250.0,test,2,E-
727.826833725,1,1000,3,1,3,5,1,4,2,0,0,250.0,test,1,E-
614.124059677,3,1000,1,1,3,5,1,4,2,0,0,250.0,test,3,E-
551.160812378,1,1000,3,1,3,5,1,4,2,0,0,250.0,test,1,E-
679.89397049,5,1000,0,1,3,5,1,4,2,0,0,250.0,test,5,E-
630.04899025,0,1000,4,1,3,5,1,4,2,0,0,250.0,test,0,E-
599.802017212,3,1000,1,1,3,5,1,4,2,0,0,250.0,test,3,E-
838.023900986,5,1000,0,1,3,5,1,4,2,0,0,250.0,test,5,E-
775.810956955,3,1000,1,1,3,5,1,4,2,0,0,250.0,test,3,E-
791.937112808,3,1000,1,1,3,5,1,4,2,0,0,250.0,test,3,E-
470.133066177,5,1000,0,1,3,5,1,4,2,0,0,250.0,test,5,E-
537.193059921,4,1000,2,1,3,5,1,4,2,0,0,250.0,test,4,E-
951.871871948,1,1000,3,1,3,5,1,4,2,0,0,250.0,test,1,E-
566.191196442,1,1000,3,1,3,5,1,4,2,0,0,250.0,test,1,E-
454.023122787,1,1000,3,1,3,5,1,4,2,0,0,250.0,test,1,E-
617.427110672,5,1000,0,1,3,5,1,4,2,0,0,250.0,test,5,E-
1335.10708809,2,1000,5,1,3,5,1,4,2,0,0,250.0,test,2,E-
569.061994553,4,1000,2,1,3,5,1,4,2,0,0,250.0,test,4,E-
598.941087723,0,1000,4,1,3,5,1,4,2,0,0,250.0,test,0,E-
566.024065018,3,1000,1,1,3,5,1,4,2,0,0,250.0,test,3,E-
790.169000626,2,1000,5,1,3,5,1,4,2,0,0,250.0,test,2,E-
774.045944214,4,1000,2,1,3,5,1,4,2,0,0,250.0,test,4,E-
725.610017776,5,1000,0,1,3,5,1,4,2,0,0,250.0,test,5,E-
630.180120468,1,1000,3,1,3,5,1,4,2,0,0,250.0,test,1,E-
486.078977585,1,1000,3,1,3,5,1,4,2,0,0,250.0,test,1,E-
486.223936081,1,1000,3,1,3,5,1,4,2,0,0,250.0,test,1,E-
551.595926285,2,1000,5,0,3,5,1,4,2,0,0,250.0,test,5,E-
599.743843079,0,1000,4,1,3,5,1,4,2,0,0,250.0,test,0,E-
1175.55904388,4,1000,2,1,3,5,1,4,2,0,0,250.0,test,4,E-
727.86283493,4,1000,2,1,3,5,1,4,2,0,0,250.0,test,4,E-
808.034896851,1,1000,3,1,3,5,1,4,2,0,0,250.0,test,1,E-
567.728996277,1,1000,3,1,3,5,1,4,2,0,0,250.0,test,1,E-
712.577819824,0,1000,4,1,3,5,1,4,2,0,0,250.0,test,0,E-
663.189888,3,1000,1,1,3,5,1,4,2,0,0,250.0,test,3,E-
583.514928818,1,1000,3,1,3,5,1,4,2,0,0,250.0,test,1,E-
694.19002533,4,1000,2,1,3,5,1,4,2,0,0,250.0,test,4,E-
616.12701416,0,1000,4,1,3,5,1,4,2,0,0,250.0,test,0,E-
759.407997131,3,1000,1,1,3,5,1,4,2,0,0,250.0,test,3,E-
488.682985306,3,1000,1,1,3,5,1,4,2,0,0,250.0,test,3,E-
550.089836121,5,1000,0,1,3,5,1,4,2,0,0,250.0,test,5,E-
1448.60482216,2,1000,5,1,3,5,1,4,2,0,0,250.0,test,2,E-
742.19083786,4,1000,2,1,3,5,1,4,2,0,0,250.0,test,4,E-
742.058992386,2,1000,5,1,3,5,1,4,2,0,0,250.0,test,2,E-
633.368968964,3,1000,1,1,3,5,1,4,2,0,0,250.0,test,3,E-
537.008047104,5,1000,0,1,3,5,1,4,2,0,0,250.0,test,5,E-
1017.22311974,2,1000,5,1,3,5,1,4,2,0,0,250.0,test,2,E-
631.516933441,1,1000,3,1,3,5,1,4,2,0,0,250.0,test,1,E-
357.985973358,0,1000,4,1,3,5,1,4,2,0,0,250.0,test,0,E-
486.124038696,5,1000,0,1,3,5,1,4,2,0,0,250.0,test,5,E-
453.975915909,4,1000,2,1,3,5,1,4,2,0,0,250.0,test,4,E-
630.14292717,5,1000,0,1,3,5,1,4,2,0,0,250.0,test,5,E-
