RT,correct_response,ms-prestimblank,curstim,correct,SRmap_1,SRmap_0,SRmap_3,SRmap_2,SRmap_5,SRmap_4,ms-precue,ntrials,type,response,condition
11663.5849476,4,1000,4,1,0,3,5,2,1,4,0,250.0,train,4,H+
3295.83215714,2,1000,2,1,0,3,5,2,1,4,0,250.0,train,2,H+
2927.81710625,3,1000,0,1,0,3,5,2,1,4,0,250.0,train,3,H+
2304.10885811,2,1000,2,1,0,3,5,2,1,4,0,250.0,train,2,H+
1008.35299492,0,1000,1,1,0,3,5,2,1,4,0,250.0,train,0,H+
976.408958435,1,1000,5,1,0,3,5,2,1,4,0,250.0,train,1,H+
672.240018845,0,1000,1,1,0,3,5,2,1,4,0,250.0,train,0,H+
1168.36500168,2,1000,2,1,0,3,5,2,1,4,0,250.0,train,2,H+
1216.68601036,3,1000,0,0,0,3,5,2,1,4,0,250.0,train,4,H+
927.937030792,4,1000,4,1,0,3,5,2,1,4,0,250.0,train,4,H+
832.216024399,3,1000,0,1,0,3,5,2,1,4,0,250.0,train,3,H+
912.184000015,0,1000,1,1,0,3,5,2,1,4,0,250.0,train,0,H+
607.964038849,1,1000,5,1,0,3,5,2,1,4,0,250.0,train,1,H+
976.348876953,3,1000,0,1,0,3,5,2,1,4,0,250.0,train,3,H+
976.161003113,5,1000,3,1,0,3,5,2,1,4,0,250.0,train,5,H+
1584.26904678,2,1000,2,1,0,3,5,2,1,4,0,250.0,train,2,H+
928.153991699,5,1000,3,1,0,3,5,2,1,4,0,250.0,train,5,H+
832.159996033,4,1000,4,1,0,3,5,2,1,4,0,250.0,train,4,H+
800.79293251,5,1000,3,1,0,3,5,2,1,4,0,250.0,train,5,H+
896.209955215,4,1000,4,0,0,3,5,2,1,4,0,250.0,train,3,H+
768.201112747,1,1000,5,0,0,3,5,2,1,4,0,250.0,train,5,H+
1488.04593086,3,1000,0,1,0,3,5,2,1,4,0,250.0,train,3,H+
1072.18003273,5,1000,3,1,0,3,5,2,1,4,0,250.0,train,5,H+
800.062894821,4,1000,4,1,0,3,5,2,1,4,0,250.0,train,4,H+
1120.1300621,2,1000,2,1,0,3,5,2,1,4,0,250.0,train,2,H+
1008.18681717,4,1000,4,1,0,3,5,2,1,4,0,250.0,train,4,H+
736.835956573,5,1000,3,1,0,3,5,2,1,4,0,250.0,train,5,H+
1472.21302986,1,1000,5,1,0,3,5,2,1,4,0,250.0,train,1,H+
1040.38214684,4,1000,4,1,0,3,5,2,1,4,0,250.0,train,4,H+
1632.22289085,1,1000,5,1,0,3,5,2,1,4,0,250.0,train,1,H+
816.362857819,0,1000,1,1,0,3,5,2,1,4,0,250.0,train,0,H+
960.376977921,2,1000,2,1,0,3,5,2,1,4,0,250.0,train,2,H+
784.358978271,2,1000,2,1,0,3,5,2,1,4,0,250.0,train,2,H+
608.252048492,2,1000,2,1,0,3,5,2,1,4,0,250.0,train,2,H+
1248.2790947,3,1000,0,1,0,3,5,2,1,4,0,250.0,train,3,H+
640.21897316,2,1000,2,1,0,3,5,2,1,4,0,250.0,train,2,H+
528.103113174,0,1000,1,1,0,3,5,2,1,4,0,250.0,train,0,H+
560.85896492,0,1000,1,1,0,3,5,2,1,4,0,250.0,train,0,H+
816.090106964,4,1000,4,1,0,3,5,2,1,4,0,250.0,train,4,H+
1136.41405106,3,1000,0,1,0,3,5,2,1,4,0,250.0,train,3,H+
448.410987854,3,1000,0,1,0,3,5,2,1,4,0,250.0,train,3,H+
560.408115387,5,1000,3,1,0,3,5,2,1,4,0,250.0,train,5,H+
480.408906937,0,1000,1,1,0,3,5,2,1,4,0,250.0,train,0,H+
607.99908638,5,1000,3,1,0,3,5,2,1,4,0,250.0,train,5,H+
720.227956772,2,1000,2,1,0,3,5,2,1,4,0,250.0,train,2,H+
720.165014267,3,1000,0,0,0,3,5,2,1,4,0,250.0,train,5,H+
672.178030014,5,1000,3,1,0,3,5,2,1,4,0,250.0,train,5,H+
1024.2729187,1,1000,5,0,0,3,5,2,1,4,0,250.0,train,3,H+
784.12103653,5,1000,3,1,0,3,5,2,1,4,0,250.0,train,5,H+
752.197980881,2,1000,2,1,0,3,5,2,1,4,0,250.0,train,2,H+
640.342950821,2,1000,2,1,0,3,5,2,1,4,0,250.0,train,2,H+
800.271034241,3,1000,0,0,0,3,5,2,1,4,0,250.0,train,1,H+
863.713979721,3,1000,0,1,0,3,5,2,1,4,0,250.0,train,3,H+
992.852926254,4,1000,4,1,0,3,5,2,1,4,0,250.0,train,4,H+
944.025039673,4,1000,4,1,0,3,5,2,1,4,0,250.0,train,4,H+
559.807062149,0,1000,1,1,0,3,5,2,1,4,0,250.0,train,0,H+
784.312963486,4,1000,4,0,0,3,5,2,1,4,0,250.0,train,3,H+
703.844070435,5,1000,3,1,0,3,5,2,1,4,0,250.0,train,5,H+
767.837047577,5,1000,3,1,0,3,5,2,1,4,0,250.0,train,5,H+
543.809890747,0,1000,1,1,0,3,5,2,1,4,0,250.0,train,0,H+
608.273983002,0,1000,1,1,0,3,5,2,1,4,0,250.0,train,0,H+
432.27314949,0,1000,1,1,0,3,5,2,1,4,0,250.0,train,0,H+
415.360927582,0,1000,1,1,0,3,5,2,1,4,0,250.0,train,0,H+
655.826091766,5,1000,3,1,0,3,5,2,1,4,0,250.0,train,5,H+
1295.78614235,1,1000,5,1,0,3,5,2,1,4,0,250.0,train,1,H+
879.665851593,4,1000,4,1,0,3,5,2,1,4,0,250.0,train,4,H+
544.312953949,0,1000,1,1,0,3,5,2,1,4,0,250.0,train,0,H+
735.990047455,4,1000,4,1,0,3,5,2,1,4,0,250.0,train,4,H+
944.315910339,3,1000,0,1,0,3,5,2,1,4,0,250.0,train,3,H+
703.93204689,1,1000,5,0,0,3,5,2,1,4,0,250.0,train,5,H+
719.909906387,2,1000,2,1,0,3,5,2,1,4,0,250.0,train,2,H+
863.7778759,3,1000,0,1,0,3,5,2,1,4,0,250.0,train,3,H+
672.288179398,2,1000,2,1,0,3,5,2,1,4,0,250.0,train,2,H+
784.416913986,4,1000,4,1,0,3,5,2,1,4,0,250.0,train,4,H+
592.044830322,0,1000,1,1,0,3,5,2,1,4,0,250.0,train,0,H+
927.938938141,3,1000,0,1,0,3,5,2,1,4,0,250.0,train,3,H+
592.319965363,2,1000,2,1,0,3,5,2,1,4,0,250.0,train,2,H+
624.891996384,5,1000,3,1,0,3,5,2,1,4,0,250.0,train,5,H+
591.830968857,2,1000,2,1,0,3,5,2,1,4,0,250.0,train,2,H+
543.875932693,2,1000,2,1,0,3,5,2,1,4,0,250.0,train,2,H+
544.267892838,0,1000,1,1,0,3,5,2,1,4,0,250.0,train,0,H+
592.298984528,2,1000,2,1,0,3,5,2,1,4,0,250.0,train,2,H+
512.825965881,0,1000,1,1,0,3,5,2,1,4,0,250.0,train,0,H+
528.790950775,0,1000,1,1,0,3,5,2,1,4,0,250.0,train,0,H+
768.707036972,3,1000,0,1,0,3,5,2,1,4,0,250.0,train,3,H+
624.800920486,4,1000,4,1,0,3,5,2,1,4,0,250.0,train,4,H+
480.810165405,4,1000,4,1,0,3,5,2,1,4,0,250.0,train,4,H+
640.7558918,2,1000,2,1,0,3,5,2,1,4,0,250.0,train,2,H+
623.831033707,3,1000,0,1,0,3,5,2,1,4,0,250.0,train,3,H+
736.261844635,3,1000,0,0,0,3,5,2,1,4,0,250.0,train,2,H+
447.876930237,3,1000,0,1,0,3,5,2,1,4,0,250.0,train,3,H+
464.355230331,0,1000,1,1,0,3,5,2,1,4,0,250.0,train,0,H+
560.207843781,0,1000,1,1,0,3,5,2,1,4,0,250.0,train,0,H+
592.012166977,5,1000,3,1,0,3,5,2,1,4,0,250.0,train,5,H+
656.116962433,5,1000,3,1,0,3,5,2,1,4,0,250.0,train,5,H+
431.712865829,5,1000,3,1,0,3,5,2,1,4,0,250.0,train,5,H+
928.265810013,3,1000,0,1,0,3,5,2,1,4,0,250.0,train,3,H+
672.185897827,1,1000,5,1,0,3,5,2,1,4,0,250.0,train,1,H+
544.718980789,1,1000,5,1,0,3,5,2,1,4,0,250.0,train,1,H+
543.724060059,5,1000,3,1,0,3,5,2,1,4,0,250.0,train,5,H+
656.28194809,1,1000,5,0,0,3,5,2,1,4,0,250.0,train,5,H+
559.798955917,5,1000,3,1,0,3,5,2,1,4,0,250.0,train,5,H+
544.270992279,0,1000,1,1,0,3,5,2,1,4,0,250.0,train,0,H+
544.039964676,5,1000,3,1,0,3,5,2,1,4,0,250.0,train,5,H+
400.000095367,5,1000,3,1,0,3,5,2,1,4,0,250.0,train,5,H+
848.948955536,4,1000,4,1,0,3,5,2,1,4,0,250.0,train,4,H+
495.940923691,0,1000,1,1,0,3,5,2,1,4,0,250.0,train,0,H+
511.621952057,2,1000,2,0,0,3,5,2,1,4,0,250.0,train,1,H+
543.854951859,0,1000,1,1,0,3,5,2,1,4,0,250.0,train,0,H+
512.705087662,0,1000,1,1,0,3,5,2,1,4,0,250.0,train,0,H+
560.085058212,2,1000,2,1,0,3,5,2,1,4,0,250.0,train,2,H+
671.869039536,4,1000,4,1,0,3,5,2,1,4,0,250.0,train,4,H+
560.02497673,1,1000,5,0,0,3,5,2,1,4,0,250.0,train,5,H+
607.854127884,3,1000,0,1,0,3,5,2,1,4,0,250.0,train,3,H+
720.008134842,4,1000,4,1,0,3,5,2,1,4,0,250.0,train,4,H+
560.050010681,4,1000,4,1,0,3,5,2,1,4,0,250.0,train,4,H+
400.002002716,4,1000,4,1,0,3,5,2,1,4,0,250.0,train,4,H+
575.875043869,1,1000,5,0,0,3,5,2,1,4,0,250.0,train,0,H+
560.060024261,2,1000,2,1,0,3,5,2,1,4,0,250.0,train,2,H+
672.728061676,1,1000,5,1,0,3,5,2,1,4,0,250.0,train,1,H+
399.991989136,1,1000,5,1,0,3,5,2,1,4,0,250.0,train,1,H+
560.475111008,2,1000,2,1,0,3,5,2,1,4,0,250.0,train,2,H+
496.398925781,4,1000,4,1,0,3,5,2,1,4,0,250.0,train,4,H+
592.844963074,1,1000,5,0,0,3,5,2,1,4,0,250.0,train,5,H+
656.715869904,5,1000,3,1,0,3,5,2,1,4,0,250.0,train,5,H+
512.833118439,5,1000,3,1,0,3,5,2,1,4,0,250.0,train,5,H+
560.798883438,0,1000,1,1,0,3,5,2,1,4,0,250.0,train,0,H+
1312.73198128,3,1000,0,1,0,3,5,2,1,4,0,250.0,train,3,H+
736.778974533,1,1000,5,1,0,3,5,2,1,4,0,250.0,train,1,H+
543.6398983,2,1000,2,1,0,3,5,2,1,4,0,250.0,train,2,H+
752.818107605,3,1000,0,1,0,3,5,2,1,4,0,250.0,train,3,H+
608.248949051,3,1000,0,1,0,3,5,2,1,4,0,250.0,train,3,H+
560.031890869,5,1000,3,1,0,3,5,2,1,4,0,250.0,train,5,H+
1008.34107399,3,1000,0,1,0,3,5,2,1,4,0,250.0,train,3,H+
639.77599144,3,1000,0,1,0,3,5,2,1,4,0,250.0,train,3,H+
511.737108231,0,1000,1,1,0,3,5,2,1,4,0,250.0,train,0,H+
815.927028656,1,1000,5,1,0,3,5,2,1,4,0,250.0,train,1,H+
623.975992203,4,1000,4,1,0,3,5,2,1,4,0,250.0,train,4,H+
592.73481369,2,1000,2,1,0,3,5,2,1,4,0,250.0,train,2,H+
608.781099319,4,1000,4,1,0,3,5,2,1,4,0,250.0,train,4,H+
607.885837555,5,1000,3,1,0,3,5,2,1,4,0,250.0,train,5,H+
559.925079346,1,1000,5,1,0,3,5,2,1,4,0,250.0,train,1,H+
528.343915939,4,1000,4,1,0,3,5,2,1,4,0,250.0,train,4,H+
672.117948532,2,1000,2,0,0,3,5,2,1,4,0,250.0,train,1,H+
703.567028046,3,1000,0,1,0,3,5,2,1,4,0,250.0,train,3,H+
831.86006546,5,1000,3,1,0,3,5,2,1,4,0,250.0,train,5,H+
624.262094498,5,1000,3,1,0,3,5,2,1,4,0,250.0,train,5,H+
575.97899437,3,1000,0,1,0,3,5,2,1,4,0,250.0,train,3,H+
575.492858887,2,1000,2,1,0,3,5,2,1,4,0,250.0,train,2,H+
832.437992096,3,1000,0,1,0,3,5,2,1,4,0,250.0,train,3,H+
544.423103333,5,1000,3,1,0,3,5,2,1,4,0,250.0,train,5,H+
736.418962479,1,1000,5,1,0,3,5,2,1,4,0,250.0,train,1,H+
496.17099762,0,1000,1,1,0,3,5,2,1,4,0,250.0,train,0,H+
543.741941452,2,1000,2,1,0,3,5,2,1,4,0,250.0,train,2,H+
544.2070961,2,1000,2,1,0,3,5,2,1,4,0,250.0,train,2,H+
480.320930481,0,1000,1,1,0,3,5,2,1,4,0,250.0,train,0,H+
624.037027359,2,1000,2,1,0,3,5,2,1,4,0,250.0,train,2,H+
447.839975357,2,1000,2,1,0,3,5,2,1,4,0,250.0,train,2,H+
863.606929779,1,1000,5,1,0,3,5,2,1,4,0,250.0,train,1,H+
463.912963867,3,1000,0,1,0,3,5,2,1,4,0,250.0,train,3,H+
623.726844788,2,1000,2,1,0,3,5,2,1,4,0,250.0,train,2,H+
718.935966492,4,1000,4,1,0,3,5,2,1,4,0,250.0,train,4,H+
527.998924255,0,1000,1,1,0,3,5,2,1,4,0,250.0,train,0,H+
1040.51613808,1,1000,5,1,0,3,5,2,1,4,0,250.0,train,1,H+
528.424024582,0,1000,1,1,0,3,5,2,1,4,0,250.0,train,0,H+
608.058214188,1,1000,5,1,0,3,5,2,1,4,0,250.0,train,1,H+
784.342050552,5,1000,3,1,0,3,5,2,1,4,0,250.0,train,5,H+
576.420783997,2,1000,2,1,0,3,5,2,1,4,0,250.0,train,2,H+
640.3901577,4,1000,4,1,0,3,5,2,1,4,0,250.0,train,4,H+
960.139036179,5,1000,3,1,0,3,5,2,1,4,0,250.0,train,5,H+
703.845024109,3,1000,0,1,0,3,5,2,1,4,0,250.0,train,3,H+
1200.33288002,4,1000,4,1,0,3,5,2,1,4,0,250.0,train,4,H+
559.315919876,2,1000,2,1,0,3,5,2,1,4,0,250.0,train,2,H+
512.358903885,5,1000,3,1,0,3,5,2,1,4,0,250.0,train,5,H+
512.024879456,0,1000,1,1,0,3,5,2,1,4,0,250.0,train,0,H+
495.99313736,2,1000,2,1,0,3,5,2,1,4,0,250.0,train,2,H+
399.533033371,2,1000,2,1,0,3,5,2,1,4,0,250.0,train,2,H+
576.488018036,3,1000,0,1,0,3,5,2,1,4,0,250.0,train,3,H+
479.998111725,0,1000,1,1,0,3,5,2,1,4,0,250.0,train,0,H+
688.247919083,4,1000,4,1,0,3,5,2,1,4,0,250.0,train,4,H+
513.026952744,4,1000,4,1,0,3,5,2,1,4,0,250.0,train,4,H+
512.762069702,3,1000,0,1,0,3,5,2,1,4,0,250.0,train,3,H+
544.278860092,0,1000,1,1,0,3,5,2,1,4,0,250.0,train,0,H+
480.772018433,5,1000,3,1,0,3,5,2,1,4,0,250.0,train,5,H+
704.836130142,1,1000,5,1,0,3,5,2,1,4,0,250.0,train,1,H+
495.759010315,0,1000,1,1,0,3,5,2,1,4,0,250.0,train,0,H+
544.04091835,5,1000,3,1,0,3,5,2,1,4,0,250.0,train,5,H+
543.851852417,4,1000,4,1,0,3,5,2,1,4,0,250.0,train,4,H+
480.333089828,5,1000,3,1,0,3,5,2,1,4,0,250.0,train,5,H+
432.351112366,5,1000,3,1,0,3,5,2,1,4,0,250.0,train,5,H+
591.965913773,1,1000,5,1,0,3,5,2,1,4,0,250.0,train,1,H+
544.128894806,4,1000,4,1,0,3,5,2,1,4,0,250.0,train,4,H+
560.333013535,2,1000,2,0,0,3,5,2,1,4,0,250.0,train,1,H+
511.595964432,0,1000,1,1,0,3,5,2,1,4,0,250.0,train,0,H+
544.296979904,1,1000,5,1,0,3,5,2,1,4,0,250.0,train,1,H+
544.049024582,1,1000,5,1,0,3,5,2,1,4,0,250.0,train,1,H+
592.094182968,2,1000,2,1,0,3,5,2,1,4,0,250.0,train,2,H+
464.272022247,0,1000,1,1,0,3,5,2,1,4,0,250.0,train,0,H+
543.926954269,5,1000,3,1,0,3,5,2,1,4,0,250.0,train,5,H+
495.846986771,0,1000,1,1,0,3,5,2,1,4,0,250.0,train,0,H+
560.230016708,1,1000,5,1,0,3,5,2,1,4,0,250.0,train,1,H+
656.83889389,3,1000,0,1,0,3,5,2,1,4,0,250.0,train,3,H+
720.381975174,1,1000,5,1,0,3,5,2,1,4,0,250.0,train,1,H+
559.813976288,1,1000,5,1,0,3,5,2,1,4,0,250.0,train,1,H+
640.289068222,5,1000,3,1,0,3,5,2,1,4,0,250.0,train,5,H+
512.284994125,5,1000,3,1,0,3,5,2,1,4,0,250.0,train,5,H+
624.047994614,2,1000,2,1,0,3,5,2,1,4,0,250.0,train,2,H+
480.102062225,0,1000,1,1,0,3,5,2,1,4,0,250.0,train,0,H+
608.438968658,1,1000,5,1,0,3,5,2,1,4,0,250.0,train,1,H+
431.90407753,2,1000,2,1,0,3,5,2,1,4,0,250.0,train,2,H+
464.454174042,0,1000,1,1,0,3,5,2,1,4,0,250.0,train,0,H+
496.277093887,5,1000,3,1,0,3,5,2,1,4,0,250.0,train,5,H+
527.874946594,2,1000,2,0,0,3,5,2,1,4,0,250.0,train,1,H+
640.406131744,3,1000,0,1,0,3,5,2,1,4,0,250.0,train,3,H+
512.439012527,0,1000,1,1,0,3,5,2,1,4,0,250.0,train,0,H+
735.918998718,4,1000,4,1,0,3,5,2,1,4,0,250.0,train,4,H+
640.310049057,1,1000,5,1,0,3,5,2,1,4,0,250.0,train,1,H+
831.507921219,1,1000,5,1,0,3,5,2,1,4,0,250.0,train,1,H+
592.408895493,3,1000,0,1,0,3,5,2,1,4,0,250.0,train,3,H+
496.373176575,0,1000,1,1,0,3,5,2,1,4,0,250.0,train,0,H+
640.822887421,4,1000,4,1,0,3,5,2,1,4,0,250.0,train,4,H+
704.782009125,3,1000,0,1,0,3,5,2,1,4,0,250.0,train,3,H+
623.794078827,4,1000,4,1,0,3,5,2,1,4,0,250.0,train,4,H+
480.859994888,4,1000,4,1,0,3,5,2,1,4,0,250.0,train,4,H+
576.149940491,5,1000,3,1,0,3,5,2,1,4,0,250.0,train,5,H+
544.061899185,4,1000,4,1,0,3,5,2,1,4,0,250.0,train,4,H+
512.125015259,4,1000,4,1,0,3,5,2,1,4,0,250.0,train,4,H+
591.686010361,0,1000,1,1,0,3,5,2,1,4,0,250.0,train,0,H+
559.772014618,1,1000,5,1,0,3,5,2,1,4,0,250.0,train,1,H+
495.77498436,0,1000,1,1,0,3,5,2,1,4,0,250.0,train,0,H+
495.552778244,2,1000,2,1,0,3,5,2,1,4,0,250.0,train,2,H+
575.683116913,4,1000,4,1,0,3,5,2,1,4,0,250.0,train,4,H+
575.819969177,2,1000,2,1,0,3,5,2,1,4,0,250.0,train,2,H+
495.805025101,5,1000,3,1,0,3,5,2,1,4,0,250.0,train,5,H+
591.84718132,1,1000,5,1,0,3,5,2,1,4,0,250.0,train,1,H+
479.622840881,0,1000,1,1,0,3,5,2,1,4,0,250.0,train,0,H+
735.923051834,1,1000,5,1,0,3,5,2,1,4,0,250.0,train,1,H+
479.900121689,4,1000,4,1,0,3,5,2,1,4,0,250.0,train,4,H+
560.873031616,1,1000,5,1,0,3,5,2,1,4,0,250.0,train,1,H+
608.790159225,2,1000,2,1,0,3,5,2,1,4,0,250.0,train,2,H+
512.670040131,4,1000,4,1,0,3,5,2,1,4,0,250.0,train,4,H+
800.409078598,0,1000,1,1,0,3,5,2,1,4,0,250.0,train,0,H+
528.692960739,0,1000,1,1,0,3,5,2,1,4,0,250.0,train,0,H+
479.854106903,1,1000,5,0,0,3,5,2,1,4,0,250.0,train,4,H+
560.786008835,4,1000,4,1,0,3,5,2,1,4,0,250.0,train,4,H+
608.033895493,3,1000,0,1,0,3,5,2,1,4,0,250.0,train,3,H+
576.652050018,4,1000,4,1,0,3,5,2,1,4,0,250.0,train,4,H+
512.830018997,0,1000,1,1,0,3,5,2,1,4,0,250.0,train,0,H+
528.382062912,4,1000,4,1,0,3,5,2,1,4,0,250.0,train,4,H+
624.488830566,2,1000,2,1,0,3,5,2,1,4,0,250.0,train,2,H+
815.901994705,1,1000,5,1,0,3,5,2,1,4,0,250.0,test,1,H+
640.380859375,3,1000,0,1,0,3,5,2,1,4,0,250.0,test,3,H+
592.263936996,5,1000,3,1,0,3,5,2,1,4,0,250.0,test,5,H+
911.972999573,3,1000,0,1,0,3,5,2,1,4,0,250.0,test,3,H+
752.022981644,3,1000,0,1,0,3,5,2,1,4,0,250.0,test,3,H+
512.219905853,1,1000,5,1,0,3,5,2,1,4,0,250.0,test,1,H+
512.343168259,1,1000,5,1,0,3,5,2,1,4,0,250.0,test,1,H+
496.007919312,0,1000,1,1,0,3,5,2,1,4,0,250.0,test,0,H+
528.267145157,4,1000,4,1,0,3,5,2,1,4,0,250.0,test,4,H+
464.405059814,5,1000,3,1,0,3,5,2,1,4,0,250.0,test,5,H+
464.018106461,0,1000,1,1,0,3,5,2,1,4,0,250.0,test,0,H+
352.313995361,4,1000,4,0,0,3,5,2,1,4,0,250.0,test,1,H+
495.932102203,0,1000,1,1,0,3,5,2,1,4,0,250.0,test,0,H+
672.263145447,2,1000,2,1,0,3,5,2,1,4,0,250.0,test,2,H+
543.886184692,4,1000,4,1,0,3,5,2,1,4,0,250.0,test,4,H+
512.450933456,4,1000,4,1,0,3,5,2,1,4,0,250.0,test,4,H+
688.02690506,2,1000,2,1,0,3,5,2,1,4,0,250.0,test,2,H+
495.997190475,5,1000,3,1,0,3,5,2,1,4,0,250.0,test,5,H+
495.879888535,3,1000,0,0,0,3,5,2,1,4,0,250.0,test,4,H+
591.663122177,0,1000,1,1,0,3,5,2,1,4,0,250.0,test,0,H+
480.041027069,1,1000,5,1,0,3,5,2,1,4,0,250.0,test,1,H+
816.815137863,0,1000,1,1,0,3,5,2,1,4,0,250.0,test,0,H+
528.876066208,2,1000,2,1,0,3,5,2,1,4,0,250.0,test,2,H+
496.803998947,3,1000,0,0,0,3,5,2,1,4,0,250.0,test,2,H+
560.82701683,3,1000,0,1,0,3,5,2,1,4,0,250.0,test,3,H+
480.134010315,5,1000,3,1,0,3,5,2,1,4,0,250.0,test,5,H+
496.803998947,0,1000,1,1,0,3,5,2,1,4,0,250.0,test,0,H+
544.179916382,3,1000,0,1,0,3,5,2,1,4,0,250.0,test,3,H+
576.852083206,2,1000,2,1,0,3,5,2,1,4,0,250.0,test,2,H+
480.165958405,4,1000,4,0,0,3,5,2,1,4,0,250.0,test,3,H+
672.88684845,1,1000,5,1,0,3,5,2,1,4,0,250.0,test,1,H+
480.78584671,1,1000,5,1,0,3,5,2,1,4,0,250.0,test,1,H+
560.350179672,2,1000,2,1,0,3,5,2,1,4,0,250.0,test,2,H+
480.901002884,0,1000,1,1,0,3,5,2,1,4,0,250.0,test,0,H+
496.231079102,5,1000,3,1,0,3,5,2,1,4,0,250.0,test,5,H+
560.714006424,2,1000,2,1,0,3,5,2,1,4,0,250.0,test,2,H+
479.482889175,1,1000,5,1,0,3,5,2,1,4,0,250.0,test,1,H+
544.651031494,1,1000,5,1,0,3,5,2,1,4,0,250.0,test,1,H+
544.079780579,4,1000,4,1,0,3,5,2,1,4,0,250.0,test,4,H+
624.292850494,4,1000,4,1,0,3,5,2,1,4,0,250.0,test,4,H+
543.862104416,3,1000,0,1,0,3,5,2,1,4,0,250.0,test,3,H+
527.807950974,1,1000,5,1,0,3,5,2,1,4,0,250.0,test,1,H+
608.720064163,3,1000,0,1,0,3,5,2,1,4,0,250.0,test,3,H+
496.31690979,5,1000,3,1,0,3,5,2,1,4,0,250.0,test,5,H+
480.329036713,5,1000,3,1,0,3,5,2,1,4,0,250.0,test,5,H+
447.973012924,3,1000,0,1,0,3,5,2,1,4,0,250.0,test,3,H+
591.959953308,1,1000,5,1,0,3,5,2,1,4,0,250.0,test,1,H+
544.770956039,4,1000,4,1,0,3,5,2,1,4,0,250.0,test,4,H+
511.869192123,4,1000,4,1,0,3,5,2,1,4,0,250.0,test,4,H+
784.358024597,5,1000,3,1,0,3,5,2,1,4,0,250.0,test,5,H+
528.32698822,4,1000,4,1,0,3,5,2,1,4,0,250.0,test,4,H+
543.920040131,0,1000,1,1,0,3,5,2,1,4,0,250.0,test,0,H+
480.226993561,0,1000,1,1,0,3,5,2,1,4,0,250.0,test,0,H+
335.676193237,0,1000,1,1,0,3,5,2,1,4,0,250.0,test,0,H+
543.855905533,2,1000,2,1,0,3,5,2,1,4,0,250.0,test,2,H+
496.502161026,1,1000,5,1,0,3,5,2,1,4,0,250.0,test,1,H+
271.859169006,1,1000,5,1,0,3,5,2,1,4,0,250.0,test,1,H+
559.866189957,5,1000,3,1,0,3,5,2,1,4,0,250.0,test,5,H+
432.307004929,0,1000,1,1,0,3,5,2,1,4,0,250.0,test,0,H+
416.381120682,2,1000,2,0,0,3,5,2,1,4,0,250.0,test,0,H+
608.234882355,4,1000,4,1,0,3,5,2,1,4,0,250.0,test,4,H+
591.747999191,3,1000,0,1,0,3,5,2,1,4,0,250.0,test,3,H+
495.862960815,5,1000,3,1,0,3,5,2,1,4,0,250.0,test,5,H+
447.901010513,0,1000,1,1,0,3,5,2,1,4,0,250.0,test,0,H+
511.826992035,0,1000,1,1,0,3,5,2,1,4,0,250.0,test,0,H+
464.272975922,3,1000,0,0,0,3,5,2,1,4,0,250.0,test,4,H+
463.788032532,0,1000,1,1,0,3,5,2,1,4,0,250.0,test,0,H+
528.370857239,2,1000,2,1,0,3,5,2,1,4,0,250.0,test,2,H+
496.34885788,0,1000,1,1,0,3,5,2,1,4,0,250.0,test,0,H+
543.80106926,2,1000,2,1,0,3,5,2,1,4,0,250.0,test,2,H+
528.047084808,5,1000,3,1,0,3,5,2,1,4,0,250.0,test,5,H+
656.258821487,4,1000,4,1,0,3,5,2,1,4,0,250.0,test,4,H+
464.275121689,5,1000,3,1,0,3,5,2,1,4,0,250.0,test,5,H+
464.282989502,3,1000,0,1,0,3,5,2,1,4,0,250.0,test,3,H+
512.281179428,0,1000,1,1,0,3,5,2,1,4,0,250.0,test,0,H+
800.355911255,1,1000,5,1,0,3,5,2,1,4,0,250.0,test,1,H+
544.867992401,4,1000,4,1,0,3,5,2,1,4,0,250.0,test,4,H+
448.054790497,4,1000,4,1,0,3,5,2,1,4,0,250.0,test,4,H+
560.870885849,3,1000,0,1,0,3,5,2,1,4,0,250.0,test,3,H+
543.962955475,3,1000,0,1,0,3,5,2,1,4,0,250.0,test,3,H+
400.082111359,4,1000,4,0,0,3,5,2,1,4,0,250.0,test,3,H+
480.849981308,0,1000,1,1,0,3,5,2,1,4,0,250.0,test,0,H+
512.768030167,2,1000,2,1,0,3,5,2,1,4,0,250.0,test,2,H+
559.782028198,2,1000,2,1,0,3,5,2,1,4,0,250.0,test,2,H+
544.429063797,5,1000,3,1,0,3,5,2,1,4,0,250.0,test,5,H+
303.912162781,4,1000,4,0,0,3,5,2,1,4,0,250.0,test,3,H+
447.737932205,5,1000,3,1,0,3,5,2,1,4,0,250.0,test,5,H+
464.025020599,2,1000,2,0,0,3,5,2,1,4,0,250.0,test,4,H+
575.809001923,4,1000,4,1,0,3,5,2,1,4,0,250.0,test,4,H+
496.130943298,3,1000,0,1,0,3,5,2,1,4,0,250.0,test,3,H+
464.147806168,3,1000,0,1,0,3,5,2,1,4,0,250.0,test,3,H+
383.947849274,2,1000,2,1,0,3,5,2,1,4,0,250.0,test,2,H+
543.876171112,4,1000,4,1,0,3,5,2,1,4,0,250.0,test,4,H+
576.342105865,4,1000,4,0,0,3,5,2,1,4,0,250.0,test,3,H+
527.917146683,3,1000,0,1,0,3,5,2,1,4,0,250.0,test,3,H+
592.066049576,2,1000,2,1,0,3,5,2,1,4,0,250.0,test,2,H+
464.323043823,2,1000,2,0,0,3,5,2,1,4,0,250.0,test,3,H+
496.407032013,4,1000,4,1,0,3,5,2,1,4,0,250.0,test,4,H+
864.269971848,1,1000,5,1,0,3,5,2,1,4,0,250.0,test,1,H+
528.803110123,3,1000,0,1,0,3,5,2,1,4,0,250.0,test,3,H+
368.78991127,3,1000,0,1,0,3,5,2,1,4,0,250.0,test,3,H+
351.87292099,3,1000,0,1,0,3,5,2,1,4,0,250.0,test,3,H+
448.828935623,3,1000,0,1,0,3,5,2,1,4,0,250.0,test,3,H+
368.78991127,3,1000,0,1,0,3,5,2,1,4,0,250.0,test,3,H+
208.801031113,4,1000,4,0,0,3,5,2,1,4,0,250.0,test,3,H+
512.710094452,3,1000,0,1,0,3,5,2,1,4,0,250.0,test,3,H+
544.872045517,0,1000,1,1,0,3,5,2,1,4,0,250.0,test,0,H+
512.183189392,2,1000,2,0,0,3,5,2,1,4,0,250.0,test,3,H+
512.78591156,0,1000,1,1,0,3,5,2,1,4,0,250.0,test,0,H+
544.192075729,2,1000,2,1,0,3,5,2,1,4,0,250.0,test,2,H+
576.677799225,3,1000,0,1,0,3,5,2,1,4,0,250.0,test,3,H+
432.105064392,3,1000,0,1,0,3,5,2,1,4,0,250.0,test,3,H+
496.785163879,4,1000,4,1,0,3,5,2,1,4,0,250.0,test,4,H+
544.000148773,2,1000,2,1,0,3,5,2,1,4,0,250.0,test,2,H+
496.773958206,5,1000,3,1,0,3,5,2,1,4,0,250.0,test,5,H+
432.137966156,5,1000,3,1,0,3,5,2,1,4,0,250.0,test,5,H+
464.78509903,3,1000,0,1,0,3,5,2,1,4,0,250.0,test,3,H+
496.160984039,4,1000,4,1,0,3,5,2,1,4,0,250.0,test,4,H+
560.769081116,1,1000,5,1,0,3,5,2,1,4,0,250.0,test,1,H+
432.190895081,0,1000,1,0,0,3,5,2,1,4,0,250.0,test,2,H+
511.510848999,5,1000,3,1,0,3,5,2,1,4,0,250.0,test,5,H+
464.388847351,0,1000,1,1,0,3,5,2,1,4,0,250.0,test,0,H+
640.230894089,2,1000,2,1,0,3,5,2,1,4,0,250.0,test,2,H+
592.241048813,3,1000,0,1,0,3,5,2,1,4,0,250.0,test,3,H+
591.954946518,1,1000,5,1,0,3,5,2,1,4,0,250.0,test,1,H+
416.154146194,0,1000,1,1,0,3,5,2,1,4,0,250.0,test,0,H+
383.813142776,0,1000,1,1,0,3,5,2,1,4,0,250.0,test,0,H+
368.249177933,3,1000,0,0,0,3,5,2,1,4,0,250.0,test,0,H+
560.23812294,5,1000,3,1,0,3,5,2,1,4,0,250.0,test,5,H+
495.921850204,2,1000,2,1,0,3,5,2,1,4,0,250.0,test,2,H+
560.383081436,3,1000,0,0,0,3,5,2,1,4,0,250.0,test,4,H+
608.332872391,4,1000,4,1,0,3,5,2,1,4,0,250.0,test,4,H+
527.601957321,0,1000,1,1,0,3,5,2,1,4,0,250.0,test,0,H+
464.224815369,1,1000,5,1,0,3,5,2,1,4,0,250.0,test,1,H+
463.790178299,5,1000,3,0,0,3,5,2,1,4,0,250.0,test,4,H+
544.162988663,1,1000,5,1,0,3,5,2,1,4,0,250.0,test,1,H+
544.263839722,4,1000,4,1,0,3,5,2,1,4,0,250.0,test,4,H+
560.220003128,2,1000,2,1,0,3,5,2,1,4,0,250.0,test,2,H+
592.086076736,3,1000,0,1,0,3,5,2,1,4,0,250.0,test,3,H+
560.22810936,2,1000,2,1,0,3,5,2,1,4,0,250.0,test,2,H+
448.688983917,2,1000,2,1,0,3,5,2,1,4,0,250.0,test,2,H+
528.002977371,4,1000,4,1,0,3,5,2,1,4,0,250.0,test,4,H+
495.802879333,5,1000,3,1,0,3,5,2,1,4,0,250.0,test,5,H+
400.521993637,1,1000,5,0,0,3,5,2,1,4,0,250.0,test,3,H+
560.859918594,3,1000,0,1,0,3,5,2,1,4,0,250.0,test,3,H+
607.988834381,1,1000,5,1,0,3,5,2,1,4,0,250.0,test,1,H+
512.186050415,2,1000,2,1,0,3,5,2,1,4,0,250.0,test,2,H+
495.876073837,1,1000,5,1,0,3,5,2,1,4,0,250.0,test,1,H+
320.242881775,1,1000,5,0,0,3,5,2,1,4,0,250.0,test,2,H+
751.928091049,3,1000,0,1,0,3,5,2,1,4,0,250.0,test,3,H+
576.323032379,4,1000,4,1,0,3,5,2,1,4,0,250.0,test,4,H+
464.291095734,2,1000,2,0,0,3,5,2,1,4,0,250.0,test,3,H+
544.130086899,1,1000,5,1,0,3,5,2,1,4,0,250.0,test,1,H+
480.266094208,3,1000,0,1,0,3,5,2,1,4,0,250.0,test,3,H+
559.940814972,5,1000,3,1,0,3,5,2,1,4,0,250.0,test,5,H+
447.837114334,5,1000,3,0,0,3,5,2,1,4,0,250.0,test,3,H+
543.828964233,4,1000,4,1,0,3,5,2,1,4,0,250.0,test,4,H+
1456.17890358,1,1000,5,1,0,3,5,2,1,4,0,250.0,test,1,H+
496.209144592,3,1000,0,1,0,3,5,2,1,4,0,250.0,test,3,H+
527.806043625,1,1000,5,1,0,3,5,2,1,4,0,250.0,test,1,H+
528.088092804,4,1000,4,1,0,3,5,2,1,4,0,250.0,test,4,H+
480.227947235,1,1000,5,1,0,3,5,2,1,4,0,250.0,test,1,H+
480.134010315,0,1000,1,1,0,3,5,2,1,4,0,250.0,test,0,H+
496.128082275,4,1000,4,1,0,3,5,2,1,4,0,250.0,test,4,H+
496.119976044,2,1000,2,1,0,3,5,2,1,4,0,250.0,test,2,H+
544.29101944,2,1000,2,1,0,3,5,2,1,4,0,250.0,test,2,H+
496.211051941,5,1000,3,1,0,3,5,2,1,4,0,250.0,test,5,H+
544.278144836,1,1000,5,0,0,3,5,2,1,4,0,250.0,test,0,H+
480.854034424,5,1000,3,1,0,3,5,2,1,4,0,250.0,test,5,H+
480.220079422,5,1000,3,1,0,3,5,2,1,4,0,250.0,test,5,H+
448.363780975,3,1000,0,0,0,3,5,2,1,4,0,250.0,test,1,H+
480.262994766,2,1000,2,1,0,3,5,2,1,4,0,250.0,test,2,H+
528.458833694,2,1000,2,1,0,3,5,2,1,4,0,250.0,test,2,H+
496.459960938,5,1000,3,1,0,3,5,2,1,4,0,250.0,test,5,H+
592.265129089,4,1000,4,1,0,3,5,2,1,4,0,250.0,test,4,H+
511.964797974,1,1000,5,1,0,3,5,2,1,4,0,250.0,test,1,H+
512.249946594,2,1000,2,1,0,3,5,2,1,4,0,250.0,test,2,H+
640.290021896,4,1000,4,1,0,3,5,2,1,4,0,250.0,test,4,H+
512.196063995,2,1000,2,1,0,3,5,2,1,4,0,250.0,test,2,H+
432.193994522,2,1000,2,1,0,3,5,2,1,4,0,250.0,test,2,H+
384.248018265,2,1000,2,1,0,3,5,2,1,4,0,250.0,test,2,H+
384.318113327,5,1000,3,0,0,3,5,2,1,4,0,250.0,test,0,H+
496.245145798,5,1000,3,1,0,3,5,2,1,4,0,250.0,test,5,H+
384.141921997,5,1000,3,1,0,3,5,2,1,4,0,250.0,test,5,H+
607.931852341,3,1000,0,1,0,3,5,2,1,4,0,250.0,test,3,H+
384.413957596,3,1000,0,1,0,3,5,2,1,4,0,250.0,test,3,H+
544.344902039,1,1000,5,1,0,3,5,2,1,4,0,250.0,test,1,H+
496.222019196,1,1000,5,1,0,3,5,2,1,4,0,250.0,test,1,H+
496.012926102,0,1000,1,1,0,3,5,2,1,4,0,250.0,test,0,H+
592.229127884,3,1000,0,1,0,3,5,2,1,4,0,250.0,test,3,H+
511.543035507,4,1000,4,1,0,3,5,2,1,4,0,250.0,test,4,H+
384.047985077,3,1000,0,1,0,3,5,2,1,4,0,250.0,test,3,H+
447.611808777,1,1000,5,1,0,3,5,2,1,4,0,250.0,test,1,H+
528.845071793,5,1000,3,1,0,3,5,2,1,4,0,250.0,test,5,H+
431.437969208,1,1000,5,1,0,3,5,2,1,4,0,250.0,test,1,H+
496.783971786,0,1000,1,1,0,3,5,2,1,4,0,250.0,test,0,H+
447.509050369,0,1000,1,1,0,3,5,2,1,4,0,250.0,test,0,H+
480.633020401,3,1000,0,0,0,3,5,2,1,4,0,250.0,test,4,H+
608.04605484,4,1000,4,1,0,3,5,2,1,4,0,250.0,test,4,H+
576.293945312,4,1000,4,1,0,3,5,2,1,4,0,250.0,test,4,H+
512.438058853,2,1000,2,1,0,3,5,2,1,4,0,250.0,test,2,H+
560.297012329,4,1000,4,0,0,3,5,2,1,4,0,250.0,test,3,H+
560.876846313,2,1000,2,1,0,3,5,2,1,4,0,250.0,test,2,H+
512.740135193,3,1000,0,0,0,3,5,2,1,4,0,250.0,test,4,H+
496.12903595,1,1000,5,1,0,3,5,2,1,4,0,250.0,test,1,H+
415.821075439,2,1000,2,1,0,3,5,2,1,4,0,250.0,test,2,H+
479.997158051,4,1000,4,1,0,3,5,2,1,4,0,250.0,test,4,H+
735.78286171,3,1000,0,1,0,3,5,2,1,4,0,250.0,test,3,H+
495.95785141,3,1000,0,1,0,3,5,2,1,4,0,250.0,test,3,H+
527.806043625,3,1000,0,1,0,3,5,2,1,4,0,250.0,test,3,H+
511.73210144,3,1000,0,1,0,3,5,2,1,4,0,250.0,test,3,H+
496.397972107,0,1000,1,1,0,3,5,2,1,4,0,250.0,test,0,H+
527.863025665,3,1000,0,1,0,3,5,2,1,4,0,250.0,test,3,H+
464.313983917,4,1000,4,0,0,3,5,2,1,4,0,250.0,test,1,H+
511.408805847,2,1000,2,1,0,3,5,2,1,4,0,250.0,test,2,H+
464.682817459,3,1000,0,0,0,3,5,2,1,4,0,250.0,test,4,H+
608.334064484,4,1000,4,1,0,3,5,2,1,4,0,250.0,test,4,H+
464.265823364,4,1000,4,1,0,3,5,2,1,4,0,250.0,test,4,H+
528.546094894,0,1000,1,1,0,3,5,2,1,4,0,250.0,test,0,H+
543.982028961,4,1000,4,1,0,3,5,2,1,4,0,250.0,test,4,H+
559.861898422,2,1000,2,1,0,3,5,2,1,4,0,250.0,test,2,H+
512.313127518,4,1000,4,1,0,3,5,2,1,4,0,250.0,test,4,H+
560.024023056,3,1000,0,1,0,3,5,2,1,4,0,250.0,test,3,H+
432.698011398,2,1000,2,1,0,3,5,2,1,4,0,250.0,test,2,H+
464.294910431,2,1000,2,1,0,3,5,2,1,4,0,250.0,test,2,H+
464.885950089,2,1000,2,1,0,3,5,2,1,4,0,250.0,test,2,H+
576.810121536,3,1000,0,1,0,3,5,2,1,4,0,250.0,test,3,H+
512.979030609,0,1000,1,1,0,3,5,2,1,4,0,250.0,test,0,H+
448.799848557,0,1000,1,0,0,3,5,2,1,4,0,250.0,test,2,H+
496.770858765,5,1000,3,1,0,3,5,2,1,4,0,250.0,test,5,H+
416.718959808,5,1000,3,1,0,3,5,2,1,4,0,250.0,test,5,H+
544.151067734,4,1000,4,1,0,3,5,2,1,4,0,250.0,test,4,H+
512.213945389,3,1000,0,1,0,3,5,2,1,4,0,250.0,test,3,H+
560.836076736,4,1000,4,1,0,3,5,2,1,4,0,250.0,test,4,H+
480.795145035,0,1000,1,1,0,3,5,2,1,4,0,250.0,test,0,H+
464.183092117,0,1000,1,1,0,3,5,2,1,4,0,250.0,test,0,H+
592.242956161,1,1000,5,1,0,3,5,2,1,4,0,250.0,test,1,H+
479.917049408,5,1000,3,1,0,3,5,2,1,4,0,250.0,test,5,H+
544.303894043,2,1000,2,1,0,3,5,2,1,4,0,250.0,test,2,H+
448.780059814,5,1000,3,1,0,3,5,2,1,4,0,250.0,test,5,H+
512.794017792,1,1000,5,1,0,3,5,2,1,4,0,250.0,test,1,H+
528.778076172,3,1000,0,1,0,3,5,2,1,4,0,250.0,test,3,H+
352.782964706,3,1000,0,1,0,3,5,2,1,4,0,250.0,test,3,H+
464.771032333,0,1000,1,1,0,3,5,2,1,4,0,250.0,test,0,H+
464.782953262,0,1000,1,1,0,3,5,2,1,4,0,250.0,test,0,H+
560.803890228,1,1000,5,1,0,3,5,2,1,4,0,250.0,test,1,H+
496.891021729,1,1000,5,1,0,3,5,2,1,4,0,250.0,test,1,H+
656.831979752,4,1000,4,0,0,3,5,2,1,4,0,250.0,test,3,H+
576.8699646,3,1000,0,1,0,3,5,2,1,4,0,250.0,test,3,H+
512.892007828,1,1000,5,1,0,3,5,2,1,4,0,250.0,test,1,H+
