RT,correct_response,ms-prestimblank,curstim,correct,SRmap_1,SRmap_0,SRmap_3,SRmap_2,SRmap_5,SRmap_4,ms-precue,ntrials,type,response,condition
4223.68621826,1,1000,0,1,5,1,4,2,0,3,0,250.0,train,1,H-
1055.83906174,1,1000,0,1,5,1,4,2,0,3,0,250.0,train,1,H-
784.324884415,0,1000,5,1,5,1,4,2,0,3,0,250.0,train,0,H-
1040.33017159,1,1000,0,1,5,1,4,2,0,3,0,250.0,train,1,H-
1760.27703285,2,1000,2,0,5,1,4,2,0,3,0,250.0,train,1,H-
1216.18199348,4,1000,3,1,5,1,4,2,0,3,0,250.0,train,4,H-
1152.37092972,2,1000,2,0,5,1,4,2,0,3,0,250.0,train,1,H-
688.234090805,2,1000,2,1,5,1,4,2,0,3,0,250.0,train,2,H-
848.295927048,1,1000,0,1,5,1,4,2,0,3,0,250.0,train,1,H-
1328.22203636,4,1000,3,1,5,1,4,2,0,3,0,250.0,train,4,H-
1008.77189636,2,1000,2,1,5,1,4,2,0,3,0,250.0,train,2,H-
1520.42388916,5,1000,1,1,5,1,4,2,0,3,0,250.0,train,5,H-
1152.31108665,3,1000,4,1,5,1,4,2,0,3,0,250.0,train,3,H-
848.035812378,0,1000,5,1,5,1,4,2,0,3,0,250.0,train,0,H-
688.40098381,3,1000,4,1,5,1,4,2,0,3,0,250.0,train,3,H-
656.414031982,1,1000,0,1,5,1,4,2,0,3,0,250.0,train,1,H-
416.110992432,2,1000,2,1,5,1,4,2,0,3,0,250.0,train,2,H-
431.719064713,2,1000,2,1,5,1,4,2,0,3,0,250.0,train,2,H-
416.093826294,2,1000,2,1,5,1,4,2,0,3,0,250.0,train,2,H-
544.646024704,2,1000,2,1,5,1,4,2,0,3,0,250.0,train,2,H-
560.245037079,3,1000,4,1,5,1,4,2,0,3,0,250.0,train,3,H-
560.325860977,2,1000,2,1,5,1,4,2,0,3,0,250.0,train,2,H-
624.307870865,0,1000,5,1,5,1,4,2,0,3,0,250.0,train,0,H-
592.221975327,3,1000,4,1,5,1,4,2,0,3,0,250.0,train,3,H-
511.783838272,3,1000,4,1,5,1,4,2,0,3,0,250.0,train,3,H-
592.38409996,4,1000,3,1,5,1,4,2,0,3,0,250.0,train,4,H-
432.411909103,3,1000,4,1,5,1,4,2,0,3,0,250.0,train,3,H-
559.99994278,5,1000,1,1,5,1,4,2,0,3,0,250.0,train,5,H-
544.130086899,2,1000,2,0,5,1,4,2,0,3,0,250.0,train,3,H-
864.331960678,4,1000,3,1,5,1,4,2,0,3,0,250.0,train,4,H-
672.301054001,4,1000,3,1,5,1,4,2,0,3,0,250.0,train,4,H-
623.829126358,5,1000,1,1,5,1,4,2,0,3,0,250.0,train,5,H-
463.882923126,3,1000,4,1,5,1,4,2,0,3,0,250.0,train,3,H-
527.456998825,5,1000,1,1,5,1,4,2,0,3,0,250.0,train,5,H-
623.944997787,1,1000,0,0,5,1,4,2,0,3,0,250.0,train,2,H-
815.675973892,4,1000,3,1,5,1,4,2,0,3,0,250.0,train,4,H-
607.970952988,5,1000,1,1,5,1,4,2,0,3,0,250.0,train,5,H-
511.726140976,5,1000,1,1,5,1,4,2,0,3,0,250.0,train,5,H-
623.819112778,0,1000,5,1,5,1,4,2,0,3,0,250.0,train,0,H-
687.834024429,4,1000,3,1,5,1,4,2,0,3,0,250.0,train,4,H-
543.82109642,2,1000,2,1,5,1,4,2,0,3,0,250.0,train,2,H-
543.91503334,5,1000,1,1,5,1,4,2,0,3,0,250.0,train,5,H-
496.034860611,2,1000,2,1,5,1,4,2,0,3,0,250.0,train,2,H-
511.592149734,2,1000,2,1,5,1,4,2,0,3,0,250.0,train,2,H-
543.874979019,1,1000,0,1,5,1,4,2,0,3,0,250.0,train,1,H-
527.737855911,4,1000,3,0,5,1,4,2,0,3,0,250.0,train,3,H-
559.503078461,2,1000,2,1,5,1,4,2,0,3,0,250.0,train,2,H-
479.923009872,4,1000,3,1,5,1,4,2,0,3,0,250.0,train,4,H-
495.896100998,2,1000,2,1,5,1,4,2,0,3,0,250.0,train,2,H-
511.9099617,0,1000,5,1,5,1,4,2,0,3,0,250.0,train,0,H-
496.074914932,4,1000,3,1,5,1,4,2,0,3,0,250.0,train,4,H-
544.018030167,3,1000,4,1,5,1,4,2,0,3,0,250.0,train,3,H-
543.850183487,4,1000,3,1,5,1,4,2,0,3,0,250.0,train,4,H-
496.331930161,3,1000,4,1,5,1,4,2,0,3,0,250.0,train,3,H-
479.938030243,2,1000,2,1,5,1,4,2,0,3,0,250.0,train,2,H-
639.957904816,4,1000,3,1,5,1,4,2,0,3,0,250.0,train,4,H-
592.104911804,3,1000,4,1,5,1,4,2,0,3,0,250.0,train,3,H-
464.096069336,3,1000,4,1,5,1,4,2,0,3,0,250.0,train,3,H-
368.932962418,3,1000,4,1,5,1,4,2,0,3,0,250.0,train,3,H-
848.342895508,4,1000,3,1,5,1,4,2,0,3,0,250.0,train,4,H-
368.303060532,3,1000,4,1,5,1,4,2,0,3,0,250.0,train,3,H-
320.16992569,1,1000,0,0,5,1,4,2,0,3,0,250.0,train,3,H-
527.545928955,5,1000,1,1,5,1,4,2,0,3,0,250.0,train,5,H-
480.779886246,3,1000,4,1,5,1,4,2,0,3,0,250.0,train,3,H-
528.213024139,4,1000,3,1,5,1,4,2,0,3,0,250.0,train,4,H-
559.937000275,4,1000,3,1,5,1,4,2,0,3,0,250.0,train,4,H-
496.057033539,5,1000,1,1,5,1,4,2,0,3,0,250.0,train,5,H-
544.275045395,3,1000,4,1,5,1,4,2,0,3,0,250.0,train,3,H-
400.043964386,2,1000,2,1,5,1,4,2,0,3,0,250.0,train,2,H-
512.395143509,3,1000,4,1,5,1,4,2,0,3,0,250.0,train,3,H-
399.802923203,3,1000,4,1,5,1,4,2,0,3,0,250.0,train,3,H-
287.968873978,3,1000,4,1,5,1,4,2,0,3,0,250.0,train,3,H-
464.272975922,1,1000,0,1,5,1,4,2,0,3,0,250.0,train,1,H-
464.048862457,3,1000,4,1,5,1,4,2,0,3,0,250.0,train,3,H-
544.116973877,2,1000,2,1,5,1,4,2,0,3,0,250.0,train,2,H-
527.990102768,4,1000,3,0,5,1,4,2,0,3,0,250.0,train,5,H-
431.998968124,3,1000,4,1,5,1,4,2,0,3,0,250.0,train,3,H-
544.721841812,5,1000,1,1,5,1,4,2,0,3,0,250.0,train,5,H-
544.807910919,0,1000,5,1,5,1,4,2,0,3,0,250.0,train,0,H-
544.101953506,5,1000,1,1,5,1,4,2,0,3,0,250.0,train,5,H-
736.732006073,1,1000,0,1,5,1,4,2,0,3,0,250.0,train,1,H-
592.197179794,0,1000,5,1,5,1,4,2,0,3,0,250.0,train,0,H-
560.814857483,0,1000,5,1,5,1,4,2,0,3,0,250.0,train,0,H-
304.76808548,0,1000,5,1,5,1,4,2,0,3,0,250.0,train,0,H-
528.097867966,4,1000,3,1,5,1,4,2,0,3,0,250.0,train,4,H-
496.785879135,3,1000,4,1,5,1,4,2,0,3,0,250.0,train,3,H-
527.561903,0,1000,5,0,5,1,4,2,0,3,0,250.0,train,1,H-
640.637874603,2,1000,2,1,5,1,4,2,0,3,0,250.0,train,2,H-
448.78911972,0,1000,5,1,5,1,4,2,0,3,0,250.0,train,0,H-
496.747016907,2,1000,2,1,5,1,4,2,0,3,0,250.0,train,2,H-
575.913190842,1,1000,0,1,5,1,4,2,0,3,0,250.0,train,1,H-
560.719966888,5,1000,1,1,5,1,4,2,0,3,0,250.0,train,5,H-
495.911121368,4,1000,3,1,5,1,4,2,0,3,0,250.0,train,4,H-
480.051994324,2,1000,2,1,5,1,4,2,0,3,0,250.0,train,2,H-
560.144901276,1,1000,0,1,5,1,4,2,0,3,0,250.0,train,1,H-
720.049142838,1,1000,0,0,5,1,4,2,0,3,0,250.0,train,2,H-
560.256958008,5,1000,1,1,5,1,4,2,0,3,0,250.0,train,5,H-
496.371984482,5,1000,1,1,5,1,4,2,0,3,0,250.0,train,5,H-
479.924917221,4,1000,3,1,5,1,4,2,0,3,0,250.0,train,4,H-
544.393062592,5,1000,1,1,5,1,4,2,0,3,0,250.0,train,5,H-
559.666156769,2,1000,2,1,5,1,4,2,0,3,0,250.0,train,2,H-
415.946960449,2,1000,2,1,5,1,4,2,0,3,0,250.0,train,2,H-
272.748947144,2,1000,2,1,5,1,4,2,0,3,0,250.0,train,2,H-
480.77917099,1,1000,0,1,5,1,4,2,0,3,0,250.0,train,1,H-
496.743917465,5,1000,1,1,5,1,4,2,0,3,0,250.0,train,5,H-
464.825868607,3,1000,4,0,5,1,4,2,0,3,0,250.0,train,2,H-
544.812917709,2,1000,2,1,5,1,4,2,0,3,0,250.0,train,2,H-
688.445091248,1,1000,0,1,5,1,4,2,0,3,0,250.0,train,1,H-
576.25079155,2,1000,2,1,5,1,4,2,0,3,0,250.0,train,2,H-
576.828956604,5,1000,1,1,5,1,4,2,0,3,0,250.0,train,5,H-
576.79104805,0,1000,5,1,5,1,4,2,0,3,0,250.0,train,0,H-
448.74215126,5,1000,1,0,5,1,4,2,0,3,0,250.0,train,3,H-
608.298063278,0,1000,5,1,5,1,4,2,0,3,0,250.0,train,0,H-
528.366088867,3,1000,4,1,5,1,4,2,0,3,0,250.0,train,3,H-
560.745000839,0,1000,5,1,5,1,4,2,0,3,0,250.0,train,0,H-
576.761007309,4,1000,3,1,5,1,4,2,0,3,0,250.0,train,4,H-
672.862052917,3,1000,4,1,5,1,4,2,0,3,0,250.0,train,3,H-
576.781988144,4,1000,3,1,5,1,4,2,0,3,0,250.0,train,4,H-
480.722904205,5,1000,1,1,5,1,4,2,0,3,0,250.0,train,5,H-
656.325101852,2,1000,2,1,5,1,4,2,0,3,0,250.0,train,2,H-
623.961925507,3,1000,4,1,5,1,4,2,0,3,0,250.0,train,3,H-
719.832897186,1,1000,0,1,5,1,4,2,0,3,0,250.0,train,1,H-
528.190135956,0,1000,5,1,5,1,4,2,0,3,0,250.0,train,0,H-
703.889131546,5,1000,1,1,5,1,4,2,0,3,0,250.0,train,5,H-
575.755834579,0,1000,5,1,5,1,4,2,0,3,0,250.0,train,0,H-
783.9179039,1,1000,0,1,5,1,4,2,0,3,0,250.0,train,1,H-
496.025085449,1,1000,0,1,5,1,4,2,0,3,0,250.0,train,1,H-
575.643062592,4,1000,3,1,5,1,4,2,0,3,0,250.0,train,4,H-
543.942928314,2,1000,2,1,5,1,4,2,0,3,0,250.0,train,2,H-
528.915166855,4,1000,3,1,5,1,4,2,0,3,0,250.0,train,4,H-
527.930021286,0,1000,5,1,5,1,4,2,0,3,0,250.0,train,0,H-
447.941064835,2,1000,2,1,5,1,4,2,0,3,0,250.0,train,2,H-
528.248071671,0,1000,5,1,5,1,4,2,0,3,0,250.0,train,0,H-
479.893922806,2,1000,2,1,5,1,4,2,0,3,0,250.0,train,2,H-
559.487104416,3,1000,4,1,5,1,4,2,0,3,0,250.0,train,3,H-
575.731992722,0,1000,5,1,5,1,4,2,0,3,0,250.0,train,0,H-
591.847896576,2,1000,2,1,5,1,4,2,0,3,0,250.0,train,2,H-
495.801925659,4,1000,3,1,5,1,4,2,0,3,0,250.0,train,4,H-
495.838165283,5,1000,1,1,5,1,4,2,0,3,0,250.0,train,5,H-
591.783046722,3,1000,4,1,5,1,4,2,0,3,0,250.0,train,3,H-
399.824142456,3,1000,4,0,5,1,4,2,0,3,0,250.0,train,2,H-
495.780229568,4,1000,3,1,5,1,4,2,0,3,0,250.0,train,4,H-
639.487981796,5,1000,1,1,5,1,4,2,0,3,0,250.0,train,5,H-
559.848070145,5,1000,1,1,5,1,4,2,0,3,0,250.0,train,5,H-
544.653892517,2,1000,2,1,5,1,4,2,0,3,0,250.0,train,2,H-
655.817985535,3,1000,4,1,5,1,4,2,0,3,0,250.0,train,3,H-
687.970161438,5,1000,1,1,5,1,4,2,0,3,0,250.0,train,5,H-
720.016956329,2,1000,2,1,5,1,4,2,0,3,0,250.0,train,2,H-
639.847040176,4,1000,3,1,5,1,4,2,0,3,0,250.0,train,4,H-
527.807950974,5,1000,1,1,5,1,4,2,0,3,0,250.0,train,5,H-
511.770963669,5,1000,1,1,5,1,4,2,0,3,0,250.0,train,5,H-
511.916875839,4,1000,3,1,5,1,4,2,0,3,0,250.0,train,4,H-
1329.23102379,0,1000,5,1,5,1,4,2,0,3,0,250.0,train,0,H-
511.85798645,5,1000,1,1,5,1,4,2,0,3,0,250.0,train,5,H-
640.045166016,3,1000,4,1,5,1,4,2,0,3,0,250.0,train,3,H-
511.857032776,0,1000,5,1,5,1,4,2,0,3,0,250.0,train,0,H-
543.920993805,1,1000,0,1,5,1,4,2,0,3,0,250.0,train,1,H-
480.171203613,4,1000,3,1,5,1,4,2,0,3,0,250.0,train,4,H-
464.411973953,4,1000,3,1,5,1,4,2,0,3,0,250.0,train,4,H-
463.855981827,2,1000,2,1,5,1,4,2,0,3,0,250.0,train,2,H-
384.240150452,4,1000,3,1,5,1,4,2,0,3,0,250.0,train,4,H-
512.408018112,3,1000,4,1,5,1,4,2,0,3,0,250.0,train,3,H-
464.276075363,3,1000,4,1,5,1,4,2,0,3,0,250.0,train,3,H-
512.075901031,1,1000,0,1,5,1,4,2,0,3,0,250.0,train,1,H-
511.878013611,0,1000,5,1,5,1,4,2,0,3,0,250.0,train,0,H-
496.364116669,5,1000,1,1,5,1,4,2,0,3,0,250.0,train,5,H-
576.24912262,1,1000,0,1,5,1,4,2,0,3,0,250.0,train,1,H-
448.76408577,5,1000,1,1,5,1,4,2,0,3,0,250.0,train,5,H-
400.731801987,0,1000,5,1,5,1,4,2,0,3,0,250.0,train,0,H-
543.914079666,2,1000,2,1,5,1,4,2,0,3,0,250.0,train,2,H-
432.796001434,5,1000,1,1,5,1,4,2,0,3,0,250.0,train,5,H-
528.636217117,0,1000,5,1,5,1,4,2,0,3,0,250.0,train,0,H-
496.770858765,1,1000,0,1,5,1,4,2,0,3,0,250.0,train,1,H-
464.173078537,4,1000,3,1,5,1,4,2,0,3,0,250.0,train,4,H-
480.708122253,3,1000,4,1,5,1,4,2,0,3,0,250.0,train,3,H-
448.218107224,3,1000,4,1,5,1,4,2,0,3,0,250.0,train,3,H-
448.790073395,5,1000,1,1,5,1,4,2,0,3,0,250.0,train,5,H-
543.502807617,1,1000,0,0,5,1,4,2,0,3,0,250.0,train,3,H-
480.793952942,3,1000,4,1,5,1,4,2,0,3,0,250.0,train,3,H-
528.7129879,3,1000,4,1,5,1,4,2,0,3,0,250.0,train,3,H-
528.730869293,4,1000,3,1,5,1,4,2,0,3,0,250.0,train,4,H-
480.751037598,2,1000,2,1,5,1,4,2,0,3,0,250.0,train,2,H-
624.747037888,3,1000,4,1,5,1,4,2,0,3,0,250.0,train,3,H-
512.744903564,5,1000,1,1,5,1,4,2,0,3,0,250.0,train,5,H-
511.673927307,4,1000,3,1,5,1,4,2,0,3,0,250.0,train,4,H-
768.446922302,0,1000,5,1,5,1,4,2,0,3,0,250.0,train,0,H-
1504.32991982,3,1000,4,1,5,1,4,2,0,3,0,250.0,train,3,H-
495.750904083,5,1000,1,1,5,1,4,2,0,3,0,250.0,train,5,H-
511.754989624,2,1000,2,1,5,1,4,2,0,3,0,250.0,train,2,H-
623.778104782,3,1000,4,1,5,1,4,2,0,3,0,250.0,train,3,H-
543.807983398,5,1000,1,1,5,1,4,2,0,3,0,250.0,train,5,H-
544.788837433,4,1000,3,1,5,1,4,2,0,3,0,250.0,train,4,H-
624.394893646,2,1000,2,1,5,1,4,2,0,3,0,250.0,train,2,H-
655.862092972,5,1000,1,1,5,1,4,2,0,3,0,250.0,train,5,H-
624.747037888,0,1000,5,1,5,1,4,2,0,3,0,250.0,train,0,H-
400.151968002,0,1000,5,1,5,1,4,2,0,3,0,250.0,train,0,H-
575.819015503,2,1000,2,1,5,1,4,2,0,3,0,250.0,train,2,H-
447.97706604,2,1000,2,1,5,1,4,2,0,3,0,250.0,train,2,H-
544.085025787,1,1000,0,1,5,1,4,2,0,3,0,250.0,train,1,H-
384.041070938,1,1000,0,1,5,1,4,2,0,3,0,250.0,train,1,H-
432.414054871,5,1000,1,1,5,1,4,2,0,3,0,250.0,train,5,H-
464.335918427,1,1000,0,1,5,1,4,2,0,3,0,250.0,train,1,H-
592.823982239,2,1000,2,1,5,1,4,2,0,3,0,250.0,train,2,H-
496.786117554,4,1000,3,1,5,1,4,2,0,3,0,250.0,train,4,H-
512.854099274,3,1000,4,0,5,1,4,2,0,3,0,250.0,train,2,H-
480.792999268,3,1000,4,1,5,1,4,2,0,3,0,250.0,train,3,H-
496.762037277,1,1000,0,1,5,1,4,2,0,3,0,250.0,train,1,H-
543.895959854,0,1000,5,1,5,1,4,2,0,3,0,250.0,train,0,H-
495.78499794,5,1000,1,1,5,1,4,2,0,3,0,250.0,train,5,H-
592.253923416,3,1000,4,1,5,1,4,2,0,3,0,250.0,train,3,H-
544.449090958,2,1000,2,1,5,1,4,2,0,3,0,250.0,train,2,H-
560.333967209,0,1000,5,1,5,1,4,2,0,3,0,250.0,train,0,H-
720.314979553,0,1000,5,0,5,1,4,2,0,3,0,250.0,train,1,H-
559.914827347,5,1000,1,1,5,1,4,2,0,3,0,250.0,train,5,H-
543.929100037,2,1000,2,1,5,1,4,2,0,3,0,250.0,train,2,H-
576.354026794,1,1000,0,1,5,1,4,2,0,3,0,250.0,train,1,H-
575.973987579,4,1000,3,1,5,1,4,2,0,3,0,250.0,train,4,H-
624.804973602,3,1000,4,1,5,1,4,2,0,3,0,250.0,train,3,H-
1008.87298584,4,1000,3,1,5,1,4,2,0,3,0,250.0,train,4,H-
1008.84008408,4,1000,3,1,5,1,4,2,0,3,0,250.0,train,4,H-
560.050010681,4,1000,3,1,5,1,4,2,0,3,0,250.0,train,4,H-
448.004007339,4,1000,3,1,5,1,4,2,0,3,0,250.0,train,4,H-
384.392023087,4,1000,3,1,5,1,4,2,0,3,0,250.0,train,4,H-
288.241863251,4,1000,3,1,5,1,4,2,0,3,0,250.0,train,4,H-
528.783798218,2,1000,2,1,5,1,4,2,0,3,0,250.0,train,2,H-
496.032953262,4,1000,3,1,5,1,4,2,0,3,0,250.0,train,4,H-
512.189865112,5,1000,1,1,5,1,4,2,0,3,0,250.0,train,5,H-
496.808052063,3,1000,4,1,5,1,4,2,0,3,0,250.0,train,3,H-
544.821023941,5,1000,1,1,5,1,4,2,0,3,0,250.0,train,5,H-
512.744903564,4,1000,3,1,5,1,4,2,0,3,0,250.0,train,4,H-
544.847011566,4,1000,3,1,5,1,4,2,0,3,0,250.0,train,4,H-
496.112108231,5,1000,1,1,5,1,4,2,0,3,0,250.0,train,5,H-
576.784849167,0,1000,5,1,5,1,4,2,0,3,0,250.0,train,0,H-
560.81700325,2,1000,2,1,5,1,4,2,0,3,0,250.0,train,2,H-
560.618162155,0,1000,5,1,5,1,4,2,0,3,0,250.0,train,0,H-
496.234893799,2,1000,2,1,5,1,4,2,0,3,0,250.0,train,2,H-
576.771020889,3,1000,4,1,5,1,4,2,0,3,0,250.0,train,3,H-
592.775821686,2,1000,2,1,5,1,4,2,0,3,0,250.0,train,2,H-
416.739940643,3,1000,4,1,5,1,4,2,0,3,0,250.0,train,3,H-
688.20810318,4,1000,3,1,5,1,4,2,0,3,0,250.0,train,4,H-
464.721918106,3,1000,4,1,5,1,4,2,0,3,0,250.0,train,3,H-
463.839054108,4,1000,3,1,5,1,4,2,0,3,0,250.0,train,4,H-
543.933153152,3,1000,4,1,5,1,4,2,0,3,0,250.0,train,3,H-
464.053153992,4,1000,3,1,5,1,4,2,0,3,0,250.0,train,4,H-
480.273962021,2,1000,2,1,5,1,4,2,0,3,0,250.0,train,2,H-
368.141174316,2,1000,2,0,5,1,4,2,0,3,0,250.0,train,3,H-
512.792825699,3,1000,4,1,5,1,4,2,0,3,0,250.0,train,3,H-
640.80286026,5,1000,1,1,5,1,4,2,0,3,0,250.0,train,5,H-
528.877973557,5,1000,1,1,5,1,4,2,0,3,0,250.0,train,5,H-
528.268098831,4,1000,3,1,5,1,4,2,0,3,0,250.0,train,4,H-
1040.1289463,3,1000,1,1,3,5,1,0,4,2,0,250.0,test,3,H-
895.655870438,4,1000,5,1,3,5,1,0,4,2,0,250.0,test,4,H-
783.723115921,3,1000,1,1,3,5,1,0,4,2,0,250.0,test,3,H-
831.128835678,1,1000,3,1,3,5,1,0,4,2,0,250.0,test,1,H-
800.301074982,5,1000,0,0,3,5,1,0,4,2,0,250.0,test,0,H-
816.361904144,1,1000,3,1,3,5,1,0,4,2,0,250.0,test,1,H-
624.107122421,5,1000,0,1,3,5,1,0,4,2,0,250.0,test,5,H-
896.497011185,2,1000,4,1,3,5,1,0,4,2,0,250.0,test,2,H-
624.284982681,3,1000,1,1,3,5,1,0,4,2,0,250.0,test,3,H-
960.366010666,4,1000,5,1,3,5,1,0,4,2,0,250.0,test,4,H-
880.144834518,3,1000,1,1,3,5,1,0,4,2,0,250.0,test,3,H-
1279.95896339,0,1000,2,1,3,5,1,0,4,2,0,250.0,test,0,H-
1135.77890396,4,1000,5,1,3,5,1,0,4,2,0,250.0,test,4,H-
864.367961884,2,1000,4,1,3,5,1,0,4,2,0,250.0,test,2,H-
751.746177673,2,1000,4,1,3,5,1,0,4,2,0,250.0,test,2,H-
735.611915588,0,1000,2,1,3,5,1,0,4,2,0,250.0,test,0,H-
1199.73015785,2,1000,4,1,3,5,1,0,4,2,0,250.0,test,2,H-
1007.84707069,3,1000,1,1,3,5,1,0,4,2,0,250.0,test,3,H-
1135.85090637,2,1000,4,1,3,5,1,0,4,2,0,250.0,test,2,H-
1055.68599701,1,1000,3,1,3,5,1,0,4,2,0,250.0,test,1,H-
719.788074493,0,1000,2,1,3,5,1,0,4,2,0,250.0,test,0,H-
655.864953995,1,1000,3,1,3,5,1,0,4,2,0,250.0,test,1,H-
576.132059097,3,1000,1,1,3,5,1,0,4,2,0,250.0,test,3,H-
863.960981369,1,1000,3,0,3,5,1,0,4,2,0,250.0,test,0,H-
912.871837616,2,1000,4,1,3,5,1,0,4,2,0,250.0,test,2,H-
863.909959793,2,1000,4,1,3,5,1,0,4,2,0,250.0,test,2,H-
1487.96200752,4,1000,5,1,3,5,1,0,4,2,0,250.0,test,4,H-
880.130052567,5,1000,0,1,3,5,1,0,4,2,0,250.0,test,5,H-
992.327928543,1,1000,3,1,3,5,1,0,4,2,0,250.0,test,1,H-
623.970031738,5,1000,0,1,3,5,1,0,4,2,0,250.0,test,5,H-
816.300868988,2,1000,4,1,3,5,1,0,4,2,0,250.0,test,2,H-
1120.25117874,0,1000,2,1,3,5,1,0,4,2,0,250.0,test,0,H-
720.204114914,1,1000,3,1,3,5,1,0,4,2,0,250.0,test,1,H-
1088.33789825,1,1000,3,1,3,5,1,0,4,2,0,250.0,test,1,H-
848.850011826,5,1000,0,1,3,5,1,0,4,2,0,250.0,test,5,H-
688.34900856,1,1000,3,1,3,5,1,0,4,2,0,250.0,test,1,H-
1199.89705086,4,1000,5,1,3,5,1,0,4,2,0,250.0,test,4,H-
1152.08411217,0,1000,2,1,3,5,1,0,4,2,0,250.0,test,0,H-
528.160810471,0,1000,2,1,3,5,1,0,4,2,0,250.0,test,0,H-
832.197189331,5,1000,0,1,3,5,1,0,4,2,0,250.0,test,5,H-
608.026981354,1,1000,3,1,3,5,1,0,4,2,0,250.0,test,1,H-
528.261899948,0,1000,2,1,3,5,1,0,4,2,0,250.0,test,0,H-
480.32283783,0,1000,2,1,3,5,1,0,4,2,0,250.0,test,0,H-
496.552944183,0,1000,2,1,3,5,1,0,4,2,0,250.0,test,0,H-
592.05698967,1,1000,3,1,3,5,1,0,4,2,0,250.0,test,1,H-
543.974876404,1,1000,3,1,3,5,1,0,4,2,0,250.0,test,1,H-
495.994091034,5,1000,0,1,3,5,1,0,4,2,0,250.0,test,5,H-
463.951826096,4,1000,5,0,3,5,1,0,4,2,0,250.0,test,1,H-
496.256113052,0,1000,2,1,3,5,1,0,4,2,0,250.0,test,0,H-
896.1789608,5,1000,0,1,3,5,1,0,4,2,0,250.0,test,5,H-
592.212915421,1,1000,3,1,3,5,1,0,4,2,0,250.0,test,1,H-
960.053920746,4,1000,5,1,3,5,1,0,4,2,0,250.0,test,4,H-
544.327974319,1,1000,3,1,3,5,1,0,4,2,0,250.0,test,1,H-
687.861919403,2,1000,4,1,3,5,1,0,4,2,0,250.0,test,2,H-
464.282035828,0,1000,2,1,3,5,1,0,4,2,0,250.0,test,0,H-
543.886184692,3,1000,1,1,3,5,1,0,4,2,0,250.0,test,3,H-
480.214834213,4,1000,5,1,3,5,1,0,4,2,0,250.0,test,4,H-
416.02897644,4,1000,5,1,3,5,1,0,4,2,0,250.0,test,4,H-
544.20208931,5,1000,0,1,3,5,1,0,4,2,0,250.0,test,5,H-
768.290996552,5,1000,0,1,3,5,1,0,4,2,0,250.0,test,5,H-
592.195034027,2,1000,4,0,3,5,1,0,4,2,0,250.0,test,3,H-
624.073028564,5,1000,0,0,3,5,1,0,4,2,0,250.0,test,2,H-
720.114946365,1,1000,3,1,3,5,1,0,4,2,0,250.0,test,1,H-
720.299005508,2,1000,4,1,3,5,1,0,4,2,0,250.0,test,2,H-
592.129945755,2,1000,4,1,3,5,1,0,4,2,0,250.0,test,2,H-
560.204029083,5,1000,0,1,3,5,1,0,4,2,0,250.0,test,5,H-
720.814943314,3,1000,1,1,3,5,1,0,4,2,0,250.0,test,3,H-
704.829931259,1,1000,3,1,3,5,1,0,4,2,0,250.0,test,1,H-
896.347999573,0,1000,2,1,3,5,1,0,4,2,0,250.0,test,0,H-
720.33405304,1,1000,3,1,3,5,1,0,4,2,0,250.0,test,1,H-
656.352043152,2,1000,4,1,3,5,1,0,4,2,0,250.0,test,2,H-
800.808906555,5,1000,0,1,3,5,1,0,4,2,0,250.0,test,5,H-
880.817890167,5,1000,0,1,3,5,1,0,4,2,0,250.0,test,5,H-
623.816013336,2,1000,4,1,3,5,1,0,4,2,0,250.0,test,2,H-
720.319032669,0,1000,2,1,3,5,1,0,4,2,0,250.0,test,0,H-
704.254150391,4,1000,5,1,3,5,1,0,4,2,0,250.0,test,4,H-
560.281038284,3,1000,1,1,3,5,1,0,4,2,0,250.0,test,3,H-
608.138084412,2,1000,4,1,3,5,1,0,4,2,0,250.0,test,2,H-
832.420110703,5,1000,0,1,3,5,1,0,4,2,0,250.0,test,5,H-
703.940868378,1,1000,3,1,3,5,1,0,4,2,0,250.0,test,1,H-
944.072008133,4,1000,5,1,3,5,1,0,4,2,0,250.0,test,4,H-
640.788078308,1,1000,3,1,3,5,1,0,4,2,0,250.0,test,1,H-
687.885046005,2,1000,4,1,3,5,1,0,4,2,0,250.0,test,2,H-
832.355976105,2,1000,4,1,3,5,1,0,4,2,0,250.0,test,2,H-
576.007843018,1,1000,3,1,3,5,1,0,4,2,0,250.0,test,1,H-
576.034069061,3,1000,1,0,3,5,1,0,4,2,0,250.0,test,2,H-
719.913959503,5,1000,0,1,3,5,1,0,4,2,0,250.0,test,5,H-
735.992908478,0,1000,2,1,3,5,1,0,4,2,0,250.0,test,0,H-
976.371049881,3,1000,1,0,3,5,1,0,4,2,0,250.0,test,4,H-
688.343048096,3,1000,1,1,3,5,1,0,4,2,0,250.0,test,3,H-
592.012882233,3,1000,1,1,3,5,1,0,4,2,0,250.0,test,3,H-
575.930118561,1,1000,3,1,3,5,1,0,4,2,0,250.0,test,1,H-
672.376155853,5,1000,0,1,3,5,1,0,4,2,0,250.0,test,5,H-
1168.17593575,4,1000,5,1,3,5,1,0,4,2,0,250.0,test,4,H-
463.781118393,3,1000,1,1,3,5,1,0,4,2,0,250.0,test,3,H-
912.420034409,5,1000,0,1,3,5,1,0,4,2,0,250.0,test,5,H-
608.356952667,0,1000,2,0,3,5,1,0,4,2,0,250.0,test,2,H-
800.421953201,1,1000,3,1,3,5,1,0,4,2,0,250.0,test,1,H-
800.426959991,4,1000,5,0,3,5,1,0,4,2,0,250.0,test,5,H-
816.139936447,4,1000,5,1,3,5,1,0,4,2,0,250.0,test,4,H-
608.397006989,5,1000,0,1,3,5,1,0,4,2,0,250.0,test,5,H-
576.456069946,3,1000,1,1,3,5,1,0,4,2,0,250.0,test,3,H-
480.416059494,0,1000,2,0,3,5,1,0,4,2,0,250.0,test,2,H-
1088.43493462,4,1000,5,1,3,5,1,0,4,2,0,250.0,test,4,H-
624.490022659,5,1000,0,1,3,5,1,0,4,2,0,250.0,test,5,H-
704.37502861,3,1000,1,1,3,5,1,0,4,2,0,250.0,test,3,H-
1552.42204666,2,1000,4,1,3,5,1,0,4,2,0,250.0,test,2,H-
1024.36614037,5,1000,0,1,3,5,1,0,4,2,0,250.0,test,5,H-
640.341043472,3,1000,1,1,3,5,1,0,4,2,0,250.0,test,3,H-
864.321947098,0,1000,2,1,3,5,1,0,4,2,0,250.0,test,0,H-
656.249046326,4,1000,5,0,3,5,1,0,4,2,0,250.0,test,1,H-
672.315120697,0,1000,2,1,3,5,1,0,4,2,0,250.0,test,0,H-
688.518047333,2,1000,4,1,3,5,1,0,4,2,0,250.0,test,2,H-
928.352117538,5,1000,0,1,3,5,1,0,4,2,0,250.0,test,5,H-
672.211885452,0,1000,2,0,3,5,1,0,4,2,0,250.0,test,2,H-
1104.43496704,4,1000,5,1,3,5,1,0,4,2,0,250.0,test,4,H-
1104.39682007,4,1000,5,1,3,5,1,0,4,2,0,250.0,test,4,H-
736.38510704,0,1000,2,1,3,5,1,0,4,2,0,250.0,test,0,H-
768.397092819,2,1000,4,1,3,5,1,0,4,2,0,250.0,test,2,H-
1152.33707428,5,1000,0,1,3,5,1,0,4,2,0,250.0,test,5,H-
688.282966614,2,1000,4,1,3,5,1,0,4,2,0,250.0,test,2,H-
640.191078186,0,1000,2,1,3,5,1,0,4,2,0,250.0,test,0,H-
624.412059784,1,1000,3,1,3,5,1,0,4,2,0,250.0,test,1,H-
624.34887886,1,1000,3,1,3,5,1,0,4,2,0,250.0,test,1,H-
400.434017181,1,1000,3,1,3,5,1,0,4,2,0,250.0,test,1,H-
352.241039276,1,1000,3,1,3,5,1,0,4,2,0,250.0,test,1,H-
944.278001785,3,1000,1,1,3,5,1,0,4,2,0,250.0,test,3,H-
640.305995941,2,1000,4,0,3,5,1,0,4,2,0,250.0,test,0,H-
1152.22907066,5,1000,0,1,3,5,1,0,4,2,0,250.0,test,5,H-
1215.81506729,2,1000,4,1,3,5,1,0,4,2,0,250.0,test,2,H-
848.490953445,4,1000,5,1,3,5,1,0,4,2,0,250.0,test,4,H-
608.314037323,1,1000,3,1,3,5,1,0,4,2,0,250.0,test,1,H-
544.354915619,2,1000,4,1,3,5,1,0,4,2,0,250.0,test,2,H-
528.454065323,0,1000,2,1,3,5,1,0,4,2,0,250.0,test,0,H-
480.296134949,2,1000,4,1,3,5,1,0,4,2,0,250.0,test,2,H-
592.500925064,3,1000,1,1,3,5,1,0,4,2,0,250.0,test,3,H-
800.370931625,5,1000,0,1,3,5,1,0,4,2,0,250.0,test,5,H-
928.499937057,4,1000,5,1,3,5,1,0,4,2,0,250.0,test,4,H-
560.241937637,0,1000,2,1,3,5,1,0,4,2,0,250.0,test,0,H-
512.403964996,1,1000,3,1,3,5,1,0,4,2,0,250.0,test,1,H-
576.330900192,3,1000,1,1,3,5,1,0,4,2,0,250.0,test,3,H-
672.121047974,4,1000,5,1,3,5,1,0,4,2,0,250.0,test,4,H-
432.060956955,3,1000,1,1,3,5,1,0,4,2,0,250.0,test,3,H-
496.256113052,4,1000,5,1,3,5,1,0,4,2,0,250.0,test,4,H-
352.135896683,4,1000,5,1,3,5,1,0,4,2,0,250.0,test,4,H-
512.189865112,1,1000,3,1,3,5,1,0,4,2,0,250.0,test,1,H-
544.152021408,5,1000,0,1,3,5,1,0,4,2,0,250.0,test,5,H-
623.898983002,0,1000,2,1,3,5,1,0,4,2,0,250.0,test,0,H-
576.071023941,5,1000,0,1,3,5,1,0,4,2,0,250.0,test,5,H-
463.687181473,0,1000,2,1,3,5,1,0,4,2,0,250.0,test,0,H-
512.654066086,3,1000,1,1,3,5,1,0,4,2,0,250.0,test,3,H-
528.80692482,1,1000,3,1,3,5,1,0,4,2,0,250.0,test,1,H-
543.752908707,1,1000,3,1,3,5,1,0,4,2,0,250.0,test,1,H-
576.247930527,5,1000,0,1,3,5,1,0,4,2,0,250.0,test,5,H-
448.77910614,0,1000,2,1,3,5,1,0,4,2,0,250.0,test,0,H-
592.777967453,3,1000,1,1,3,5,1,0,4,2,0,250.0,test,3,H-
528.229951859,0,1000,2,1,3,5,1,0,4,2,0,250.0,test,0,H-
560.179948807,0,1000,2,1,3,5,1,0,4,2,0,250.0,test,0,H-
479.729175568,5,1000,0,1,3,5,1,0,4,2,0,250.0,test,5,H-
575.483083725,1,1000,3,1,3,5,1,0,4,2,0,250.0,test,1,H-
512.246847153,3,1000,1,1,3,5,1,0,4,2,0,250.0,test,3,H-
480.12804985,5,1000,0,1,3,5,1,0,4,2,0,250.0,test,5,H-
496.240139008,0,1000,2,1,3,5,1,0,4,2,0,250.0,test,0,H-
464.085817337,0,1000,2,1,3,5,1,0,4,2,0,250.0,test,0,H-
608.110904694,4,1000,5,0,3,5,1,0,4,2,0,250.0,test,5,H-
608.13999176,4,1000,5,1,3,5,1,0,4,2,0,250.0,test,4,H-
559.695005417,1,1000,3,1,3,5,1,0,4,2,0,250.0,test,1,H-
608.149051666,5,1000,0,1,3,5,1,0,4,2,0,250.0,test,5,H-
688.230991364,3,1000,1,1,3,5,1,0,4,2,0,250.0,test,3,H-
640.35487175,2,1000,4,0,3,5,1,0,4,2,0,250.0,test,0,H-
1295.87292671,4,1000,5,1,3,5,1,0,4,2,0,250.0,test,4,H-
655.84397316,2,1000,4,1,3,5,1,0,4,2,0,250.0,test,2,H-
719.91109848,3,1000,1,1,3,5,1,0,4,2,0,250.0,test,3,H-
656.022071838,2,1000,4,1,3,5,1,0,4,2,0,250.0,test,2,H-
640.266895294,4,1000,5,1,3,5,1,0,4,2,0,250.0,test,4,H-
511.986017227,3,1000,1,1,3,5,1,0,4,2,0,250.0,test,3,H-
624.467849731,4,1000,5,1,3,5,1,0,4,2,0,250.0,test,4,H-
576.719999313,5,1000,0,1,3,5,1,0,4,2,0,250.0,test,5,H-
559.813976288,4,1000,5,1,3,5,1,0,4,2,0,250.0,test,4,H-
608.309030533,3,1000,1,1,3,5,1,0,4,2,0,250.0,test,3,H-
416.218042374,3,1000,1,1,3,5,1,0,4,2,0,250.0,test,3,H-
560.804128647,0,1000,2,1,3,5,1,0,4,2,0,250.0,test,0,H-
592.762947083,5,1000,0,0,3,5,1,0,4,2,0,250.0,test,4,H-
624.750137329,5,1000,0,1,3,5,1,0,4,2,0,250.0,test,5,H-
464.807033539,3,1000,1,1,3,5,1,0,4,2,0,250.0,test,3,H-
544.765949249,0,1000,2,1,3,5,1,0,4,2,0,250.0,test,0,H-
576.798915863,1,1000,3,1,3,5,1,0,4,2,0,250.0,test,1,H-
656.847953796,4,1000,5,1,3,5,1,0,4,2,0,250.0,test,4,H-
416.797876358,3,1000,1,1,3,5,1,0,4,2,0,250.0,test,3,H-
464.816093445,4,1000,5,0,3,5,1,0,4,2,0,250.0,test,5,H-
576.086997986,4,1000,5,1,3,5,1,0,4,2,0,250.0,test,4,H-
480.746984482,4,1000,5,1,3,5,1,0,4,2,0,250.0,test,4,H-
544.080972672,2,1000,4,0,3,5,1,0,4,2,0,250.0,test,3,H-
655.710935593,1,1000,3,1,3,5,1,0,4,2,0,250.0,test,1,H-
799.721002579,4,1000,5,1,3,5,1,0,4,2,0,250.0,test,4,H-
528.186798096,1,1000,3,1,3,5,1,0,4,2,0,250.0,test,1,H-
335.635900497,4,1000,5,1,3,5,1,0,4,2,0,250.0,test,4,H-
463.927984238,4,1000,5,1,3,5,1,0,4,2,0,250.0,test,4,H-
496.028900146,2,1000,4,0,3,5,1,0,4,2,0,250.0,test,3,H-
543.999910355,0,1000,2,1,3,5,1,0,4,2,0,250.0,test,0,H-
544.173955917,0,1000,2,1,3,5,1,0,4,2,0,250.0,test,0,H-
575.397968292,5,1000,0,1,3,5,1,0,4,2,0,250.0,test,5,H-
512.259960175,3,1000,1,1,3,5,1,0,4,2,0,250.0,test,3,H-
576.320171356,4,1000,5,1,3,5,1,0,4,2,0,250.0,test,4,H-
464.245080948,0,1000,2,1,3,5,1,0,4,2,0,250.0,test,0,H-
495.872974396,3,1000,1,1,3,5,1,0,4,2,0,250.0,test,3,H-
560.178041458,1,1000,3,1,3,5,1,0,4,2,0,250.0,test,1,H-
496.19102478,0,1000,2,1,3,5,1,0,4,2,0,250.0,test,0,H-
384.177923203,2,1000,4,1,3,5,1,0,4,2,0,250.0,test,2,H-
608.172178268,3,1000,1,1,3,5,1,0,4,2,0,250.0,test,3,H-
447.819948196,0,1000,2,1,3,5,1,0,4,2,0,250.0,test,0,H-
559.811115265,3,1000,1,1,3,5,1,0,4,2,0,250.0,test,3,H-
528.290987015,1,1000,3,1,3,5,1,0,4,2,0,250.0,test,1,H-
528.058052063,4,1000,5,1,3,5,1,0,4,2,0,250.0,test,4,H-
560.689926147,1,1000,3,1,3,5,1,0,4,2,0,250.0,test,1,H-
496.026992798,3,1000,1,1,3,5,1,0,4,2,0,250.0,test,3,H-
544.366121292,0,1000,2,1,3,5,1,0,4,2,0,250.0,test,0,H-
479.940891266,3,1000,1,1,3,5,1,0,4,2,0,250.0,test,3,H-
576.341152191,0,1000,2,1,3,5,1,0,4,2,0,250.0,test,0,H-
608.188867569,5,1000,0,1,3,5,1,0,4,2,0,250.0,test,5,H-
607.931852341,3,1000,1,1,3,5,1,0,4,2,0,250.0,test,3,H-
480.360031128,1,1000,3,1,3,5,1,0,4,2,0,250.0,test,1,H-
672.241926193,0,1000,2,1,3,5,1,0,4,2,0,250.0,test,0,H-
1056.21385574,2,1000,4,1,3,5,1,0,4,2,0,250.0,test,2,H-
1008.17608833,5,1000,0,1,3,5,1,0,4,2,0,250.0,test,5,H-
544.304847717,5,1000,0,1,3,5,1,0,4,2,0,250.0,test,5,H-
447.93009758,5,1000,0,1,3,5,1,0,4,2,0,250.0,test,5,H-
528.66101265,3,1000,1,1,3,5,1,0,4,2,0,250.0,test,3,H-
544.063091278,5,1000,0,1,3,5,1,0,4,2,0,250.0,test,5,H-
608.330011368,0,1000,2,1,3,5,1,0,4,2,0,250.0,test,0,H-
847.742080688,3,1000,1,1,3,5,1,0,4,2,0,250.0,test,3,H-
608.162164688,3,1000,1,1,3,5,1,0,4,2,0,250.0,test,3,H-
480.170965195,3,1000,1,1,3,5,1,0,4,2,0,250.0,test,3,H-
623.965024948,0,1000,2,1,3,5,1,0,4,2,0,250.0,test,0,H-
736.115932465,2,1000,4,1,3,5,1,0,4,2,0,250.0,test,2,H-
528.090953827,4,1000,5,1,3,5,1,0,4,2,0,250.0,test,4,H-
560.214042664,5,1000,0,1,3,5,1,0,4,2,0,250.0,test,5,H-
528.105020523,0,1000,2,1,3,5,1,0,4,2,0,250.0,test,0,H-
544.117927551,0,1000,2,1,3,5,1,0,4,2,0,250.0,test,0,H-
576.809883118,5,1000,0,0,3,5,1,0,4,2,0,250.0,test,4,H-
736.24587059,3,1000,1,1,3,5,1,0,4,2,0,250.0,test,3,H-
463.876008987,3,1000,1,1,3,5,1,0,4,2,0,250.0,test,3,H-
511.93189621,5,1000,0,1,3,5,1,0,4,2,0,250.0,test,5,H-
495.963096619,0,1000,2,1,3,5,1,0,4,2,0,250.0,test,0,H-
591.747999191,0,1000,2,1,3,5,1,0,4,2,0,250.0,test,0,H-
527.773857117,3,1000,1,1,3,5,1,0,4,2,0,250.0,test,3,H-
575.163841248,2,1000,4,1,3,5,1,0,4,2,0,250.0,test,2,H-
655.623912811,0,1000,2,1,3,5,1,0,4,2,0,250.0,test,0,H-
576.544046402,1,1000,3,1,3,5,1,0,4,2,0,250.0,test,1,H-
560.779094696,2,1000,4,1,3,5,1,0,4,2,0,250.0,test,2,H-
