RT,correct_response,ms-prestimblank,curstim,correct,SRmap_1,SRmap_0,SRmap_3,SRmap_2,SRmap_5,SRmap_4,ms-precue,ntrials,type,response,condition
3182.77597427,5,600,3,1,3,4,5,2,0,1,400,250.0,train,5,E-
1070.33085823,1,600,4,1,3,4,5,2,0,1,400,250.0,train,1,E-
687.479972839,4,600,0,1,3,4,5,2,0,1,400,250.0,train,4,E-
414.953947067,5,600,3,1,3,4,5,2,0,1,400,250.0,train,5,E-
366.618156433,5,600,3,1,3,4,5,2,0,1,400,250.0,train,5,E-
575.599908829,5,600,3,1,3,4,5,2,0,1,400,250.0,train,5,E-
607.092857361,4,600,0,1,3,4,5,2,0,1,400,250.0,train,4,E-
526.973962784,3,600,1,0,3,4,5,2,0,1,400,250.0,train,2,E-
270.673036575,3,600,1,1,3,4,5,2,0,1,400,250.0,train,3,E-
606.903076172,1,600,4,1,3,4,5,2,0,1,400,250.0,train,1,E-
543.633937836,2,600,2,1,3,4,5,2,0,1,400,250.0,train,2,E-
191.555023193,5,600,3,1,3,4,5,2,0,1,400,250.0,train,5,E-
447.693824768,1,600,4,1,3,4,5,2,0,1,400,250.0,train,1,E-
158.903837204,2,600,2,1,3,4,5,2,0,1,400,250.0,train,2,E-
350.89302063,3,600,1,1,3,4,5,2,0,1,400,250.0,train,3,E-
15.6700611115,3,600,1,1,3,4,5,2,0,1,400,250.0,train,3,E-
223.542928696,1,600,4,1,3,4,5,2,0,1,400,250.0,train,1,E-
430.423021317,4,600,0,1,3,4,5,2,0,1,400,250.0,train,4,E-
383.225917816,3,600,1,1,3,4,5,2,0,1,400,250.0,train,3,E-
207.010030746,0,600,5,1,3,4,5,2,0,1,400,250.0,train,0,E-
207.537174225,3,600,1,1,3,4,5,2,0,1,400,250.0,train,3,E-
270.327091217,1,600,4,1,3,4,5,2,0,1,400,250.0,train,1,E-
381.160020828,5,600,3,1,3,4,5,2,0,1,400,250.0,train,5,E-
350.488185883,2,600,2,1,3,4,5,2,0,1,400,250.0,train,2,E-
175.388813019,3,600,1,1,3,4,5,2,0,1,400,250.0,train,3,E-
47.0929145813,3,600,1,1,3,4,5,2,0,1,400,250.0,train,3,E-
31.8379402161,3,600,1,1,3,4,5,2,0,1,400,250.0,train,3,E-
95.7560539246,4,600,0,1,3,4,5,2,0,1,400,250.0,train,4,E-
62.9889965057,3,600,1,1,3,4,5,2,0,1,400,250.0,train,3,E-
238.591909409,5,600,3,1,3,4,5,2,0,1,400,250.0,train,5,E-
0.0529289245605,4,600,0,1,3,4,5,2,0,1,400,250.0,train,4,E-
239.661216736,0,600,5,1,3,4,5,2,0,1,400,250.0,train,0,E-
142.805099487,2,600,2,1,3,4,5,2,0,1,400,250.0,train,2,E-
207.242012024,2,600,2,1,3,4,5,2,0,1,400,250.0,train,2,E-
190.3860569,5,600,3,1,3,4,5,2,0,1,400,250.0,train,5,E-
287.110090256,1,600,4,1,3,4,5,2,0,1,400,250.0,train,1,E-
159.229040146,0,600,5,1,3,4,5,2,0,1,400,250.0,train,0,E-
174.767017365,2,600,2,1,3,4,5,2,0,1,400,250.0,train,2,E-
111.764907837,5,600,3,1,3,4,5,2,0,1,400,250.0,train,5,E-
622.860908508,2,600,2,1,3,4,5,2,0,1,400,250.0,train,2,E-
367.703914642,3,600,1,1,3,4,5,2,0,1,400,250.0,train,3,E-
239.598035812,0,600,5,1,3,4,5,2,0,1,400,250.0,train,0,E-
543.733119965,4,600,0,1,3,4,5,2,0,1,400,250.0,train,4,E-
239.645957947,0,600,5,1,3,4,5,2,0,1,400,250.0,train,0,E-
270.395040512,3,600,1,1,3,4,5,2,0,1,400,250.0,train,3,E-
62.5867843628,3,600,1,1,3,4,5,2,0,1,400,250.0,train,3,E-
175.181865692,1,600,4,1,3,4,5,2,0,1,400,250.0,train,1,E-
158.547878265,0,600,5,1,3,4,5,2,0,1,400,250.0,train,0,E-
142.861843109,1,600,4,1,3,4,5,2,0,1,400,250.0,train,1,E-
798.328876495,2,600,2,1,3,4,5,2,0,1,400,250.0,train,2,E-
206.505060196,4,600,0,0,3,4,5,2,0,1,400,250.0,train,5,E-
223.662853241,3,600,1,0,3,4,5,2,0,1,400,250.0,train,2,E-
463.641881943,1,600,4,1,3,4,5,2,0,1,400,250.0,train,1,E-
463.611841202,1,600,4,1,3,4,5,2,0,1,400,250.0,train,1,E-
797.945022583,0,600,5,1,3,4,5,2,0,1,400,250.0,train,0,E-
254.518032074,1,600,4,1,3,4,5,2,0,1,400,250.0,train,1,E-
207.720994949,0,600,5,1,3,4,5,2,0,1,400,250.0,train,0,E-
526.817083359,3,600,1,1,3,4,5,2,0,1,400,250.0,train,3,E-
462.339162827,5,600,3,1,3,4,5,2,0,1,400,250.0,train,5,E-
175.256967545,5,600,3,1,3,4,5,2,0,1,400,250.0,train,5,E-
383.040904999,1,600,4,1,3,4,5,2,0,1,400,250.0,train,1,E-
207.674980164,0,600,5,1,3,4,5,2,0,1,400,250.0,train,0,E-
222.732067108,3,600,1,1,3,4,5,2,0,1,400,250.0,train,3,E-
270.639896393,5,600,3,1,3,4,5,2,0,1,400,250.0,train,5,E-
174.247980118,1,600,4,1,3,4,5,2,0,1,400,250.0,train,1,E-
127.13599205,5,600,3,1,3,4,5,2,0,1,400,250.0,train,5,E-
175.788879395,0,600,5,1,3,4,5,2,0,1,400,250.0,train,0,E-
303.640127182,4,600,0,1,3,4,5,2,0,1,400,250.0,train,4,E-
63.8339519501,4,600,0,1,3,4,5,2,0,1,400,250.0,train,4,E-
335.693120956,1,600,4,1,3,4,5,2,0,1,400,250.0,train,1,E-
191.699981689,5,600,3,1,3,4,5,2,0,1,400,250.0,train,5,E-
142.876148224,0,600,5,1,3,4,5,2,0,1,400,250.0,train,0,E-
191.698789597,4,600,0,0,3,4,5,2,0,1,400,250.0,train,3,E-
351.623058319,3,600,1,0,3,4,5,2,0,1,400,250.0,train,4,E-
383.721113205,4,600,0,1,3,4,5,2,0,1,400,250.0,train,4,E-
191.661119461,5,600,3,1,3,4,5,2,0,1,400,250.0,train,5,E-
240.047931671,4,600,0,1,3,4,5,2,0,1,400,250.0,train,4,E-
703.171014786,2,600,2,1,3,4,5,2,0,1,400,250.0,train,2,E-
527.047157288,1,600,4,1,3,4,5,2,0,1,400,250.0,train,1,E-
767.693042755,0,600,5,1,3,4,5,2,0,1,400,250.0,train,0,E-
591.181993484,1,600,4,1,3,4,5,2,0,1,400,250.0,train,1,E-
383.160829544,0,600,5,1,3,4,5,2,0,1,400,250.0,train,0,E-
878.571033478,4,600,0,1,3,4,5,2,0,1,400,250.0,train,4,E-
495.676994324,2,600,2,1,3,4,5,2,0,1,400,250.0,train,2,E-
254.638195038,5,600,3,1,3,4,5,2,0,1,400,250.0,train,5,E-
270.734071732,3,600,1,0,3,4,5,2,0,1,400,250.0,train,4,E-
462.209939957,4,600,0,1,3,4,5,2,0,1,400,250.0,train,4,E-
398.845911026,1,600,4,1,3,4,5,2,0,1,400,250.0,train,1,E-
638.336896896,3,600,1,1,3,4,5,2,0,1,400,250.0,train,3,E-
239.631891251,5,600,3,1,3,4,5,2,0,1,400,250.0,train,5,E-
270.638942719,0,600,5,1,3,4,5,2,0,1,400,250.0,train,0,E-
543.719053268,4,600,0,1,3,4,5,2,0,1,400,250.0,train,4,E-
159.23500061,5,600,3,1,3,4,5,2,0,1,400,250.0,train,5,E-
95.6921577454,1,600,4,1,3,4,5,2,0,1,400,250.0,train,1,E-
127.196073532,5,600,3,1,3,4,5,2,0,1,400,250.0,train,5,E-
0.053882598877,4,600,0,1,3,4,5,2,0,1,400,250.0,train,4,E-
207.69405365,1,600,4,1,3,4,5,2,0,1,400,250.0,train,1,E-
110.188007355,0,600,5,1,3,4,5,2,0,1,400,250.0,train,0,E-
174.549102783,0,600,5,1,3,4,5,2,0,1,400,250.0,train,0,E-
238.433837891,2,600,2,1,3,4,5,2,0,1,400,250.0,train,2,E-
111.831903458,5,600,3,1,3,4,5,2,0,1,400,250.0,train,5,E-
175.634145737,2,600,2,0,3,4,5,2,0,1,400,250.0,train,1,E-
383.682012558,2,600,2,1,3,4,5,2,0,1,400,250.0,train,2,E-
95.8070755005,2,600,2,1,3,4,5,2,0,1,400,250.0,train,2,E-
319.625854492,0,600,5,1,3,4,5,2,0,1,400,250.0,train,0,E-
222.964048386,0,600,5,1,3,4,5,2,0,1,400,250.0,train,0,E-
207.764148712,2,600,2,0,3,4,5,2,0,1,400,250.0,train,5,E-
271.656990051,5,600,3,1,3,4,5,2,0,1,400,250.0,train,5,E-
222.874164581,0,600,5,1,3,4,5,2,0,1,400,250.0,train,0,E-
207.715034485,2,600,2,1,3,4,5,2,0,1,400,250.0,train,2,E-
191.696166992,0,600,5,1,3,4,5,2,0,1,400,250.0,train,0,E-
175.731182098,5,600,3,1,3,4,5,2,0,1,400,250.0,train,5,E-
191.832065582,0,600,5,1,3,4,5,2,0,1,400,250.0,train,0,E-
223.029851913,4,600,0,1,3,4,5,2,0,1,400,250.0,train,4,E-
159.285068512,5,600,3,1,3,4,5,2,0,1,400,250.0,train,5,E-
174.801111221,5,600,3,1,3,4,5,2,0,1,400,250.0,train,5,E-
127.793073654,0,600,5,1,3,4,5,2,0,1,400,250.0,train,0,E-
399.638175964,4,600,0,0,3,4,5,2,0,1,400,250.0,train,3,E-
430.348873138,1,600,4,1,3,4,5,2,0,1,400,250.0,train,1,E-
367.742061615,5,600,3,1,3,4,5,2,0,1,400,250.0,train,5,E-
494.403123856,4,600,0,1,3,4,5,2,0,1,400,250.0,train,4,E-
190.187931061,2,600,2,0,3,4,5,2,0,1,400,250.0,train,1,E-
495.635032654,2,600,2,1,3,4,5,2,0,1,400,250.0,train,2,E-
351.109981537,1,600,4,1,3,4,5,2,0,1,400,250.0,train,1,E-
350.203990936,0,600,5,1,3,4,5,2,0,1,400,250.0,train,0,E-
447.725057602,2,600,2,1,3,4,5,2,0,1,400,250.0,train,2,E-
238.405942917,1,600,4,1,3,4,5,2,0,1,400,250.0,train,1,E-
575.646877289,4,600,0,1,3,4,5,2,0,1,400,250.0,train,4,E-
159.223079681,5,600,3,1,3,4,5,2,0,1,400,250.0,train,5,E-
143.623828888,5,600,3,1,3,4,5,2,0,1,400,250.0,train,5,E-
847.772121429,3,600,1,1,3,4,5,2,0,1,400,250.0,train,3,E-
1023.79107475,1,600,4,1,3,4,5,2,0,1,400,250.0,train,1,E-
527.189970016,5,600,3,1,3,4,5,2,0,1,400,250.0,train,5,E-
206.923007965,1,600,4,1,3,4,5,2,0,1,400,250.0,train,1,E-
0.0560283660889,5,600,3,1,3,4,5,2,0,1,400,250.0,train,5,E-
15.6080722809,5,600,3,1,3,4,5,2,0,1,400,250.0,train,5,E-
495.621919632,2,600,2,1,3,4,5,2,0,1,400,250.0,train,2,E-
111.762046814,1,600,4,1,3,4,5,2,0,1,400,250.0,train,1,E-
383.624076843,2,600,2,1,3,4,5,2,0,1,400,250.0,train,2,E-
239.603996277,2,600,2,1,3,4,5,2,0,1,400,250.0,train,2,E-
574.265956879,3,600,1,1,3,4,5,2,0,1,400,250.0,train,3,E-
127.780914307,4,600,0,1,3,4,5,2,0,1,400,250.0,train,4,E-
318.290948868,0,600,5,1,3,4,5,2,0,1,400,250.0,train,0,E-
63.2729530334,3,600,1,0,3,4,5,2,0,1,400,250.0,train,4,E-
222.556829453,4,600,0,1,3,4,5,2,0,1,400,250.0,train,4,E-
95.1819419861,5,600,3,1,3,4,5,2,0,1,400,250.0,train,5,E-
126.495838165,5,600,3,1,3,4,5,2,0,1,400,250.0,train,5,E-
623.687982559,2,600,2,1,3,4,5,2,0,1,400,250.0,train,2,E-
175.168037415,5,600,3,1,3,4,5,2,0,1,400,250.0,train,5,E-
302.870988846,2,600,2,0,3,4,5,2,0,1,400,250.0,train,1,E-
111.699104309,2,600,2,1,3,4,5,2,0,1,400,250.0,train,2,E-
142.79794693,2,600,2,1,3,4,5,2,0,1,400,250.0,train,2,E-
174.403905869,4,600,0,1,3,4,5,2,0,1,400,250.0,train,4,E-
494.593858719,3,600,1,0,3,4,5,2,0,1,400,250.0,train,2,E-
510.317087173,0,600,5,1,3,4,5,2,0,1,400,250.0,train,0,E-
78.4468650818,5,600,3,1,3,4,5,2,0,1,400,250.0,train,5,E-
63.7249946594,1,600,4,0,3,4,5,2,0,1,400,250.0,train,2,E-
814.207077026,2,600,2,1,3,4,5,2,0,1,400,250.0,train,2,E-
255.559921265,1,600,4,1,3,4,5,2,0,1,400,250.0,train,1,E-
863.745927811,3,600,1,1,3,4,5,2,0,1,400,250.0,train,3,E-
735.71395874,4,600,0,1,3,4,5,2,0,1,400,250.0,train,4,E-
399.241924286,0,600,5,1,3,4,5,2,0,1,400,250.0,train,0,E-
334.697008133,4,600,0,1,3,4,5,2,0,1,400,250.0,train,4,E-
111.117839813,4,600,0,1,3,4,5,2,0,1,400,250.0,train,4,E-
335.033893585,1,600,4,1,3,4,5,2,0,1,400,250.0,train,1,E-
559.718847275,5,600,3,1,3,4,5,2,0,1,400,250.0,train,5,E-
318.795919418,3,600,1,0,3,4,5,2,0,1,400,250.0,train,2,E-
399.727106094,3,600,1,0,3,4,5,2,0,1,400,250.0,train,4,E-
511.057853699,2,600,2,1,3,4,5,2,0,1,400,250.0,train,2,E-
254.400014877,2,600,2,1,3,4,5,2,0,1,400,250.0,train,2,E-
831.196069717,4,600,0,1,3,4,5,2,0,1,400,250.0,train,4,E-
302.674055099,3,600,1,1,3,4,5,2,0,1,400,250.0,train,3,E-
1551.60617828,2,600,2,1,3,4,5,2,0,1,400,250.0,train,2,E-
319.753885269,2,600,2,1,3,4,5,2,0,1,400,250.0,train,2,E-
127.196073532,0,600,5,1,3,4,5,2,0,1,400,250.0,train,0,E-
207.154989243,1,600,4,1,3,4,5,2,0,1,400,250.0,train,1,E-
143.748998642,5,600,3,1,3,4,5,2,0,1,400,250.0,train,5,E-
63.7309551239,5,600,3,1,3,4,5,2,0,1,400,250.0,train,5,E-
47.2090244293,3,600,1,0,3,4,5,2,0,1,400,250.0,train,4,E-
495.136022568,1,600,4,1,3,4,5,2,0,1,400,250.0,train,1,E-
0.0500679016113,0,600,5,1,3,4,5,2,0,1,400,250.0,train,0,E-
78.409910202,0,600,5,1,3,4,5,2,0,1,400,250.0,train,0,E-
159.674882889,1,600,4,1,3,4,5,2,0,1,400,250.0,train,1,E-
1470.37005424,1,600,4,1,3,4,5,2,0,1,400,250.0,train,1,E-
703.133106232,4,600,0,1,3,4,5,2,0,1,400,250.0,train,4,E-
15.3119564056,1,600,4,1,3,4,5,2,0,1,400,250.0,train,1,E-
143.064022064,5,600,3,1,3,4,5,2,0,1,400,250.0,train,5,E-
126.347064972,0,600,5,1,3,4,5,2,0,1,400,250.0,train,0,E-
735.197067261,1,600,4,1,3,4,5,2,0,1,400,250.0,train,1,E-
110.775947571,1,600,4,1,3,4,5,2,0,1,400,250.0,train,1,E-
15.7148838043,0,600,5,1,3,4,5,2,0,1,400,250.0,train,0,E-
15.8050060272,0,600,5,1,3,4,5,2,0,1,400,250.0,train,0,E-
238.113880157,2,600,2,1,3,4,5,2,0,1,400,250.0,train,2,E-
542.547941208,4,600,0,1,3,4,5,2,0,1,400,250.0,train,4,E-
78.5558223724,1,600,4,1,3,4,5,2,0,1,400,250.0,train,1,E-
62.4120235443,4,600,0,0,3,4,5,2,0,1,400,250.0,train,1,E-
111.824989319,5,600,3,1,3,4,5,2,0,1,400,250.0,train,5,E-
511.708974838,3,600,1,1,3,4,5,2,0,1,400,250.0,train,3,E-
335.675001144,2,600,2,1,3,4,5,2,0,1,400,250.0,train,2,E-
335.702896118,5,600,3,1,3,4,5,2,0,1,400,250.0,train,5,E-
159.632921219,0,600,5,1,3,4,5,2,0,1,400,250.0,train,0,E-
687.649965286,4,600,0,1,3,4,5,2,0,1,400,250.0,train,4,E-
399.710893631,1,600,4,1,3,4,5,2,0,1,400,250.0,train,1,E-
175.679206848,0,600,5,1,3,4,5,2,0,1,400,250.0,train,0,E-
143.732786179,0,600,5,1,3,4,5,2,0,1,400,250.0,train,0,E-
287.759065628,4,600,0,1,3,4,5,2,0,1,400,250.0,train,4,E-
159.218072891,1,600,4,1,3,4,5,2,0,1,400,250.0,train,1,E-
479.655981064,0,600,5,1,3,4,5,2,0,1,400,250.0,train,0,E-
207.767963409,2,600,2,1,3,4,5,2,0,1,400,250.0,train,2,E-
270.823001862,5,600,3,1,3,4,5,2,0,1,400,250.0,train,5,E-
639.609098434,4,600,0,1,3,4,5,2,0,1,400,250.0,train,4,E-
207.760095596,3,600,1,1,3,4,5,2,0,1,400,250.0,train,3,E-
159.679889679,1,600,4,1,3,4,5,2,0,1,400,250.0,train,1,E-
0.0529289245605,0,600,5,1,3,4,5,2,0,1,400,250.0,train,0,E-
175.758123398,2,600,2,1,3,4,5,2,0,1,400,250.0,train,2,E-
175.643205643,0,600,5,1,3,4,5,2,0,1,400,250.0,train,0,E-
79.7350406647,0,600,5,1,3,4,5,2,0,1,400,250.0,train,0,E-
303.63702774,5,600,3,1,3,4,5,2,0,1,400,250.0,train,5,E-
126.728057861,0,600,5,1,3,4,5,2,0,1,400,250.0,train,0,E-
63.7140274048,3,600,1,1,3,4,5,2,0,1,400,250.0,train,3,E-
30.522108078,4,600,0,1,3,4,5,2,0,1,400,250.0,train,4,E-
191.787004471,5,600,3,1,3,4,5,2,0,1,400,250.0,train,5,E-
127.636909485,0,600,5,1,3,4,5,2,0,1,400,250.0,train,0,E-
207.75103569,2,600,2,1,3,4,5,2,0,1,400,250.0,train,2,E-
191.730976105,0,600,5,1,3,4,5,2,0,1,400,250.0,train,0,E-
142.812013626,3,600,1,1,3,4,5,2,0,1,400,250.0,train,3,E-
1422.55711555,5,600,3,1,3,4,5,2,0,1,400,250.0,train,5,E-
255.011796951,3,600,1,1,3,4,5,2,0,1,400,250.0,train,3,E-
47.6551055908,4,600,0,1,3,4,5,2,0,1,400,250.0,train,4,E-
319.575071335,2,600,2,1,3,4,5,2,0,1,400,250.0,train,2,E-
143.699884415,0,600,5,1,3,4,5,2,0,1,400,250.0,train,0,E-
671.669960022,4,600,0,1,3,4,5,2,0,1,400,250.0,train,4,E-
351.715087891,1,600,4,1,3,4,5,2,0,1,400,250.0,train,1,E-
239.722013474,3,600,1,1,3,4,5,2,0,1,400,250.0,train,3,E-
399.204969406,4,600,0,1,3,4,5,2,0,1,400,250.0,train,4,E-
511.667013168,2,600,2,0,3,4,5,2,0,1,400,250.0,train,3,E-
287.56403923,0,600,5,1,3,4,5,2,0,1,400,250.0,train,0,E-
367.048025131,2,600,2,0,3,4,5,2,0,1,400,250.0,train,3,E-
319.507837296,4,600,0,1,3,4,5,2,0,1,400,250.0,train,4,E-
222.735881805,0,600,5,1,3,4,5,2,0,1,400,250.0,train,0,E-
318.32909584,4,600,0,1,3,4,5,2,0,1,400,250.0,train,4,E-
462.655067444,2,600,2,1,3,4,5,2,0,1,400,250.0,train,2,E-
286.221027374,5,600,3,1,3,4,5,2,0,1,400,250.0,train,5,E-
383.780002594,2,600,2,1,3,4,5,2,0,1,400,250.0,train,2,E-
0.0569820404053,3,600,1,1,3,4,5,2,0,1,400,250.0,train,3,E-
111.812829971,5,600,3,1,3,4,5,2,0,1,400,250.0,train,5,E-
30.6179523468,4,600,0,1,3,4,5,2,0,1,400,250.0,train,4,E-
94.3369865417,1,600,4,1,3,4,5,2,0,1,400,250.0,train,1,E-
239.651203156,1,600,4,1,3,4,5,2,0,1,400,250.0,train,1,E-
303.62200737,0,600,5,1,3,4,5,2,0,1,400,250.0,train,0,E-
2222.75090218,3,1000,4,1,2,1,5,0,4,3,0,250.0,test,3,E-
734.718084335,4,1000,5,0,2,1,5,0,4,3,0,250.0,test,5,E-
830.743789673,2,1000,1,1,2,1,5,0,4,3,0,250.0,test,2,E-
1069.92101669,4,1000,5,1,2,1,5,0,4,3,0,250.0,test,4,E-
477.82087326,4,1000,5,1,2,1,5,0,4,3,0,250.0,test,4,E-
813.161849976,0,1000,2,1,2,1,5,0,4,3,0,250.0,test,0,E-
846.158027649,3,1000,4,1,2,1,5,0,4,3,0,250.0,test,3,E-
701.952934265,1,1000,0,1,2,1,5,0,4,3,0,250.0,test,1,E-
622.08199501,3,1000,4,1,2,1,5,0,4,3,0,250.0,test,3,E-
526.412963867,4,1000,5,1,2,1,5,0,4,3,0,250.0,test,4,E-
702.499866486,3,1000,4,1,2,1,5,0,4,3,0,250.0,test,3,E-
511.615037918,2,1000,1,0,2,1,5,0,4,3,0,250.0,test,1,E-
607.542991638,1,1000,0,1,2,1,5,0,4,3,0,250.0,test,1,E-
766.736984253,2,1000,1,0,2,1,5,0,4,3,0,250.0,test,3,E-
605.412960052,0,1000,2,1,2,1,5,0,4,3,0,250.0,test,0,E-
638.668060303,5,1000,3,1,2,1,5,0,4,3,0,250.0,test,5,E-
927.222013474,4,1000,5,1,2,1,5,0,4,3,0,250.0,test,4,E-
846.546888351,0,1000,2,1,2,1,5,0,4,3,0,250.0,test,0,E-
559.22293663,0,1000,2,1,2,1,5,0,4,3,0,250.0,test,0,E-
718.922138214,1,1000,0,1,2,1,5,0,4,3,0,250.0,test,1,E-
478.430986404,1,1000,0,1,2,1,5,0,4,3,0,250.0,test,1,E-
510.900020599,0,1000,2,1,2,1,5,0,4,3,0,250.0,test,0,E-
750.926017761,1,1000,0,1,2,1,5,0,4,3,0,250.0,test,1,E-
719.535827637,5,1000,3,1,2,1,5,0,4,3,0,250.0,test,5,E-
606.83298111,1,1000,0,1,2,1,5,0,4,3,0,250.0,test,1,E-
590.800046921,1,1000,0,1,2,1,5,0,4,3,0,250.0,test,1,E-
622.004032135,3,1000,4,0,2,1,5,0,4,3,0,250.0,test,4,E-
989.46595192,3,1000,4,1,2,1,5,0,4,3,0,250.0,test,3,E-
686.726093292,0,1000,2,1,2,1,5,0,4,3,0,250.0,test,0,E-
494.439125061,1,1000,0,1,2,1,5,0,4,3,0,250.0,test,1,E-
607.179880142,4,1000,5,1,2,1,5,0,4,3,0,250.0,test,4,E-
718.198060989,1,1000,0,1,2,1,5,0,4,3,0,250.0,test,1,E-
1039.69311714,4,1000,5,1,2,1,5,0,4,3,0,250.0,test,4,E-
1326.42889023,2,1000,1,0,2,1,5,0,4,3,0,250.0,test,1,E-
894.691944122,4,1000,5,1,2,1,5,0,4,3,0,250.0,test,4,E-
542.578935623,0,1000,2,1,2,1,5,0,4,3,0,250.0,test,0,E-
606.52589798,0,1000,2,1,2,1,5,0,4,3,0,250.0,test,0,E-
702.485084534,2,1000,1,1,2,1,5,0,4,3,0,250.0,test,2,E-
574.474096298,2,1000,1,1,2,1,5,0,4,3,0,250.0,test,2,E-
670.231819153,1,1000,0,1,2,1,5,0,4,3,0,250.0,test,1,E-
781.691074371,1,1000,0,1,2,1,5,0,4,3,0,250.0,test,1,E-
1117.84815788,2,1000,1,1,2,1,5,0,4,3,0,250.0,test,2,E-
766.341924667,5,1000,3,1,2,1,5,0,4,3,0,250.0,test,5,E-
718.377113342,2,1000,1,1,2,1,5,0,4,3,0,250.0,test,2,E-
846.457004547,0,1000,2,1,2,1,5,0,4,3,0,250.0,test,0,E-
1071.54297829,1,1000,0,1,2,1,5,0,4,3,0,250.0,test,1,E-
909.644126892,5,1000,3,1,2,1,5,0,4,3,0,250.0,test,5,E-
1022.55105972,2,1000,1,1,2,1,5,0,4,3,0,250.0,test,2,E-
622.679948807,5,1000,3,1,2,1,5,0,4,3,0,250.0,test,5,E-
638.761997223,5,1000,3,1,2,1,5,0,4,3,0,250.0,test,5,E-
511.73210144,0,1000,2,1,2,1,5,0,4,3,0,250.0,test,0,E-
1038.41519356,3,1000,4,1,2,1,5,0,4,3,0,250.0,test,3,E-
558.376789093,5,1000,3,1,2,1,5,0,4,3,0,250.0,test,5,E-
686.408996582,3,1000,4,1,2,1,5,0,4,3,0,250.0,test,3,E-
606.772899628,0,1000,2,1,2,1,5,0,4,3,0,250.0,test,0,E-
974.661111832,3,1000,4,1,2,1,5,0,4,3,0,250.0,test,3,E-
1167.24610329,5,1000,3,1,2,1,5,0,4,3,0,250.0,test,5,E-
846.522092819,4,1000,5,1,2,1,5,0,4,3,0,250.0,test,4,E-
1422.42598534,2,1000,1,1,2,1,5,0,4,3,0,250.0,test,2,E-
622.750997543,4,1000,5,1,2,1,5,0,4,3,0,250.0,test,4,E-
1085.8309269,1,1000,0,1,2,1,5,0,4,3,0,250.0,test,1,E-
863.723039627,4,1000,5,1,2,1,5,0,4,3,0,250.0,test,4,E-
751.772880554,1,1000,0,0,2,1,5,0,4,3,0,250.0,test,4,E-
607.048034668,0,1000,2,1,2,1,5,0,4,3,0,250.0,test,0,E-
622.834920883,5,1000,3,1,2,1,5,0,4,3,0,250.0,test,5,E-
1150.57110786,2,1000,1,1,2,1,5,0,4,3,0,250.0,test,2,E-
1053.25007439,4,1000,5,1,2,1,5,0,4,3,0,250.0,test,4,E-
925.416946411,3,1000,4,1,2,1,5,0,4,3,0,250.0,test,3,E-
670.963048935,5,1000,3,1,2,1,5,0,4,3,0,250.0,test,5,E-
1023.56696129,4,1000,5,1,2,1,5,0,4,3,0,250.0,test,4,E-
654.484033585,2,1000,1,1,2,1,5,0,4,3,0,250.0,test,2,E-
1070.18494606,4,1000,5,1,2,1,5,0,4,3,0,250.0,test,4,E-
541.280984879,4,1000,5,1,2,1,5,0,4,3,0,250.0,test,4,E-
591.331005096,0,1000,2,1,2,1,5,0,4,3,0,250.0,test,0,E-
670.783996582,1,1000,0,1,2,1,5,0,4,3,0,250.0,test,1,E-
910.582065582,3,1000,4,1,2,1,5,0,4,3,0,250.0,test,3,E-
989.414930344,2,1000,1,1,2,1,5,0,4,3,0,250.0,test,2,E-
782.421112061,1,1000,0,1,2,1,5,0,4,3,0,250.0,test,1,E-
877.726078033,2,1000,1,0,2,1,5,0,4,3,0,250.0,test,3,E-
990.638017654,4,1000,5,1,2,1,5,0,4,3,0,250.0,test,4,E-
589.873075485,3,1000,4,0,2,1,5,0,4,3,0,250.0,test,1,E-
638.730049133,5,1000,3,1,2,1,5,0,4,3,0,250.0,test,5,E-
607.625961304,2,1000,1,1,2,1,5,0,4,3,0,250.0,test,2,E-
622.342824936,5,1000,3,1,2,1,5,0,4,3,0,250.0,test,5,E-
798.979997635,1,1000,0,1,2,1,5,0,4,3,0,250.0,test,1,E-
1038.55586052,4,1000,5,1,2,1,5,0,4,3,0,250.0,test,4,E-
1038.59710693,3,1000,4,1,2,1,5,0,4,3,0,250.0,test,3,E-
878.566026688,2,1000,1,1,2,1,5,0,4,3,0,250.0,test,2,E-
1198.89211655,5,1000,3,1,2,1,5,0,4,3,0,250.0,test,5,E-
926.56493187,4,1000,5,1,2,1,5,0,4,3,0,250.0,test,4,E-
766.834020615,5,1000,3,1,2,1,5,0,4,3,0,250.0,test,5,E-
927.176952362,2,1000,1,1,2,1,5,0,4,3,0,250.0,test,2,E-
1071.05398178,4,1000,5,1,2,1,5,0,4,3,0,250.0,test,4,E-
879.57906723,0,1000,2,1,2,1,5,0,4,3,0,250.0,test,0,E-
1438.55500221,1,1000,0,1,2,1,5,0,4,3,0,250.0,test,1,E-
622.740030289,1,1000,0,1,2,1,5,0,4,3,0,250.0,test,1,E-
687.481880188,5,1000,3,1,2,1,5,0,4,3,0,250.0,test,5,E-
734.673976898,4,1000,5,1,2,1,5,0,4,3,0,250.0,test,4,E-
638.514041901,5,1000,3,1,2,1,5,0,4,3,0,250.0,test,5,E-
911.371946335,2,1000,1,1,2,1,5,0,4,3,0,250.0,test,2,E-
830.093860626,3,1000,4,0,2,1,5,0,4,3,0,250.0,test,4,E-
1166.20492935,4,1000,5,1,2,1,5,0,4,3,0,250.0,test,4,E-
525.166034698,0,1000,2,1,2,1,5,0,4,3,0,250.0,test,0,E-
622.761011124,5,1000,3,1,2,1,5,0,4,3,0,250.0,test,5,E-
557.667016983,5,1000,3,1,2,1,5,0,4,3,0,250.0,test,5,E-
590.543031693,0,1000,2,1,2,1,5,0,4,3,0,250.0,test,0,E-
719.019889832,2,1000,1,0,2,1,5,0,4,3,0,250.0,test,1,E-
1103.45816612,4,1000,5,1,2,1,5,0,4,3,0,250.0,test,4,E-
669.472932816,4,1000,5,1,2,1,5,0,4,3,0,250.0,test,4,E-
607.028961182,5,1000,3,1,2,1,5,0,4,3,0,250.0,test,5,E-
477.440834045,0,1000,2,1,2,1,5,0,4,3,0,250.0,test,0,E-
670.978784561,3,1000,4,0,2,1,5,0,4,3,0,250.0,test,4,E-
591.39585495,0,1000,2,1,2,1,5,0,4,3,0,250.0,test,0,E-
719.661951065,5,1000,3,1,2,1,5,0,4,3,0,250.0,test,5,E-
575.726985931,0,1000,2,1,2,1,5,0,4,3,0,250.0,test,0,E-
607.132911682,5,1000,3,1,2,1,5,0,4,3,0,250.0,test,5,E-
1007.18998909,4,1000,5,1,2,1,5,0,4,3,0,250.0,test,4,E-
1055.5639267,3,1000,4,1,2,1,5,0,4,3,0,250.0,test,3,E-
879.685878754,2,1000,1,1,2,1,5,0,4,3,0,250.0,test,2,E-
799.668073654,2,1000,1,1,2,1,5,0,4,3,0,250.0,test,2,E-
894.53291893,1,1000,0,1,2,1,5,0,4,3,0,250.0,test,1,E-
702.456235886,5,1000,3,1,2,1,5,0,4,3,0,250.0,test,5,E-
814.501047134,3,1000,4,1,2,1,5,0,4,3,0,250.0,test,3,E-
766.530990601,5,1000,3,1,2,1,5,0,4,3,0,250.0,test,5,E-
830.718040466,1,1000,0,1,2,1,5,0,4,3,0,250.0,test,1,E-
590.138912201,5,1000,3,1,2,1,5,0,4,3,0,250.0,test,5,E-
1470.18408775,2,1000,1,1,2,1,5,0,4,3,0,250.0,test,2,E-
4926.5871048,4,1000,5,1,2,1,5,0,4,3,0,250.0,test,4,E-
766.628026962,0,1000,2,1,2,1,5,0,4,3,0,250.0,test,0,E-
589.313030243,5,1000,3,1,2,1,5,0,4,3,0,250.0,test,5,E-
734.653949738,2,1000,1,1,2,1,5,0,4,3,0,250.0,test,2,E-
558.858156204,5,1000,3,1,2,1,5,0,4,3,0,250.0,test,5,E-
542.765855789,5,1000,3,1,2,1,5,0,4,3,0,250.0,test,5,E-
798.815011978,1,1000,0,1,2,1,5,0,4,3,0,250.0,test,1,E-
990.096092224,4,1000,5,1,2,1,5,0,4,3,0,250.0,test,4,E-
974.851846695,1,1000,0,1,2,1,5,0,4,3,0,250.0,test,1,E-
1822.83806801,1,1000,0,1,2,1,5,0,4,3,0,250.0,test,1,E-
654.527902603,5,1000,3,1,2,1,5,0,4,3,0,250.0,test,5,E-
639.669895172,1,1000,0,1,2,1,5,0,4,3,0,250.0,test,1,E-
1277.85015106,4,1000,5,1,2,1,5,0,4,3,0,250.0,test,4,E-
846.912145615,3,1000,4,0,2,1,5,0,4,3,0,250.0,test,2,E-
623.685836792,0,1000,2,1,2,1,5,0,4,3,0,250.0,test,0,E-
574.578046799,0,1000,2,1,2,1,5,0,4,3,0,250.0,test,0,E-
687.678098679,0,1000,2,1,2,1,5,0,4,3,0,250.0,test,0,E-
637.541055679,5,1000,3,1,2,1,5,0,4,3,0,250.0,test,5,E-
2158.23984146,2,1000,1,1,2,1,5,0,4,3,0,250.0,test,2,E-
558.596134186,2,1000,1,1,2,1,5,0,4,3,0,250.0,test,2,E-
878.176927567,2,1000,1,1,2,1,5,0,4,3,0,250.0,test,2,E-
814.996957779,3,1000,4,1,2,1,5,0,4,3,0,250.0,test,3,E-
719.080209732,4,1000,5,1,2,1,5,0,4,3,0,250.0,test,4,E-
542.921066284,3,1000,4,0,2,1,5,0,4,3,0,250.0,test,2,E-
1166.48101807,2,1000,1,1,2,1,5,0,4,3,0,250.0,test,2,E-
3022.83883095,4,1000,5,1,2,1,5,0,4,3,0,250.0,test,4,E-
926.738023758,1,1000,0,1,2,1,5,0,4,3,0,250.0,test,1,E-
926.942110062,4,1000,5,1,2,1,5,0,4,3,0,250.0,test,4,E-
558.573961258,5,1000,3,1,2,1,5,0,4,3,0,250.0,test,5,E-
831.752061844,4,1000,5,1,2,1,5,0,4,3,0,250.0,test,4,E-
895.574092865,4,1000,5,1,2,1,5,0,4,3,0,250.0,test,4,E-
959.629058838,2,1000,1,1,2,1,5,0,4,3,0,250.0,test,2,E-
1006.67786598,4,1000,5,1,2,1,5,0,4,3,0,250.0,test,4,E-
735.671043396,4,1000,5,1,2,1,5,0,4,3,0,250.0,test,4,E-
623.082876205,4,1000,5,1,2,1,5,0,4,3,0,250.0,test,4,E-
639.161109924,1,1000,0,1,2,1,5,0,4,3,0,250.0,test,1,E-
606.527090073,1,1000,0,1,2,1,5,0,4,3,0,250.0,test,1,E-
783.060073853,1,1000,0,1,2,1,5,0,4,3,0,250.0,test,1,E-
639.717102051,5,1000,3,1,2,1,5,0,4,3,0,250.0,test,5,E-
767.079114914,0,1000,2,1,2,1,5,0,4,3,0,250.0,test,0,E-
607.693195343,5,1000,3,1,2,1,5,0,4,3,0,250.0,test,5,E-
927.03795433,3,1000,4,0,2,1,5,0,4,3,0,250.0,test,4,E-
991.03808403,1,1000,0,1,2,1,5,0,4,3,0,250.0,test,1,E-
686.555862427,5,1000,3,1,2,1,5,0,4,3,0,250.0,test,5,E-
575.184822083,0,1000,2,1,2,1,5,0,4,3,0,250.0,test,0,E-
766.933917999,2,1000,1,1,2,1,5,0,4,3,0,250.0,test,2,E-
1358.33001137,1,1000,0,1,2,1,5,0,4,3,0,250.0,test,1,E-
751.64604187,0,1000,2,1,2,1,5,0,4,3,0,250.0,test,0,E-
701.892852783,0,1000,2,1,2,1,5,0,4,3,0,250.0,test,0,E-
623.058080673,0,1000,2,1,2,1,5,0,4,3,0,250.0,test,0,E-
1357.90705681,5,1000,3,1,2,1,5,0,4,3,0,250.0,test,5,E-
814.802885056,1,1000,0,1,2,1,5,0,4,3,0,250.0,test,1,E-
622.965812683,0,1000,2,1,2,1,5,0,4,3,0,250.0,test,0,E-
655.025005341,0,1000,2,1,2,1,5,0,4,3,0,250.0,test,0,E-
990.761995316,0,1000,2,1,2,1,5,0,4,3,0,250.0,test,0,E-
1007.56120682,3,1000,4,1,2,1,5,0,4,3,0,250.0,test,3,E-
1805.75990677,1,1000,0,1,2,1,5,0,4,3,0,250.0,test,1,E-
1054.06880379,2,1000,1,0,2,1,5,0,4,3,0,250.0,test,5,E-
670.881986618,1,1000,0,1,2,1,5,0,4,3,0,250.0,test,1,E-
702.971935272,4,1000,5,1,2,1,5,0,4,3,0,250.0,test,4,E-
1662.67800331,5,1000,3,1,2,1,5,0,4,3,0,250.0,test,5,E-
734.994888306,4,1000,5,1,2,1,5,0,4,3,0,250.0,test,4,E-
733.979940414,4,1000,5,1,2,1,5,0,4,3,0,250.0,test,4,E-
1327.62908936,3,1000,4,1,2,1,5,0,4,3,0,250.0,test,3,E-
750.792980194,0,1000,2,1,2,1,5,0,4,3,0,250.0,test,0,E-
670.893907547,5,1000,3,1,2,1,5,0,4,3,0,250.0,test,5,E-
815.714120865,5,1000,3,1,2,1,5,0,4,3,0,250.0,test,5,E-
1487.77198792,2,1000,1,1,2,1,5,0,4,3,0,250.0,test,2,E-
1679.08620834,2,1000,1,1,2,1,5,0,4,3,0,250.0,test,2,E-
1743.0229187,3,1000,4,1,2,1,5,0,4,3,0,250.0,test,3,E-
1406.94403648,2,1000,1,1,2,1,5,0,4,3,0,250.0,test,2,E-
1823.01282883,0,1000,2,1,2,1,5,0,4,3,0,250.0,test,0,E-
670.188188553,5,1000,3,1,2,1,5,0,4,3,0,250.0,test,5,E-
509.99212265,5,1000,3,1,2,1,5,0,4,3,0,250.0,test,5,E-
783.010959625,2,1000,1,1,2,1,5,0,4,3,0,250.0,test,2,E-
655.704021454,3,1000,4,1,2,1,5,0,4,3,0,250.0,test,3,E-
766.290187836,2,1000,1,1,2,1,5,0,4,3,0,250.0,test,2,E-
1151.01313591,1,1000,0,1,2,1,5,0,4,3,0,250.0,test,1,E-
1182.27815628,0,1000,2,1,2,1,5,0,4,3,0,250.0,test,0,E-
1902.24003792,2,1000,1,1,2,1,5,0,4,3,0,250.0,test,2,E-
910.158872604,4,1000,5,1,2,1,5,0,4,3,0,250.0,test,4,E-
4414.935112,2,1000,1,1,2,1,5,0,4,3,0,250.0,test,2,E-
671.131849289,5,1000,3,1,2,1,5,0,4,3,0,250.0,test,5,E-
943.134069443,4,1000,5,1,2,1,5,0,4,3,0,250.0,test,4,E-
1006.28995895,3,1000,4,1,2,1,5,0,4,3,0,250.0,test,3,E-
735.694169998,5,1000,3,1,2,1,5,0,4,3,0,250.0,test,5,E-
670.032978058,5,1000,3,1,2,1,5,0,4,3,0,250.0,test,5,E-
1230.89289665,1,1000,0,1,2,1,5,0,4,3,0,250.0,test,1,E-
4574.77402687,2,1000,1,1,2,1,5,0,4,3,0,250.0,test,2,E-
1326.5171051,3,1000,4,1,2,1,5,0,4,3,0,250.0,test,3,E-
879.067897797,4,1000,5,1,2,1,5,0,4,3,0,250.0,test,4,E-
767.346858978,4,1000,5,1,2,1,5,0,4,3,0,250.0,test,4,E-
1022.96900749,3,1000,4,1,2,1,5,0,4,3,0,250.0,test,3,E-
1102.81991959,1,1000,0,1,2,1,5,0,4,3,0,250.0,test,1,E-
767.730951309,4,1000,5,1,2,1,5,0,4,3,0,250.0,test,4,E-
830.258131027,2,1000,1,1,2,1,5,0,4,3,0,250.0,test,2,E-
814.164876938,5,1000,3,1,2,1,5,0,4,3,0,250.0,test,5,E-
863.615989685,4,1000,5,1,2,1,5,0,4,3,0,250.0,test,4,E-
958.877086639,3,1000,4,1,2,1,5,0,4,3,0,250.0,test,3,E-
638.690948486,5,1000,3,1,2,1,5,0,4,3,0,250.0,test,5,E-
622.96295166,1,1000,0,1,2,1,5,0,4,3,0,250.0,test,1,E-
1327.21090317,3,1000,4,1,2,1,5,0,4,3,0,250.0,test,3,E-
815.279006958,3,1000,4,1,2,1,5,0,4,3,0,250.0,test,3,E-
639.010190964,5,1000,3,1,2,1,5,0,4,3,0,250.0,test,5,E-
527.062177658,0,1000,2,1,2,1,5,0,4,3,0,250.0,test,0,E-
910.921096802,2,1000,1,0,2,1,5,0,4,3,0,250.0,test,3,E-
1645.71905136,4,1000,5,1,2,1,5,0,4,3,0,250.0,test,4,E-
574.414968491,5,1000,3,1,2,1,5,0,4,3,0,250.0,test,5,E-
991.713047028,4,1000,5,1,2,1,5,0,4,3,0,250.0,test,4,E-
895.007133484,3,1000,4,1,2,1,5,0,4,3,0,250.0,test,3,E-
542.601108551,3,1000,4,1,2,1,5,0,4,3,0,250.0,test,3,E-
590.388059616,0,1000,2,1,2,1,5,0,4,3,0,250.0,test,0,E-
575.627088547,1,1000,0,1,2,1,5,0,4,3,0,250.0,test,1,E-
524.787902832,5,1000,3,1,2,1,5,0,4,3,0,250.0,test,5,E-
574.257135391,1,1000,0,1,2,1,5,0,4,3,0,250.0,test,1,E-
814.764022827,2,1000,1,0,2,1,5,0,4,3,0,250.0,test,4,E-
830.233812332,4,1000,5,1,2,1,5,0,4,3,0,250.0,test,4,E-
575.034856796,1,1000,0,1,2,1,5,0,4,3,0,250.0,test,1,E-
639.384031296,1,1000,0,1,2,1,5,0,4,3,0,250.0,test,1,E-
1119.60411072,3,1000,4,1,2,1,5,0,4,3,0,250.0,test,3,E-
623.70300293,2,1000,1,1,2,1,5,0,4,3,0,250.0,test,2,E-
653.656959534,0,1000,2,1,2,1,5,0,4,3,0,250.0,test,0,E-
1167.55509377,1,1000,0,1,2,1,5,0,4,3,0,250.0,test,1,E-
