RT,correct_response,ms-prestimblank,curstim,correct,SRmap_1,SRmap_0,SRmap_3,SRmap_2,SRmap_5,SRmap_4,ms-precue,ntrials,type,response,condition
6287.79697418,5,1000,5,1,4,0,3,1,5,2,0,250.0,train,5,H+
3072.16906548,4,1000,1,1,4,0,3,1,5,2,0,250.0,train,4,H+
992.376804352,5,1000,5,1,4,0,3,1,5,2,0,250.0,train,5,H+
1136.44790649,0,1000,0,1,4,0,3,1,5,2,0,250.0,train,0,H+
1440.33908844,3,1000,3,1,4,0,3,1,5,2,0,250.0,train,3,H+
752.367973328,4,1000,1,1,4,0,3,1,5,2,0,250.0,train,4,H+
1216.30907059,2,1000,4,1,4,0,3,1,5,2,0,250.0,train,2,H+
656.208992004,3,1000,3,0,4,0,3,1,5,2,0,250.0,train,5,H+
864.398956299,3,1000,3,0,4,0,3,1,5,2,0,250.0,train,4,H+
1760.28800011,2,1000,4,1,4,0,3,1,5,2,0,250.0,train,2,H+
1008.39400291,3,1000,3,1,4,0,3,1,5,2,0,250.0,train,3,H+
640.450954437,5,1000,5,0,4,0,3,1,5,2,0,250.0,train,3,H+
1040.98510742,2,1000,4,1,4,0,3,1,5,2,0,250.0,train,2,H+
1248.34012985,0,1000,0,1,4,0,3,1,5,2,0,250.0,train,0,H+
1088.42897415,4,1000,1,1,4,0,3,1,5,2,0,250.0,train,4,H+
1247.96009064,1,1000,2,1,4,0,3,1,5,2,0,250.0,train,1,H+
768.524169922,1,1000,2,1,4,0,3,1,5,2,0,250.0,train,1,H+
1200.32691956,0,1000,0,1,4,0,3,1,5,2,0,250.0,train,0,H+
720.112085342,2,1000,4,1,4,0,3,1,5,2,0,250.0,train,2,H+
960.439920425,3,1000,3,1,4,0,3,1,5,2,0,250.0,train,3,H+
1232.33008385,1,1000,2,1,4,0,3,1,5,2,0,250.0,train,1,H+
1088.504076,2,1000,4,1,4,0,3,1,5,2,0,250.0,train,2,H+
688.399791718,5,1000,5,1,4,0,3,1,5,2,0,250.0,train,5,H+
368.363857269,0,1000,0,1,4,0,3,1,5,2,0,250.0,train,0,H+
1216.25900269,4,1000,1,1,4,0,3,1,5,2,0,250.0,train,4,H+
752.388954163,2,1000,4,1,4,0,3,1,5,2,0,250.0,train,2,H+
1152.37522125,1,1000,2,1,4,0,3,1,5,2,0,250.0,train,1,H+
688.527107239,4,1000,1,1,4,0,3,1,5,2,0,250.0,train,4,H+
896.510124207,2,1000,4,1,4,0,3,1,5,2,0,250.0,train,2,H+
832.324981689,3,1000,3,1,4,0,3,1,5,2,0,250.0,train,3,H+
1104.48694229,1,1000,2,1,4,0,3,1,5,2,0,250.0,train,1,H+
1056.43606186,4,1000,1,1,4,0,3,1,5,2,0,250.0,train,4,H+
992.365837097,2,1000,4,1,4,0,3,1,5,2,0,250.0,train,2,H+
1248.44789505,4,1000,1,1,4,0,3,1,5,2,0,250.0,train,4,H+
896.356105804,3,1000,3,1,4,0,3,1,5,2,0,250.0,train,3,H+
688.366889954,5,1000,5,0,4,0,3,1,5,2,0,250.0,train,3,H+
864.101171494,4,1000,1,1,4,0,3,1,5,2,0,250.0,train,4,H+
928.395032883,2,1000,4,1,4,0,3,1,5,2,0,250.0,train,2,H+
672.519922256,3,1000,3,1,4,0,3,1,5,2,0,250.0,train,3,H+
992.475986481,5,1000,5,0,4,0,3,1,5,2,0,250.0,train,0,H+
1136.24215126,2,1000,4,1,4,0,3,1,5,2,0,250.0,train,2,H+
1056.47087097,3,1000,3,0,4,0,3,1,5,2,0,250.0,train,2,H+
592.260122299,3,1000,3,1,4,0,3,1,5,2,0,250.0,train,3,H+
608.272790909,3,1000,3,1,4,0,3,1,5,2,0,250.0,train,3,H+
768.41711998,0,1000,0,1,4,0,3,1,5,2,0,250.0,train,0,H+
800.286054611,5,1000,5,1,4,0,3,1,5,2,0,250.0,train,5,H+
400.321006775,0,1000,0,1,4,0,3,1,5,2,0,250.0,train,0,H+
512.326002121,4,1000,1,0,4,0,3,1,5,2,0,250.0,train,1,H+
736.306905746,1,1000,2,1,4,0,3,1,5,2,0,250.0,train,1,H+
736.181020737,4,1000,1,1,4,0,3,1,5,2,0,250.0,train,4,H+
736.41705513,1,1000,2,1,4,0,3,1,5,2,0,250.0,train,1,H+
736.274957657,0,1000,0,1,4,0,3,1,5,2,0,250.0,train,0,H+
656.43787384,4,1000,1,1,4,0,3,1,5,2,0,250.0,train,4,H+
1424.36385155,2,1000,4,1,4,0,3,1,5,2,0,250.0,train,2,H+
624.459981918,3,1000,3,0,4,0,3,1,5,2,0,250.0,train,5,H+
864.013195038,3,1000,3,1,4,0,3,1,5,2,0,250.0,train,3,H+
624.399900436,0,1000,0,1,4,0,3,1,5,2,0,250.0,train,0,H+
1008.38184357,2,1000,4,1,4,0,3,1,5,2,0,250.0,train,2,H+
1040.57097435,2,1000,4,0,4,0,3,1,5,2,0,250.0,train,3,H+
608.263015747,3,1000,3,1,4,0,3,1,5,2,0,250.0,train,3,H+
928.554058075,5,1000,5,1,4,0,3,1,5,2,0,250.0,train,5,H+
848.458051682,5,1000,5,1,4,0,3,1,5,2,0,250.0,train,5,H+
1088.38891983,2,1000,4,0,4,0,3,1,5,2,0,250.0,train,1,H+
1088.38295937,3,1000,3,0,4,0,3,1,5,2,0,250.0,train,5,H+
672.224998474,0,1000,0,1,4,0,3,1,5,2,0,250.0,train,0,H+
1184.39888954,2,1000,4,1,4,0,3,1,5,2,0,250.0,train,2,H+
640.457868576,4,1000,1,1,4,0,3,1,5,2,0,250.0,train,4,H+
640.383958817,3,1000,3,0,4,0,3,1,5,2,0,250.0,train,2,H+
848.354816437,1,1000,2,1,4,0,3,1,5,2,0,250.0,train,1,H+
592.469215393,4,1000,1,1,4,0,3,1,5,2,0,250.0,train,4,H+
624.430179596,4,1000,1,1,4,0,3,1,5,2,0,250.0,train,4,H+
576.261043549,0,1000,0,1,4,0,3,1,5,2,0,250.0,train,0,H+
544.105052948,1,1000,2,1,4,0,3,1,5,2,0,250.0,train,1,H+
528.35893631,1,1000,2,1,4,0,3,1,5,2,0,250.0,train,1,H+
656.122922897,4,1000,1,1,4,0,3,1,5,2,0,250.0,train,4,H+
816.523075104,2,1000,4,1,4,0,3,1,5,2,0,250.0,train,2,H+
496.417999268,0,1000,0,1,4,0,3,1,5,2,0,250.0,train,0,H+
400.476932526,5,1000,5,0,4,0,3,1,5,2,0,250.0,train,3,H+
448.328971863,3,1000,3,1,4,0,3,1,5,2,0,250.0,train,3,H+
896.191835403,4,1000,1,1,4,0,3,1,5,2,0,250.0,train,4,H+
800.515890121,0,1000,0,1,4,0,3,1,5,2,0,250.0,train,0,H+
528.367042542,4,1000,1,0,4,0,3,1,5,2,0,250.0,train,1,H+
848.124980927,0,1000,0,1,4,0,3,1,5,2,0,250.0,train,0,H+
336.323022842,3,1000,3,1,4,0,3,1,5,2,0,250.0,train,3,H+
736.379146576,4,1000,1,1,4,0,3,1,5,2,0,250.0,train,4,H+
576.380968094,4,1000,1,1,4,0,3,1,5,2,0,250.0,train,4,H+
640.537977219,0,1000,0,1,4,0,3,1,5,2,0,250.0,train,0,H+
544.534921646,4,1000,1,1,4,0,3,1,5,2,0,250.0,train,4,H+
656.410932541,4,1000,1,1,4,0,3,1,5,2,0,250.0,train,4,H+
496.512889862,1,1000,2,0,4,0,3,1,5,2,0,250.0,train,4,H+
704.344034195,1,1000,2,1,4,0,3,1,5,2,0,250.0,train,1,H+
976.397037506,3,1000,3,1,4,0,3,1,5,2,0,250.0,train,3,H+
960.498094559,1,1000,2,1,4,0,3,1,5,2,0,250.0,train,1,H+
432.538986206,1,1000,2,1,4,0,3,1,5,2,0,250.0,train,1,H+
400.429010391,0,1000,0,1,4,0,3,1,5,2,0,250.0,train,0,H+
896.56996727,1,1000,2,1,4,0,3,1,5,2,0,250.0,train,1,H+
544.481039047,5,1000,5,0,4,0,3,1,5,2,0,250.0,train,0,H+
640.326976776,0,1000,0,0,4,0,3,1,5,2,0,250.0,train,1,H+
992.351055145,3,1000,3,1,4,0,3,1,5,2,0,250.0,train,3,H+
880.397081375,1,1000,2,1,4,0,3,1,5,2,0,250.0,train,1,H+
512.373924255,0,1000,0,1,4,0,3,1,5,2,0,250.0,train,0,H+
864.413022995,4,1000,1,1,4,0,3,1,5,2,0,250.0,train,4,H+
512.437105179,3,1000,3,0,4,0,3,1,5,2,0,250.0,train,0,H+
592.33880043,3,1000,3,1,4,0,3,1,5,2,0,250.0,train,3,H+
576.185941696,0,1000,0,1,4,0,3,1,5,2,0,250.0,train,0,H+
496.333837509,0,1000,0,1,4,0,3,1,5,2,0,250.0,train,0,H+
432.358980179,0,1000,0,1,4,0,3,1,5,2,0,250.0,train,0,H+
1088.34409714,2,1000,4,1,4,0,3,1,5,2,0,250.0,train,2,H+
512.311935425,0,1000,0,1,4,0,3,1,5,2,0,250.0,train,0,H+
448.263168335,5,1000,5,0,4,0,3,1,5,2,0,250.0,train,0,H+
416.373968124,0,1000,0,1,4,0,3,1,5,2,0,250.0,train,0,H+
688.41791153,2,1000,4,1,4,0,3,1,5,2,0,250.0,train,2,H+
544.449806213,5,1000,5,0,4,0,3,1,5,2,0,250.0,train,0,H+
640.241146088,2,1000,4,1,4,0,3,1,5,2,0,250.0,train,2,H+
1168.31612587,3,1000,3,0,4,0,3,1,5,2,0,250.0,train,5,H+
944.395065308,1,1000,2,1,4,0,3,1,5,2,0,250.0,train,1,H+
560.365915298,0,1000,0,1,4,0,3,1,5,2,0,250.0,train,0,H+
608.27422142,0,1000,0,1,4,0,3,1,5,2,0,250.0,train,0,H+
928.412914276,4,1000,1,1,4,0,3,1,5,2,0,250.0,train,4,H+
672.444820404,5,1000,5,0,4,0,3,1,5,2,0,250.0,train,3,H+
432.260036469,0,1000,0,1,4,0,3,1,5,2,0,250.0,train,0,H+
576.234102249,0,1000,0,1,4,0,3,1,5,2,0,250.0,train,0,H+
864.141941071,5,1000,5,1,4,0,3,1,5,2,0,250.0,train,5,H+
848.415851593,4,1000,1,1,4,0,3,1,5,2,0,250.0,train,4,H+
512.421131134,0,1000,0,1,4,0,3,1,5,2,0,250.0,train,0,H+
848.453044891,1,1000,2,1,4,0,3,1,5,2,0,250.0,train,1,H+
688.477039337,4,1000,1,1,4,0,3,1,5,2,0,250.0,train,4,H+
544.51084137,4,1000,1,1,4,0,3,1,5,2,0,250.0,train,4,H+
640.357017517,2,1000,4,1,4,0,3,1,5,2,0,250.0,train,2,H+
384.000778198,2,1000,4,1,4,0,3,1,5,2,0,250.0,train,2,H+
1120.51892281,3,1000,3,1,4,0,3,1,5,2,0,250.0,train,3,H+
384.306907654,3,1000,3,1,4,0,3,1,5,2,0,250.0,train,3,H+
464.461088181,3,1000,3,1,4,0,3,1,5,2,0,250.0,train,3,H+
880.479097366,1,1000,2,1,4,0,3,1,5,2,0,250.0,train,1,H+
688.358068466,3,1000,3,1,4,0,3,1,5,2,0,250.0,train,3,H+
368.432044983,5,1000,5,1,4,0,3,1,5,2,0,250.0,train,5,H+
464.336872101,3,1000,3,1,4,0,3,1,5,2,0,250.0,train,3,H+
640.441894531,2,1000,4,1,4,0,3,1,5,2,0,250.0,train,2,H+
480.458974838,2,1000,4,1,4,0,3,1,5,2,0,250.0,train,2,H+
352.290868759,2,1000,4,1,4,0,3,1,5,2,0,250.0,train,2,H+
672.435998917,3,1000,3,1,4,0,3,1,5,2,0,250.0,train,3,H+
960.417985916,1,1000,2,1,4,0,3,1,5,2,0,250.0,train,1,H+
624.471902847,2,1000,4,1,4,0,3,1,5,2,0,250.0,train,2,H+
384.401082993,2,1000,4,1,4,0,3,1,5,2,0,250.0,train,2,H+
352.149009705,2,1000,4,1,4,0,3,1,5,2,0,250.0,train,2,H+
768.518924713,5,1000,5,0,4,0,3,1,5,2,0,250.0,train,3,H+
544.380903244,0,1000,0,1,4,0,3,1,5,2,0,250.0,train,0,H+
368.52312088,0,1000,0,1,4,0,3,1,5,2,0,250.0,train,0,H+
880.476951599,1,1000,2,1,4,0,3,1,5,2,0,250.0,train,1,H+
960.498809814,5,1000,5,1,4,0,3,1,5,2,0,250.0,train,5,H+
528.462171555,2,1000,4,1,4,0,3,1,5,2,0,250.0,train,2,H+
464.411973953,4,1000,1,1,4,0,3,1,5,2,0,250.0,train,4,H+
512.377977371,2,1000,4,1,4,0,3,1,5,2,0,250.0,train,2,H+
656.497001648,3,1000,3,1,4,0,3,1,5,2,0,250.0,train,3,H+
656.502962112,1,1000,2,1,4,0,3,1,5,2,0,250.0,train,1,H+
624.320983887,3,1000,3,1,4,0,3,1,5,2,0,250.0,train,3,H+
320.381879807,5,1000,5,1,4,0,3,1,5,2,0,250.0,train,5,H+
608.348846436,3,1000,3,1,4,0,3,1,5,2,0,250.0,train,3,H+
672.411203384,4,1000,1,0,4,0,3,1,5,2,0,250.0,train,1,H+
575.834989548,2,1000,4,1,4,0,3,1,5,2,0,250.0,train,2,H+
399.636983871,2,1000,4,1,4,0,3,1,5,2,0,250.0,train,2,H+
528.789997101,0,1000,0,1,4,0,3,1,5,2,0,250.0,train,0,H+
864.756822586,1,1000,2,1,4,0,3,1,5,2,0,250.0,train,1,H+
544.066905975,5,1000,5,0,4,0,3,1,5,2,0,250.0,train,2,H+
783.82396698,4,1000,1,1,4,0,3,1,5,2,0,250.0,train,4,H+
848.503828049,5,1000,5,0,4,0,3,1,5,2,0,250.0,train,3,H+
496.251106262,0,1000,0,1,4,0,3,1,5,2,0,250.0,train,0,H+
368.457078934,3,1000,3,1,4,0,3,1,5,2,0,250.0,train,3,H+
608.375072479,4,1000,1,1,4,0,3,1,5,2,0,250.0,train,4,H+
496.220827103,0,1000,0,1,4,0,3,1,5,2,0,250.0,train,0,H+
496.230840683,3,1000,3,1,4,0,3,1,5,2,0,250.0,train,3,H+
480.357170105,4,1000,1,1,4,0,3,1,5,2,0,250.0,train,4,H+
384.423017502,4,1000,1,0,4,0,3,1,5,2,0,250.0,train,3,H+
672.224998474,3,1000,3,1,4,0,3,1,5,2,0,250.0,train,3,H+
736.392974854,1,1000,2,1,4,0,3,1,5,2,0,250.0,train,1,H+
608.530044556,4,1000,1,1,4,0,3,1,5,2,0,250.0,train,4,H+
448.351860046,1,1000,2,0,4,0,3,1,5,2,0,250.0,train,4,H+
528.401136398,2,1000,4,0,4,0,3,1,5,2,0,250.0,train,0,H+
736.369848251,1,1000,2,1,4,0,3,1,5,2,0,250.0,train,1,H+
640.671014786,2,1000,4,1,4,0,3,1,5,2,0,250.0,train,2,H+
752.34413147,4,1000,1,1,4,0,3,1,5,2,0,250.0,train,4,H+
688.190937042,3,1000,3,1,4,0,3,1,5,2,0,250.0,train,3,H+
480.60798645,0,1000,0,1,4,0,3,1,5,2,0,250.0,train,0,H+
432.309865952,5,1000,5,1,4,0,3,1,5,2,0,250.0,train,5,H+
416.374921799,5,1000,5,0,4,0,3,1,5,2,0,250.0,train,3,H+
544.350862503,4,1000,1,1,4,0,3,1,5,2,0,250.0,train,4,H+
528.275966644,1,1000,2,1,4,0,3,1,5,2,0,250.0,train,1,H+
496.205806732,0,1000,0,1,4,0,3,1,5,2,0,250.0,train,0,H+
528.303861618,0,1000,0,1,4,0,3,1,5,2,0,250.0,train,0,H+
528.455972672,4,1000,1,1,4,0,3,1,5,2,0,250.0,train,4,H+
624.264001846,3,1000,3,0,4,0,3,1,5,2,0,250.0,train,2,H+
544.357061386,3,1000,3,1,4,0,3,1,5,2,0,250.0,train,3,H+
720.407962799,1,1000,2,1,4,0,3,1,5,2,0,250.0,train,1,H+
480.324983597,2,1000,4,0,4,0,3,1,5,2,0,250.0,train,0,H+
560.41097641,1,1000,2,1,4,0,3,1,5,2,0,250.0,train,1,H+
496.340036392,1,1000,2,1,4,0,3,1,5,2,0,250.0,train,1,H+
912.333965302,5,1000,5,1,4,0,3,1,5,2,0,250.0,train,5,H+
656.475067139,4,1000,1,1,4,0,3,1,5,2,0,250.0,train,4,H+
656.336069107,2,1000,4,1,4,0,3,1,5,2,0,250.0,train,2,H+
864.083051682,5,1000,5,1,4,0,3,1,5,2,0,250.0,train,5,H+
768.403053284,1,1000,2,1,4,0,3,1,5,2,0,250.0,train,1,H+
592.445135117,1,1000,2,1,4,0,3,1,5,2,0,250.0,train,1,H+
432.456970215,1,1000,2,1,4,0,3,1,5,2,0,250.0,train,1,H+
720.325946808,0,1000,0,1,4,0,3,1,5,2,0,250.0,train,0,H+
720.517873764,4,1000,1,1,4,0,3,1,5,2,0,250.0,train,4,H+
816.459178925,3,1000,3,1,4,0,3,1,5,2,0,250.0,train,3,H+
608.215093613,1,1000,2,1,4,0,3,1,5,2,0,250.0,train,1,H+
976.398944855,5,1000,5,1,4,0,3,1,5,2,0,250.0,train,5,H+
560.380935669,4,1000,1,1,4,0,3,1,5,2,0,250.0,train,4,H+
656.321048737,1,1000,2,1,4,0,3,1,5,2,0,250.0,train,1,H+
591.532945633,5,1000,5,1,4,0,3,1,5,2,0,250.0,train,5,H+
591.335058212,2,1000,4,1,4,0,3,1,5,2,0,250.0,train,2,H+
640.768051147,5,1000,5,1,4,0,3,1,5,2,0,250.0,train,5,H+
592.363119125,1,1000,2,1,4,0,3,1,5,2,0,250.0,train,1,H+
575.59800148,1,1000,2,1,4,0,3,1,5,2,0,250.0,train,1,H+
864.042043686,3,1000,3,1,4,0,3,1,5,2,0,250.0,train,3,H+
656.821012497,2,1000,4,1,4,0,3,1,5,2,0,250.0,train,2,H+
1008.42213631,3,1000,3,1,4,0,3,1,5,2,0,250.0,train,3,H+
608.361005783,4,1000,1,1,4,0,3,1,5,2,0,250.0,train,4,H+
544.363975525,4,1000,1,1,4,0,3,1,5,2,0,250.0,train,4,H+
416.429042816,4,1000,1,1,4,0,3,1,5,2,0,250.0,train,4,H+
400.516986847,4,1000,1,1,4,0,3,1,5,2,0,250.0,train,4,H+
656.389951706,1,1000,2,1,4,0,3,1,5,2,0,250.0,train,1,H+
528.825044632,4,1000,1,1,4,0,3,1,5,2,0,250.0,train,4,H+
592.334985733,2,1000,4,1,4,0,3,1,5,2,0,250.0,train,2,H+
688.60912323,2,1000,4,1,4,0,3,1,5,2,0,250.0,train,2,H+
496.62399292,0,1000,0,1,4,0,3,1,5,2,0,250.0,train,0,H+
608.85310173,3,1000,3,1,4,0,3,1,5,2,0,250.0,train,3,H+
448.460102081,5,1000,5,1,4,0,3,1,5,2,0,250.0,train,5,H+
512.407064438,4,1000,1,1,4,0,3,1,5,2,0,250.0,train,4,H+
656.313896179,5,1000,5,1,4,0,3,1,5,2,0,250.0,train,5,H+
752.326965332,1,1000,2,1,4,0,3,1,5,2,0,250.0,train,1,H+
592.47303009,5,1000,5,1,4,0,3,1,5,2,0,250.0,train,5,H+
624.386072159,3,1000,3,1,4,0,3,1,5,2,0,250.0,train,3,H+
656.411886215,2,1000,4,1,4,0,3,1,5,2,0,250.0,train,2,H+
544.298171997,1,1000,2,1,4,0,3,1,5,2,0,250.0,train,1,H+
736.452102661,5,1000,5,1,4,0,3,1,5,2,0,250.0,train,5,H+
688.390016556,3,1000,3,1,4,0,3,1,5,2,0,250.0,train,3,H+
608.099222183,0,1000,0,1,4,0,3,1,5,2,0,250.0,train,0,H+
736.312866211,4,1000,1,1,4,0,3,1,5,2,0,250.0,train,4,H+
528.427124023,0,1000,0,1,4,0,3,1,5,2,0,250.0,train,0,H+
544.37494278,4,1000,1,1,4,0,3,1,5,2,0,250.0,train,4,H+
576.306819916,1,1000,2,1,4,0,3,1,5,2,0,250.0,train,1,H+
544.438838959,3,1000,3,1,4,0,3,1,5,2,0,250.0,train,3,H+
544.362068176,2,1000,4,1,4,0,3,1,5,2,0,250.0,train,2,H+
544.448852539,3,1000,3,1,4,0,3,1,5,2,0,250.0,train,3,H+
400.389909744,5,1000,5,1,4,0,3,1,5,2,0,250.0,train,5,H+
400.363922119,4,1000,1,1,4,0,3,1,5,2,0,250.0,train,4,H+
592.390060425,5,1000,5,0,4,0,3,1,5,2,0,250.0,train,3,H+
480.235099792,0,1000,0,1,4,0,3,1,5,2,0,250.0,train,0,H+
1216.10713005,5,1000,5,1,4,0,3,1,5,2,0,250.0,test,5,H+
432.366132736,0,1000,0,1,4,0,3,1,5,2,0,250.0,test,0,H+
352.360010147,3,1000,3,1,4,0,3,1,5,2,0,250.0,test,3,H+
512.356042862,1,1000,2,1,4,0,3,1,5,2,0,250.0,test,1,H+
544.247865677,4,1000,1,1,4,0,3,1,5,2,0,250.0,test,4,H+
528.153896332,2,1000,4,0,4,0,3,1,5,2,0,250.0,test,0,H+
752.425193787,5,1000,5,1,4,0,3,1,5,2,0,250.0,test,5,H+
560.307979584,4,1000,1,1,4,0,3,1,5,2,0,250.0,test,4,H+
640.324115753,0,1000,0,1,4,0,3,1,5,2,0,250.0,test,0,H+
608.342885971,1,1000,2,0,4,0,3,1,5,2,0,250.0,test,4,H+
848.407030106,3,1000,3,1,4,0,3,1,5,2,0,250.0,test,3,H+
321.145057678,5,1000,5,1,4,0,3,1,5,2,0,250.0,test,5,H+
672.455072403,1,1000,2,1,4,0,3,1,5,2,0,250.0,test,1,H+
480.521917343,0,1000,0,1,4,0,3,1,5,2,0,250.0,test,0,H+
624.546051025,5,1000,5,1,4,0,3,1,5,2,0,250.0,test,5,H+
432.395935059,0,1000,0,1,4,0,3,1,5,2,0,250.0,test,0,H+
640.384197235,1,1000,2,1,4,0,3,1,5,2,0,250.0,test,1,H+
640.393972397,1,1000,2,1,4,0,3,1,5,2,0,250.0,test,1,H+
560.541152954,5,1000,5,1,4,0,3,1,5,2,0,250.0,test,5,H+
960.469007492,5,1000,5,1,4,0,3,1,5,2,0,250.0,test,5,H+
608.396053314,1,1000,2,1,4,0,3,1,5,2,0,250.0,test,1,H+
560.436964035,4,1000,1,1,4,0,3,1,5,2,0,250.0,test,4,H+
512.357950211,1,1000,2,1,4,0,3,1,5,2,0,250.0,test,1,H+
512.336015701,2,1000,4,0,4,0,3,1,5,2,0,250.0,test,0,H+
368.287086487,0,1000,0,1,4,0,3,1,5,2,0,250.0,test,0,H+
528.497934341,5,1000,5,1,4,0,3,1,5,2,0,250.0,test,5,H+
576.375961304,1,1000,2,1,4,0,3,1,5,2,0,250.0,test,1,H+
624.3019104,3,1000,3,1,4,0,3,1,5,2,0,250.0,test,3,H+
480.254888535,3,1000,3,1,4,0,3,1,5,2,0,250.0,test,3,H+
752.471923828,4,1000,1,1,4,0,3,1,5,2,0,250.0,test,4,H+
832.402944565,2,1000,4,1,4,0,3,1,5,2,0,250.0,test,2,H+
448.450803757,2,1000,4,1,4,0,3,1,5,2,0,250.0,test,2,H+
800.432920456,3,1000,3,1,4,0,3,1,5,2,0,250.0,test,3,H+
560.401201248,2,1000,4,1,4,0,3,1,5,2,0,250.0,test,2,H+
752.398967743,3,1000,3,1,4,0,3,1,5,2,0,250.0,test,3,H+
592.02003479,0,1000,0,1,4,0,3,1,5,2,0,250.0,test,0,H+
1280.32398224,2,1000,4,1,4,0,3,1,5,2,0,250.0,test,2,H+
576.324939728,0,1000,0,1,4,0,3,1,5,2,0,250.0,test,0,H+
752.424001694,2,1000,4,1,4,0,3,1,5,2,0,250.0,test,2,H+
640.344142914,4,1000,1,1,4,0,3,1,5,2,0,250.0,test,4,H+
576.462030411,3,1000,3,1,4,0,3,1,5,2,0,250.0,test,3,H+
640.326023102,1,1000,2,1,4,0,3,1,5,2,0,250.0,test,1,H+
912.482023239,4,1000,1,1,4,0,3,1,5,2,0,250.0,test,4,H+
688.4329319,1,1000,2,1,4,0,3,1,5,2,0,250.0,test,1,H+
608.369112015,1,1000,2,1,4,0,3,1,5,2,0,250.0,test,1,H+
672.313928604,3,1000,3,1,4,0,3,1,5,2,0,250.0,test,3,H+
624.347925186,1,1000,2,1,4,0,3,1,5,2,0,250.0,test,1,H+
528.343915939,3,1000,3,1,4,0,3,1,5,2,0,250.0,test,3,H+
576.433181763,5,1000,5,1,4,0,3,1,5,2,0,250.0,test,5,H+
1120.14007568,3,1000,3,1,4,0,3,1,5,2,0,250.0,test,3,H+
624.407052994,1,1000,2,1,4,0,3,1,5,2,0,250.0,test,1,H+
608.497142792,2,1000,4,1,4,0,3,1,5,2,0,250.0,test,2,H+
464.388132095,0,1000,0,1,4,0,3,1,5,2,0,250.0,test,0,H+
624.383926392,2,1000,4,1,4,0,3,1,5,2,0,250.0,test,2,H+
688.480138779,3,1000,3,1,4,0,3,1,5,2,0,250.0,test,3,H+
608.382940292,1,1000,2,1,4,0,3,1,5,2,0,250.0,test,1,H+
400.434017181,1,1000,2,1,4,0,3,1,5,2,0,250.0,test,1,H+
544.381856918,5,1000,5,0,4,0,3,1,5,2,0,250.0,test,3,H+
528.304100037,5,1000,5,1,4,0,3,1,5,2,0,250.0,test,5,H+
512.459993362,3,1000,3,1,4,0,3,1,5,2,0,250.0,test,3,H+
496.464014053,0,1000,0,1,4,0,3,1,5,2,0,250.0,test,0,H+
352.409124374,4,1000,1,1,4,0,3,1,5,2,0,250.0,test,4,H+
496.295928955,2,1000,4,1,4,0,3,1,5,2,0,250.0,test,2,H+
496.096849442,1,1000,2,0,4,0,3,1,5,2,0,250.0,test,4,H+
416.381120682,1,1000,2,1,4,0,3,1,5,2,0,250.0,test,1,H+
432.421922684,4,1000,1,1,4,0,3,1,5,2,0,250.0,test,4,H+
528.469800949,0,1000,0,1,4,0,3,1,5,2,0,250.0,test,0,H+
640.460014343,3,1000,3,1,4,0,3,1,5,2,0,250.0,test,3,H+
496.374845505,3,1000,3,1,4,0,3,1,5,2,0,250.0,test,3,H+
432.255983353,5,1000,5,1,4,0,3,1,5,2,0,250.0,test,5,H+
527.974843979,2,1000,4,1,4,0,3,1,5,2,0,250.0,test,2,H+
1904.45613861,1,1000,2,1,4,0,3,1,5,2,0,250.0,test,1,H+
960.474014282,2,1000,4,1,4,0,3,1,5,2,0,250.0,test,2,H+
576.43198967,5,1000,5,1,4,0,3,1,5,2,0,250.0,test,5,H+
640.377998352,4,1000,1,1,4,0,3,1,5,2,0,250.0,test,4,H+
784.569978714,4,1000,1,1,4,0,3,1,5,2,0,250.0,test,4,H+
688.37594986,3,1000,3,1,4,0,3,1,5,2,0,250.0,test,3,H+
896.431922913,5,1000,5,1,4,0,3,1,5,2,0,250.0,test,5,H+
640.477180481,4,1000,1,1,4,0,3,1,5,2,0,250.0,test,4,H+
704.444169998,1,1000,2,1,4,0,3,1,5,2,0,250.0,test,1,H+
688.393115997,3,1000,3,0,4,0,3,1,5,2,0,250.0,test,2,H+
752.038002014,5,1000,5,1,4,0,3,1,5,2,0,250.0,test,5,H+
688.576936722,3,1000,3,1,4,0,3,1,5,2,0,250.0,test,3,H+
656.34393692,1,1000,2,1,4,0,3,1,5,2,0,250.0,test,1,H+
592.373847961,0,1000,0,1,4,0,3,1,5,2,0,250.0,test,0,H+
608.480215073,2,1000,4,1,4,0,3,1,5,2,0,250.0,test,2,H+
576.284885406,0,1000,0,1,4,0,3,1,5,2,0,250.0,test,0,H+
656.461000443,5,1000,5,1,4,0,3,1,5,2,0,250.0,test,5,H+
432.388067245,1,1000,2,1,4,0,3,1,5,2,0,250.0,test,1,H+
592.476129532,2,1000,4,1,4,0,3,1,5,2,0,250.0,test,2,H+
560.29510498,2,1000,4,1,4,0,3,1,5,2,0,250.0,test,2,H+
400.422096252,4,1000,1,1,4,0,3,1,5,2,0,250.0,test,4,H+
448.310852051,4,1000,1,1,4,0,3,1,5,2,0,250.0,test,4,H+
496.407985687,5,1000,5,1,4,0,3,1,5,2,0,250.0,test,5,H+
512.225151062,3,1000,3,1,4,0,3,1,5,2,0,250.0,test,3,H+
560.576915741,1,1000,2,0,4,0,3,1,5,2,0,250.0,test,4,H+
528.779983521,1,1000,2,1,4,0,3,1,5,2,0,250.0,test,1,H+
656.03685379,0,1000,0,1,4,0,3,1,5,2,0,250.0,test,0,H+
528.795957565,5,1000,5,1,4,0,3,1,5,2,0,250.0,test,5,H+
431.983947754,3,1000,3,1,4,0,3,1,5,2,0,250.0,test,3,H+
512.744903564,1,1000,2,1,4,0,3,1,5,2,0,250.0,test,1,H+
656.268119812,2,1000,4,1,4,0,3,1,5,2,0,250.0,test,2,H+
576.181173325,1,1000,2,1,4,0,3,1,5,2,0,250.0,test,1,H+
576.11989975,2,1000,4,1,4,0,3,1,5,2,0,250.0,test,2,H+
448.06599617,1,1000,2,1,4,0,3,1,5,2,0,250.0,test,1,H+
1008.30602646,3,1000,3,0,4,0,3,1,5,2,0,250.0,test,5,H+
448.235034943,1,1000,2,1,4,0,3,1,5,2,0,250.0,test,1,H+
591.820955276,5,1000,5,1,4,0,3,1,5,2,0,250.0,test,5,H+
512.340784073,4,1000,1,0,4,0,3,1,5,2,0,250.0,test,1,H+
543.689012527,4,1000,1,0,4,0,3,1,5,2,0,250.0,test,1,H+
832.771062851,5,1000,5,1,4,0,3,1,5,2,0,250.0,test,5,H+
592.621088028,3,1000,3,0,4,0,3,1,5,2,0,250.0,test,5,H+
559.890031815,0,1000,0,1,4,0,3,1,5,2,0,250.0,test,0,H+
415.981054306,0,1000,0,1,4,0,3,1,5,2,0,250.0,test,0,H+
608.086109161,4,1000,1,1,4,0,3,1,5,2,0,250.0,test,4,H+
592.490911484,2,1000,4,1,4,0,3,1,5,2,0,250.0,test,2,H+
672.996044159,3,1000,3,1,4,0,3,1,5,2,0,250.0,test,3,H+
576.462984085,3,1000,3,1,4,0,3,1,5,2,0,250.0,test,3,H+
592.56696701,4,1000,1,1,4,0,3,1,5,2,0,250.0,test,4,H+
640.478134155,1,1000,2,1,4,0,3,1,5,2,0,250.0,test,1,H+
640.434026718,5,1000,5,1,4,0,3,1,5,2,0,250.0,test,5,H+
704.576969147,2,1000,4,1,4,0,3,1,5,2,0,250.0,test,2,H+
848.545074463,5,1000,5,1,4,0,3,1,5,2,0,250.0,test,5,H+
624.464988708,4,1000,1,1,4,0,3,1,5,2,0,250.0,test,4,H+
592.443943024,0,1000,0,1,4,0,3,1,5,2,0,250.0,test,0,H+
608.090877533,3,1000,3,1,4,0,3,1,5,2,0,250.0,test,3,H+
640.445947647,3,1000,3,1,4,0,3,1,5,2,0,250.0,test,3,H+
544.298171997,4,1000,1,1,4,0,3,1,5,2,0,250.0,test,4,H+
576.361894608,4,1000,1,1,4,0,3,1,5,2,0,250.0,test,4,H+
640.090942383,1,1000,2,1,4,0,3,1,5,2,0,250.0,test,1,H+
592.45300293,5,1000,5,1,4,0,3,1,5,2,0,250.0,test,5,H+
496.364116669,0,1000,0,1,4,0,3,1,5,2,0,250.0,test,0,H+
608.378171921,4,1000,1,1,4,0,3,1,5,2,0,250.0,test,4,H+
544.183969498,3,1000,3,1,4,0,3,1,5,2,0,250.0,test,3,H+
543.807029724,4,1000,1,1,4,0,3,1,5,2,0,250.0,test,4,H+
623.98314476,4,1000,1,1,4,0,3,1,5,2,0,250.0,test,4,H+
608.798980713,4,1000,1,1,4,0,3,1,5,2,0,250.0,test,4,H+
960.839033127,2,1000,4,1,4,0,3,1,5,2,0,250.0,test,2,H+
656.764984131,5,1000,5,0,4,0,3,1,5,2,0,250.0,test,3,H+
496.18601799,4,1000,1,1,4,0,3,1,5,2,0,250.0,test,4,H+
432.857036591,1,1000,2,1,4,0,3,1,5,2,0,250.0,test,1,H+
543.896913528,0,1000,0,1,4,0,3,1,5,2,0,250.0,test,0,H+
416.064023972,0,1000,0,1,4,0,3,1,5,2,0,250.0,test,0,H+
560.406923294,5,1000,5,1,4,0,3,1,5,2,0,250.0,test,5,H+
447.759866714,3,1000,3,1,4,0,3,1,5,2,0,250.0,test,3,H+
480.345964432,5,1000,5,1,4,0,3,1,5,2,0,250.0,test,5,H+
512.055873871,4,1000,1,1,4,0,3,1,5,2,0,250.0,test,4,H+
576.757907867,2,1000,4,1,4,0,3,1,5,2,0,250.0,test,2,H+
671.639919281,1,1000,2,1,4,0,3,1,5,2,0,250.0,test,1,H+
1296.74911499,3,1000,3,1,4,0,3,1,5,2,0,250.0,test,3,H+
528.703927994,0,1000,0,1,4,0,3,1,5,2,0,250.0,test,0,H+
624.714851379,0,1000,0,1,4,0,3,1,5,2,0,250.0,test,0,H+
752.790927887,5,1000,5,1,4,0,3,1,5,2,0,250.0,test,5,H+
352.765083313,3,1000,3,1,4,0,3,1,5,2,0,250.0,test,3,H+
464.685916901,0,1000,0,1,4,0,3,1,5,2,0,250.0,test,0,H+
608.751058578,3,1000,3,1,4,0,3,1,5,2,0,250.0,test,3,H+
608.773946762,4,1000,1,1,4,0,3,1,5,2,0,250.0,test,4,H+
624.760150909,2,1000,4,1,4,0,3,1,5,2,0,250.0,test,2,H+
607.859134674,5,1000,5,1,4,0,3,1,5,2,0,250.0,test,5,H+
496.785879135,0,1000,0,1,4,0,3,1,5,2,0,250.0,test,0,H+
960.816860199,5,1000,5,1,4,0,3,1,5,2,0,250.0,test,5,H+
624.752044678,3,1000,3,1,4,0,3,1,5,2,0,250.0,test,3,H+
608.74581337,5,1000,5,1,4,0,3,1,5,2,0,250.0,test,5,H+
608.102083206,4,1000,1,1,4,0,3,1,5,2,0,250.0,test,4,H+
640.76590538,4,1000,1,1,4,0,3,1,5,2,0,250.0,test,4,H+
607.948064804,3,1000,3,1,4,0,3,1,5,2,0,250.0,test,3,H+
592.741012573,3,1000,3,1,4,0,3,1,5,2,0,250.0,test,3,H+
607.696056366,1,1000,2,1,4,0,3,1,5,2,0,250.0,test,1,H+
672.427177429,2,1000,4,1,4,0,3,1,5,2,0,250.0,test,2,H+
5632.09605217,3,1000,3,1,4,0,3,1,5,2,0,250.0,test,3,H+
448.320865631,3,1000,3,1,4,0,3,1,5,2,0,250.0,test,3,H+
608.428955078,2,1000,4,1,4,0,3,1,5,2,0,250.0,test,2,H+
480.05604744,1,1000,2,1,4,0,3,1,5,2,0,250.0,test,1,H+
672.417879105,5,1000,5,0,4,0,3,1,5,2,0,250.0,test,3,H+
560.424089432,1,1000,2,1,4,0,3,1,5,2,0,250.0,test,1,H+
448.0509758,1,1000,2,1,4,0,3,1,5,2,0,250.0,test,1,H+
512.362957001,5,1000,5,1,4,0,3,1,5,2,0,250.0,test,5,H+
544.106960297,4,1000,1,0,4,0,3,1,5,2,0,250.0,test,1,H+
511.963129044,2,1000,4,1,4,0,3,1,5,2,0,250.0,test,2,H+
496.340036392,0,1000,0,1,4,0,3,1,5,2,0,250.0,test,0,H+
511.980056763,5,1000,5,1,4,0,3,1,5,2,0,250.0,test,5,H+
624.346017838,4,1000,1,1,4,0,3,1,5,2,0,250.0,test,4,H+
432.047128677,4,1000,1,1,4,0,3,1,5,2,0,250.0,test,4,H+
448.441982269,4,1000,1,1,4,0,3,1,5,2,0,250.0,test,4,H+
480.091094971,4,1000,1,1,4,0,3,1,5,2,0,250.0,test,4,H+
544.430017471,0,1000,0,1,4,0,3,1,5,2,0,250.0,test,0,H+
752.199172974,3,1000,3,1,4,0,3,1,5,2,0,250.0,test,3,H+
768.470048904,3,1000,3,1,4,0,3,1,5,2,0,250.0,test,3,H+
784.314870834,1,1000,2,1,4,0,3,1,5,2,0,250.0,test,1,H+
576.299905777,4,1000,1,1,4,0,3,1,5,2,0,250.0,test,4,H+
576.327085495,4,1000,1,1,4,0,3,1,5,2,0,250.0,test,4,H+
1056.46705627,2,1000,4,1,4,0,3,1,5,2,0,250.0,test,2,H+
704.402923584,2,1000,4,1,4,0,3,1,5,2,0,250.0,test,2,H+
592.331886292,4,1000,1,1,4,0,3,1,5,2,0,250.0,test,4,H+
1824.3329525,0,1000,0,0,4,0,3,1,5,2,0,250.0,test,2,H+
1024.32608604,0,1000,0,1,4,0,3,1,5,2,0,250.0,test,0,H+
624.396085739,3,1000,3,1,4,0,3,1,5,2,0,250.0,test,3,H+
976.549863815,5,1000,5,1,4,0,3,1,5,2,0,250.0,test,5,H+
784.410953522,5,1000,5,1,4,0,3,1,5,2,0,250.0,test,5,H+
544.367074966,3,1000,3,1,4,0,3,1,5,2,0,250.0,test,3,H+
400.413990021,3,1000,3,1,4,0,3,1,5,2,0,250.0,test,3,H+
352.3478508,3,1000,3,1,4,0,3,1,5,2,0,250.0,test,3,H+
784.347772598,5,1000,5,1,4,0,3,1,5,2,0,250.0,test,5,H+
656.301021576,2,1000,4,1,4,0,3,1,5,2,0,250.0,test,2,H+
608.373165131,5,1000,5,1,4,0,3,1,5,2,0,250.0,test,5,H+
672.371864319,1,1000,2,1,4,0,3,1,5,2,0,250.0,test,1,H+
560.422182083,1,1000,2,1,4,0,3,1,5,2,0,250.0,test,1,H+
464.401960373,2,1000,4,0,4,0,3,1,5,2,0,250.0,test,4,H+
816.406011581,3,1000,3,1,4,0,3,1,5,2,0,250.0,test,3,H+
784.375905991,1,1000,2,1,4,0,3,1,5,2,0,250.0,test,1,H+
671.97394371,3,1000,3,1,4,0,3,1,5,2,0,250.0,test,3,H+
544.35300827,3,1000,3,1,4,0,3,1,5,2,0,250.0,test,3,H+
608.401060104,4,1000,1,1,4,0,3,1,5,2,0,250.0,test,4,H+
624.422073364,1,1000,2,1,4,0,3,1,5,2,0,250.0,test,1,H+
559.91601944,0,1000,0,1,4,0,3,1,5,2,0,250.0,test,0,H+
688.414096832,3,1000,3,1,4,0,3,1,5,2,0,250.0,test,3,H+
656.392812729,1,1000,2,1,4,0,3,1,5,2,0,250.0,test,1,H+
640.386104584,5,1000,5,1,4,0,3,1,5,2,0,250.0,test,5,H+
544.909000397,0,1000,0,1,4,0,3,1,5,2,0,250.0,test,0,H+
496.453046799,0,1000,0,1,4,0,3,1,5,2,0,250.0,test,0,H+
608.387947083,3,1000,3,1,4,0,3,1,5,2,0,250.0,test,3,H+
1184.34906006,5,1000,5,1,4,0,3,1,5,2,0,250.0,test,5,H+
1264.3969059,4,1000,1,1,4,0,3,1,5,2,0,250.0,test,4,H+
768.41211319,5,1000,5,1,4,0,3,1,5,2,0,250.0,test,5,H+
736.479043961,5,1000,5,1,4,0,3,1,5,2,0,250.0,test,5,H+
1312.43515015,2,1000,4,1,4,0,3,1,5,2,0,250.0,test,2,H+
688.285827637,0,1000,0,1,4,0,3,1,5,2,0,250.0,test,0,H+
816.517829895,3,1000,3,1,4,0,3,1,5,2,0,250.0,test,3,H+
1536.3740921,4,1000,1,1,4,0,3,1,5,2,0,250.0,test,4,H+
1248.37899208,3,1000,3,1,4,0,3,1,5,2,0,250.0,test,3,H+
448.344945908,5,1000,5,1,4,0,3,1,5,2,0,250.0,test,5,H+
656.481981277,3,1000,3,0,4,0,3,1,5,2,0,250.0,test,5,H+
480.14497757,5,1000,5,1,4,0,3,1,5,2,0,250.0,test,5,H+
480.746984482,0,1000,0,1,4,0,3,1,5,2,0,250.0,test,0,H+
592.847108841,4,1000,1,1,4,0,3,1,5,2,0,250.0,test,4,H+
592.147827148,2,1000,4,1,4,0,3,1,5,2,0,250.0,test,2,H+
480.829000473,0,1000,0,1,4,0,3,1,5,2,0,250.0,test,0,H+
576.805114746,3,1000,3,1,4,0,3,1,5,2,0,250.0,test,3,H+
495.849847794,4,1000,1,1,4,0,3,1,5,2,0,250.0,test,4,H+
544.442892075,3,1000,3,1,4,0,3,1,5,2,0,250.0,test,3,H+
496.444225311,4,1000,1,1,4,0,3,1,5,2,0,250.0,test,4,H+
448.49395752,0,1000,0,1,4,0,3,1,5,2,0,250.0,test,0,H+
1088.47904205,3,1000,3,1,4,0,3,1,5,2,0,250.0,test,3,H+
528.544187546,1,1000,2,1,4,0,3,1,5,2,0,250.0,test,1,H+
576.446771622,5,1000,5,1,4,0,3,1,5,2,0,250.0,test,5,H+
560.527086258,5,1000,5,1,4,0,3,1,5,2,0,250.0,test,5,H+
432.464838028,5,1000,5,1,4,0,3,1,5,2,0,250.0,test,5,H+
512.406110764,0,1000,0,1,4,0,3,1,5,2,0,250.0,test,0,H+
447.818040848,4,1000,1,1,4,0,3,1,5,2,0,250.0,test,4,H+
592.8170681,5,1000,5,1,4,0,3,1,5,2,0,250.0,test,5,H+
