RT,correct_response,ms-prestimblank,curstim,correct,SRmap_1,SRmap_0,SRmap_3,SRmap_2,SRmap_5,SRmap_4,ms-precue,ntrials,type,response,condition
7070.71995735,3,1000,5,1,5,4,1,0,3,2,0,250.0,train,3,H-
2255.80000877,4,1000,0,1,5,4,1,0,3,2,0,250.0,train,4,H-
1311.81406975,1,1000,3,1,5,4,1,0,3,2,0,250.0,train,1,H-
1471.84300423,3,1000,5,1,5,4,1,0,3,2,0,250.0,train,3,H-
1407.84883499,2,1000,4,1,5,4,1,0,3,2,0,250.0,train,2,H-
1615.9389019,0,1000,2,1,5,4,1,0,3,2,0,250.0,train,0,H-
960.126161575,1,1000,3,1,5,4,1,0,3,2,0,250.0,train,1,H-
1728.07097435,4,1000,0,1,5,4,1,0,3,2,0,250.0,train,4,H-
864.100933075,3,1000,5,1,5,4,1,0,3,2,0,250.0,train,3,H-
976.248979568,1,1000,3,1,5,4,1,0,3,2,0,250.0,train,1,H-
831.909179688,2,1000,4,1,5,4,1,0,3,2,0,250.0,train,2,H-
688.055992126,2,1000,4,1,5,4,1,0,3,2,0,250.0,train,2,H-
1216.00294113,5,1000,1,1,5,4,1,0,3,2,0,250.0,train,5,H-
640.258073807,0,1000,2,1,5,4,1,0,3,2,0,250.0,train,0,H-
1216.62902832,3,1000,5,1,5,4,1,0,3,2,0,250.0,train,3,H-
800.21905899,1,1000,3,1,5,4,1,0,3,2,0,250.0,train,1,H-
1040.30489922,3,1000,5,1,5,4,1,0,3,2,0,250.0,train,3,H-
1152.07481384,5,1000,1,1,5,4,1,0,3,2,0,250.0,train,5,H-
1343.91689301,2,1000,4,1,5,4,1,0,3,2,0,250.0,train,2,H-
944.133996964,5,1000,1,1,5,4,1,0,3,2,0,250.0,train,5,H-
496.245145798,5,1000,1,1,5,4,1,0,3,2,0,250.0,train,5,H-
496.126890182,0,1000,2,1,5,4,1,0,3,2,0,250.0,train,0,H-
592.245101929,2,1000,4,0,5,4,1,0,3,2,0,250.0,train,1,H-
896.268129349,2,1000,4,1,5,4,1,0,3,2,0,250.0,train,2,H-
1311.96498871,5,1000,1,1,5,4,1,0,3,2,0,250.0,train,5,H-
1248.03996086,1,1000,3,1,5,4,1,0,3,2,0,250.0,train,1,H-
496.042013168,0,1000,2,1,5,4,1,0,3,2,0,250.0,train,0,H-
496.160030365,0,1000,2,1,5,4,1,0,3,2,0,250.0,train,0,H-
1008.20708275,4,1000,0,1,5,4,1,0,3,2,0,250.0,train,4,H-
656.10408783,0,1000,2,1,5,4,1,0,3,2,0,250.0,train,0,H-
943.911790848,5,1000,1,1,5,4,1,0,3,2,0,250.0,train,5,H-
992.136001587,3,1000,5,1,5,4,1,0,3,2,0,250.0,train,3,H-
863.821029663,5,1000,1,1,5,4,1,0,3,2,0,250.0,train,5,H-
735.809087753,1,1000,3,1,5,4,1,0,3,2,0,250.0,train,1,H-
512.631177902,0,1000,2,1,5,4,1,0,3,2,0,250.0,train,0,H-
912.564992905,3,1000,5,1,5,4,1,0,3,2,0,250.0,train,3,H-
688.185930252,3,1000,5,1,5,4,1,0,3,2,0,250.0,train,3,H-
512.351036072,5,1000,1,1,5,4,1,0,3,2,0,250.0,train,5,H-
832.087039948,2,1000,4,1,5,4,1,0,3,2,0,250.0,train,2,H-
832.262992859,5,1000,1,1,5,4,1,0,3,2,0,250.0,train,5,H-
480.188131332,5,1000,1,1,5,4,1,0,3,2,0,250.0,train,5,H-
784.065008163,3,1000,5,1,5,4,1,0,3,2,0,250.0,train,3,H-
576.020956039,3,1000,5,1,5,4,1,0,3,2,0,250.0,train,3,H-
640.102863312,2,1000,4,0,5,4,1,0,3,2,0,250.0,train,1,H-
1360.03017426,1,1000,3,1,5,4,1,0,3,2,0,250.0,train,1,H-
608.08801651,2,1000,4,1,5,4,1,0,3,2,0,250.0,train,2,H-
624.059915543,5,1000,1,1,5,4,1,0,3,2,0,250.0,train,5,H-
608.338832855,0,1000,2,1,5,4,1,0,3,2,0,250.0,train,0,H-
800.252914429,0,1000,2,1,5,4,1,0,3,2,0,250.0,train,0,H-
735.898017883,2,1000,4,1,5,4,1,0,3,2,0,250.0,train,2,H-
912.249088287,1,1000,3,1,5,4,1,0,3,2,0,250.0,train,1,H-
944.139957428,3,1000,5,1,5,4,1,0,3,2,0,250.0,train,3,H-
656.21304512,3,1000,5,1,5,4,1,0,3,2,0,250.0,train,3,H-
480.24892807,3,1000,5,1,5,4,1,0,3,2,0,250.0,train,3,H-
576.081037521,0,1000,2,1,5,4,1,0,3,2,0,250.0,train,0,H-
640.127182007,3,1000,5,1,5,4,1,0,3,2,0,250.0,train,3,H-
544.228076935,1,1000,3,0,5,4,1,0,3,2,0,250.0,train,3,H-
703.299999237,1,1000,3,1,5,4,1,0,3,2,0,250.0,train,1,H-
991.535902023,2,1000,4,1,5,4,1,0,3,2,0,250.0,train,2,H-
1935.49799919,3,1000,5,1,5,4,1,0,3,2,0,250.0,train,3,H-
1104.0430069,0,1000,2,1,5,4,1,0,3,2,0,250.0,train,0,H-
528.08713913,0,1000,2,1,5,4,1,0,3,2,0,250.0,train,0,H-
623.906135559,3,1000,5,1,5,4,1,0,3,2,0,250.0,train,3,H-
688.133001328,2,1000,4,1,5,4,1,0,3,2,0,250.0,train,2,H-
496.065139771,5,1000,1,1,5,4,1,0,3,2,0,250.0,train,5,H-
1183.94494057,4,1000,0,1,5,4,1,0,3,2,0,250.0,train,4,H-
560.166120529,3,1000,5,1,5,4,1,0,3,2,0,250.0,train,3,H-
1120.17798424,1,1000,3,1,5,4,1,0,3,2,0,250.0,train,1,H-
1072.10493088,4,1000,0,1,5,4,1,0,3,2,0,250.0,train,4,H-
560.105800629,0,1000,2,1,5,4,1,0,3,2,0,250.0,train,0,H-
1104.06112671,3,1000,5,0,5,4,1,0,3,2,0,250.0,train,1,H-
1072.16382027,3,1000,5,1,5,4,1,0,3,2,0,250.0,train,3,H-
496.138095856,0,1000,2,1,5,4,1,0,3,2,0,250.0,train,0,H-
448.117017746,0,1000,2,1,5,4,1,0,3,2,0,250.0,train,0,H-
576.065063477,2,1000,4,0,5,4,1,0,3,2,0,250.0,train,1,H-
560.116052628,0,1000,2,1,5,4,1,0,3,2,0,250.0,train,0,H-
832.165002823,3,1000,5,1,5,4,1,0,3,2,0,250.0,train,3,H-
544.116973877,0,1000,2,1,5,4,1,0,3,2,0,250.0,train,0,H-
479.968070984,5,1000,1,1,5,4,1,0,3,2,0,250.0,train,5,H-
832.088947296,1,1000,3,1,5,4,1,0,3,2,0,250.0,train,1,H-
912.275791168,3,1000,5,1,5,4,1,0,3,2,0,250.0,train,3,H-
352.226018906,0,1000,2,1,5,4,1,0,3,2,0,250.0,train,0,H-
1104.18510437,4,1000,0,1,5,4,1,0,3,2,0,250.0,train,4,H-
767.869949341,3,1000,5,1,5,4,1,0,3,2,0,250.0,train,3,H-
576.070070267,2,1000,4,1,5,4,1,0,3,2,0,250.0,train,2,H-
624.159812927,5,1000,1,1,5,4,1,0,3,2,0,250.0,train,5,H-
560.14084816,2,1000,4,1,5,4,1,0,3,2,0,250.0,train,2,H-
576.339006424,2,1000,4,1,5,4,1,0,3,2,0,250.0,train,2,H-
416.160821915,4,1000,0,1,5,4,1,0,3,2,0,250.0,train,4,H-
1168.0700779,3,1000,5,1,5,4,1,0,3,2,0,250.0,train,3,H-
575.927972794,0,1000,2,1,5,4,1,0,3,2,0,250.0,train,0,H-
464.135885239,0,1000,2,1,5,4,1,0,3,2,0,250.0,train,0,H-
528.254985809,5,1000,1,1,5,4,1,0,3,2,0,250.0,train,5,H-
1168.03717613,1,1000,3,1,5,4,1,0,3,2,0,250.0,train,1,H-
624.185800552,2,1000,4,1,5,4,1,0,3,2,0,250.0,train,2,H-
528.166055679,5,1000,1,1,5,4,1,0,3,2,0,250.0,train,5,H-
543.93196106,5,1000,1,1,5,4,1,0,3,2,0,250.0,train,5,H-
480.264902115,5,1000,1,1,5,4,1,0,3,2,0,250.0,train,5,H-
1760.01501083,4,1000,0,1,5,4,1,0,3,2,0,250.0,train,4,H-
639.752149582,2,1000,4,1,5,4,1,0,3,2,0,250.0,train,2,H-
512.172937393,0,1000,2,1,5,4,1,0,3,2,0,250.0,train,0,H-
528.67603302,5,1000,1,1,5,4,1,0,3,2,0,250.0,train,5,H-
880.540847778,1,1000,3,1,5,4,1,0,3,2,0,250.0,train,1,H-
864.298820496,3,1000,5,1,5,4,1,0,3,2,0,250.0,train,3,H-
1024.19900894,1,1000,3,1,5,4,1,0,3,2,0,250.0,train,1,H-
656.123161316,2,1000,4,1,5,4,1,0,3,2,0,250.0,train,2,H-
656.190872192,2,1000,4,1,5,4,1,0,3,2,0,250.0,train,2,H-
416.18013382,2,1000,4,1,5,4,1,0,3,2,0,250.0,train,2,H-
368.211984634,2,1000,4,1,5,4,1,0,3,2,0,250.0,train,2,H-
368.328094482,2,1000,4,1,5,4,1,0,3,2,0,250.0,train,2,H-
768.181085587,3,1000,5,1,5,4,1,0,3,2,0,250.0,train,3,H-
560.076951981,0,1000,2,1,5,4,1,0,3,2,0,250.0,train,0,H-
543.745994568,5,1000,1,1,5,4,1,0,3,2,0,250.0,train,5,H-
543.930053711,2,1000,4,1,5,4,1,0,3,2,0,250.0,train,2,H-
463.812828064,2,1000,4,1,5,4,1,0,3,2,0,250.0,train,2,H-
544.121026993,5,1000,1,1,5,4,1,0,3,2,0,250.0,train,5,H-
448.521137238,5,1000,1,1,5,4,1,0,3,2,0,250.0,train,5,H-
624.141931534,2,1000,4,1,5,4,1,0,3,2,0,250.0,train,2,H-
816.147089005,3,1000,5,1,5,4,1,0,3,2,0,250.0,train,3,H-
1040.26699066,5,1000,1,1,5,4,1,0,3,2,0,250.0,train,5,H-
608.18696022,0,1000,2,1,5,4,1,0,3,2,0,250.0,train,0,H-
592.055082321,2,1000,4,1,5,4,1,0,3,2,0,250.0,train,2,H-
912.242889404,4,1000,0,1,5,4,1,0,3,2,0,250.0,train,4,H-
1024.15990829,4,1000,0,1,5,4,1,0,3,2,0,250.0,train,4,H-
608.724832535,2,1000,4,1,5,4,1,0,3,2,0,250.0,train,2,H-
655.931949615,4,1000,0,1,5,4,1,0,3,2,0,250.0,train,4,H-
576.102972031,2,1000,4,1,5,4,1,0,3,2,0,250.0,train,2,H-
719.846963882,1,1000,3,1,5,4,1,0,3,2,0,250.0,train,1,H-
479.593038559,5,1000,1,1,5,4,1,0,3,2,0,250.0,train,5,H-
719.740867615,4,1000,0,0,5,4,1,0,3,2,0,250.0,train,2,H-
607.505083084,5,1000,1,1,5,4,1,0,3,2,0,250.0,train,5,H-
559.582948685,2,1000,4,1,5,4,1,0,3,2,0,250.0,train,2,H-
975.844860077,3,1000,5,1,5,4,1,0,3,2,0,250.0,train,3,H-
863.826990128,4,1000,0,1,5,4,1,0,3,2,0,250.0,train,4,H-
848.278045654,3,1000,5,0,5,4,1,0,3,2,0,250.0,train,1,H-
543.588876724,0,1000,2,1,5,4,1,0,3,2,0,250.0,train,0,H-
639.485120773,0,1000,2,1,5,4,1,0,3,2,0,250.0,train,0,H-
560.05692482,5,1000,1,1,5,4,1,0,3,2,0,250.0,train,5,H-
832.176923752,4,1000,0,0,5,4,1,0,3,2,0,250.0,train,2,H-
864.56990242,1,1000,3,1,5,4,1,0,3,2,0,250.0,train,1,H-
511.98720932,0,1000,2,1,5,4,1,0,3,2,0,250.0,train,0,H-
896.063804626,1,1000,3,1,5,4,1,0,3,2,0,250.0,train,1,H-
543.790102005,5,1000,1,1,5,4,1,0,3,2,0,250.0,train,5,H-
624.258041382,2,1000,4,1,5,4,1,0,3,2,0,250.0,train,2,H-
768.254041672,3,1000,5,1,5,4,1,0,3,2,0,250.0,train,3,H-
847.887992859,3,1000,5,1,5,4,1,0,3,2,0,250.0,train,3,H-
479.578971863,0,1000,2,1,5,4,1,0,3,2,0,250.0,train,0,H-
1423.74205589,4,1000,0,1,5,4,1,0,3,2,0,250.0,train,4,H-
496.531963348,0,1000,2,1,5,4,1,0,3,2,0,250.0,train,0,H-
911.778926849,3,1000,5,1,5,4,1,0,3,2,0,250.0,train,3,H-
1008.19396973,4,1000,0,1,5,4,1,0,3,2,0,250.0,train,4,H-
799.660205841,1,1000,3,1,5,4,1,0,3,2,0,250.0,train,1,H-
591.814041138,1,1000,3,1,5,4,1,0,3,2,0,250.0,train,1,H-
591.868877411,5,1000,1,1,5,4,1,0,3,2,0,250.0,train,5,H-
624.3019104,3,1000,5,0,5,4,1,0,3,2,0,250.0,train,1,H-
576.122999191,5,1000,1,1,5,4,1,0,3,2,0,250.0,train,5,H-
847.825050354,3,1000,5,1,5,4,1,0,3,2,0,250.0,train,3,H-
399.277925491,3,1000,5,1,5,4,1,0,3,2,0,250.0,train,3,H-
671.759843826,2,1000,4,1,5,4,1,0,3,2,0,250.0,train,2,H-
607.573032379,3,1000,5,1,5,4,1,0,3,2,0,250.0,train,3,H-
575.633049011,4,1000,0,0,5,4,1,0,3,2,0,250.0,train,5,H-
495.338916779,3,1000,5,1,5,4,1,0,3,2,0,250.0,train,3,H-
608.654022217,5,1000,1,1,5,4,1,0,3,2,0,250.0,train,5,H-
432.12389946,5,1000,1,1,5,4,1,0,3,2,0,250.0,train,5,H-
432.66415596,5,1000,1,1,5,4,1,0,3,2,0,250.0,train,5,H-
528.58710289,3,1000,5,1,5,4,1,0,3,2,0,250.0,train,3,H-
624.248027802,2,1000,4,0,5,4,1,0,3,2,0,250.0,train,1,H-
480.203866959,5,1000,1,1,5,4,1,0,3,2,0,250.0,train,5,H-
496.555089951,3,1000,5,1,5,4,1,0,3,2,0,250.0,train,3,H-
432.097196579,3,1000,5,1,5,4,1,0,3,2,0,250.0,train,3,H-
640.620946884,0,1000,2,1,5,4,1,0,3,2,0,250.0,train,0,H-
528.532981873,2,1000,4,1,5,4,1,0,3,2,0,250.0,train,2,H-
624.625921249,4,1000,0,1,5,4,1,0,3,2,0,250.0,train,4,H-
320.604801178,1,1000,3,0,5,4,1,0,3,2,0,250.0,train,3,H-
416.650056839,2,1000,4,0,5,4,1,0,3,2,0,250.0,train,4,H-
544.631004333,5,1000,1,1,5,4,1,0,3,2,0,250.0,train,5,H-
912.642002106,3,1000,5,1,5,4,1,0,3,2,0,250.0,train,3,H-
496.63901329,4,1000,0,1,5,4,1,0,3,2,0,250.0,train,4,H-
592.522859573,0,1000,2,1,5,4,1,0,3,2,0,250.0,train,0,H-
896.676063538,1,1000,3,1,5,4,1,0,3,2,0,250.0,train,1,H-
527.942895889,3,1000,5,0,5,4,1,0,3,2,0,250.0,train,1,H-
544.634819031,1,1000,3,1,5,4,1,0,3,2,0,250.0,train,1,H-
576.483011246,4,1000,0,1,5,4,1,0,3,2,0,250.0,train,4,H-
576.586961746,3,1000,5,1,5,4,1,0,3,2,0,250.0,train,3,H-
496.048927307,4,1000,0,1,5,4,1,0,3,2,0,250.0,train,4,H-
528.661966324,0,1000,2,1,5,4,1,0,3,2,0,250.0,train,0,H-
464.147806168,5,1000,1,1,5,4,1,0,3,2,0,250.0,train,5,H-
560.044050217,0,1000,2,1,5,4,1,0,3,2,0,250.0,train,0,H-
672.2240448,1,1000,3,1,5,4,1,0,3,2,0,250.0,train,1,H-
496.785163879,1,1000,3,1,5,4,1,0,3,2,0,250.0,train,1,H-
512.210845947,0,1000,2,1,5,4,1,0,3,2,0,250.0,train,0,H-
720.644950867,4,1000,0,0,5,4,1,0,3,2,0,250.0,train,3,H-
448.626995087,4,1000,0,1,5,4,1,0,3,2,0,250.0,train,4,H-
640.548944473,1,1000,3,1,5,4,1,0,3,2,0,250.0,train,1,H-
528.636932373,5,1000,1,1,5,4,1,0,3,2,0,250.0,train,5,H-
640.190839767,2,1000,4,1,5,4,1,0,3,2,0,250.0,train,2,H-
416.571855545,2,1000,4,0,5,4,1,0,3,2,0,250.0,train,3,H-
576.591968536,4,1000,0,1,5,4,1,0,3,2,0,250.0,train,4,H-
688.114881516,5,1000,1,1,5,4,1,0,3,2,0,250.0,train,5,H-
592.288970947,2,1000,4,1,5,4,1,0,3,2,0,250.0,train,2,H-
415.493965149,2,1000,4,1,5,4,1,0,3,2,0,250.0,train,2,H-
591.758966446,1,1000,3,1,5,4,1,0,3,2,0,250.0,train,1,H-
719.797849655,3,1000,5,1,5,4,1,0,3,2,0,250.0,train,3,H-
399.829864502,1,1000,3,1,5,4,1,0,3,2,0,250.0,train,1,H-
495.506048203,0,1000,2,1,5,4,1,0,3,2,0,250.0,train,0,H-
607.792139053,5,1000,1,1,5,4,1,0,3,2,0,250.0,train,5,H-
672.753810883,1,1000,3,1,5,4,1,0,3,2,0,250.0,train,1,H-
576.2591362,2,1000,4,1,5,4,1,0,3,2,0,250.0,train,2,H-
479.837179184,0,1000,2,1,5,4,1,0,3,2,0,250.0,train,0,H-
959.849119186,3,1000,5,1,5,4,1,0,3,2,0,250.0,train,3,H-
655.337095261,4,1000,0,1,5,4,1,0,3,2,0,250.0,train,4,H-
496.636867523,0,1000,2,1,5,4,1,0,3,2,0,250.0,train,0,H-
431.370973587,1,1000,3,1,5,4,1,0,3,2,0,250.0,train,1,H-
592.657089233,4,1000,0,1,5,4,1,0,3,2,0,250.0,train,4,H-
687.503099442,3,1000,5,1,5,4,1,0,3,2,0,250.0,train,3,H-
528.593063354,1,1000,3,1,5,4,1,0,3,2,0,250.0,train,1,H-
511.468887329,2,1000,4,0,5,4,1,0,3,2,0,250.0,train,1,H-
527.335166931,2,1000,4,1,5,4,1,0,3,2,0,250.0,train,2,H-
767.885923386,3,1000,5,0,5,4,1,0,3,2,0,250.0,train,1,H-
495.610952377,3,1000,5,1,5,4,1,0,3,2,0,250.0,train,3,H-
640.57803154,1,1000,3,1,5,4,1,0,3,2,0,250.0,train,1,H-
383.695840836,1,1000,3,1,5,4,1,0,3,2,0,250.0,train,1,H-
368.046998978,1,1000,3,1,5,4,1,0,3,2,0,250.0,train,1,H-
287.297964096,1,1000,3,1,5,4,1,0,3,2,0,250.0,train,1,H-
528.312206268,0,1000,2,1,5,4,1,0,3,2,0,250.0,train,0,H-
655.917882919,4,1000,0,1,5,4,1,0,3,2,0,250.0,train,4,H-
703.611135483,1,1000,3,1,5,4,1,0,3,2,0,250.0,train,1,H-
496.161937714,0,1000,2,1,5,4,1,0,3,2,0,250.0,train,0,H-
511.745929718,3,1000,5,0,5,4,1,0,3,2,0,250.0,train,1,H-
768.204212189,2,1000,4,1,5,4,1,0,3,2,0,250.0,train,2,H-
559.998989105,0,1000,2,1,5,4,1,0,3,2,0,250.0,train,0,H-
640.363931656,3,1000,5,1,5,4,1,0,3,2,0,250.0,train,3,H-
512.450933456,0,1000,2,1,5,4,1,0,3,2,0,250.0,train,0,H-
559.660196304,2,1000,4,1,5,4,1,0,3,2,0,250.0,train,2,H-
719.752073288,4,1000,0,1,5,4,1,0,3,2,0,250.0,train,4,H-
528.67102623,0,1000,2,1,5,4,1,0,3,2,0,250.0,train,0,H-
527.741909027,4,1000,0,1,5,4,1,0,3,2,0,250.0,train,4,H-
592.560052872,1,1000,3,0,5,4,1,0,3,2,0,250.0,train,2,H-
512.631893158,1,1000,3,1,5,4,1,0,3,2,0,250.0,train,1,H-
704.022169113,4,1000,0,1,5,4,1,0,3,2,0,250.0,train,4,H-
528.025150299,0,1000,2,1,5,4,1,0,3,2,0,250.0,train,0,H-
1168.50113869,3,1000,5,1,5,4,1,0,3,2,0,250.0,train,3,H-
736.59491539,2,1000,4,1,5,4,1,0,3,2,0,250.0,train,2,H-
544.630050659,5,1000,1,1,5,4,1,0,3,2,0,250.0,train,5,H-
575.978040695,2,1000,4,1,5,4,1,0,3,2,0,250.0,train,2,H-
559.734106064,5,1000,1,1,5,4,1,0,3,2,0,250.0,train,5,H-
528.251171112,0,1000,2,1,5,4,1,0,3,2,0,250.0,train,0,H-
575.937986374,0,1000,2,1,5,4,1,0,3,2,0,250.0,train,0,H-
704.730987549,1,1000,3,1,5,4,1,0,3,2,0,250.0,train,1,H-
655.616044998,4,1000,0,1,5,4,1,0,3,2,0,250.0,train,4,H-
559.560060501,3,1000,1,0,3,5,4,1,0,2,0,250.0,test,5,H-
687.386989594,1,1000,2,0,3,5,4,1,0,2,0,250.0,test,0,H-
1600.29006004,4,1000,3,1,3,5,4,1,0,2,0,250.0,test,4,H-
1199.48720932,3,1000,1,1,3,5,4,1,0,2,0,250.0,test,3,H-
911.828994751,4,1000,3,0,3,5,4,1,0,2,0,250.0,test,3,H-
1168.03312302,2,1000,4,1,3,5,4,1,0,2,0,250.0,test,2,H-
592.01002121,2,1000,4,1,3,5,4,1,0,2,0,250.0,test,2,H-
1008.59093666,5,1000,0,1,3,5,4,1,0,2,0,250.0,test,5,H-
911.329984665,5,1000,0,1,3,5,4,1,0,2,0,250.0,test,5,H-
943.85099411,3,1000,1,1,3,5,4,1,0,2,0,250.0,test,3,H-
783.850908279,4,1000,3,1,3,5,4,1,0,2,0,250.0,test,4,H-
624.032020569,2,1000,4,1,3,5,4,1,0,2,0,250.0,test,2,H-
719.876050949,4,1000,3,1,3,5,4,1,0,2,0,250.0,test,4,H-
1312.02602386,5,1000,0,1,3,5,4,1,0,2,0,250.0,test,5,H-
816.649913788,3,1000,1,1,3,5,4,1,0,2,0,250.0,test,3,H-
864.733934402,1,1000,2,1,3,5,4,1,0,2,0,250.0,test,1,H-
1039.52407837,0,1000,5,1,3,5,4,1,0,2,0,250.0,test,0,H-
3024.29103851,3,1000,1,1,3,5,4,1,0,2,0,250.0,test,3,H-
928.753852844,2,1000,4,1,3,5,4,1,0,2,0,250.0,test,2,H-
816.23005867,1,1000,2,1,3,5,4,1,0,2,0,250.0,test,1,H-
624.125003815,0,1000,5,0,3,5,4,1,0,2,0,250.0,test,4,H-
880.576133728,1,1000,2,1,3,5,4,1,0,2,0,250.0,test,1,H-
783.723115921,2,1000,4,1,3,5,4,1,0,2,0,250.0,test,2,H-
752.269029617,0,1000,5,1,3,5,4,1,0,2,0,250.0,test,0,H-
671.625852585,3,1000,1,0,3,5,4,1,0,2,0,250.0,test,4,H-
1231.85992241,0,1000,5,1,3,5,4,1,0,2,0,250.0,test,0,H-
1087.70513535,3,1000,1,1,3,5,4,1,0,2,0,250.0,test,3,H-
1071.67816162,0,1000,5,1,3,5,4,1,0,2,0,250.0,test,0,H-
1024.33514595,1,1000,2,1,3,5,4,1,0,2,0,250.0,test,1,H-
991.248130798,4,1000,3,1,3,5,4,1,0,2,0,250.0,test,4,H-
592.264175415,0,1000,5,1,3,5,4,1,0,2,0,250.0,test,0,H-
623.948097229,3,1000,1,1,3,5,4,1,0,2,0,250.0,test,3,H-
991.677045822,0,1000,5,1,3,5,4,1,0,2,0,250.0,test,0,H-
864.260911942,1,1000,2,1,3,5,4,1,0,2,0,250.0,test,1,H-
496.383190155,3,1000,1,1,3,5,4,1,0,2,0,250.0,test,3,H-
816.292047501,3,1000,1,1,3,5,4,1,0,2,0,250.0,test,3,H-
800.225973129,5,1000,0,1,3,5,4,1,0,2,0,250.0,test,5,H-
736.212015152,0,1000,5,1,3,5,4,1,0,2,0,250.0,test,0,H-
671.093940735,5,1000,0,0,3,5,4,1,0,2,0,250.0,test,4,H-
912.081956863,4,1000,3,0,3,5,4,1,0,2,0,250.0,test,0,H-
736.206769943,0,1000,5,1,3,5,4,1,0,2,0,250.0,test,0,H-
735.991001129,4,1000,3,1,3,5,4,1,0,2,0,250.0,test,4,H-
1231.1360836,1,1000,2,1,3,5,4,1,0,2,0,250.0,test,1,H-
783.584117889,0,1000,5,1,3,5,4,1,0,2,0,250.0,test,0,H-
671.919107437,0,1000,5,1,3,5,4,1,0,2,0,250.0,test,0,H-
640.171051025,0,1000,5,1,3,5,4,1,0,2,0,250.0,test,0,H-
336.180925369,0,1000,5,0,3,5,4,1,0,2,0,250.0,test,5,H-
1056.57482147,2,1000,4,1,3,5,4,1,0,2,0,250.0,test,2,H-
927.973985672,1,1000,2,1,3,5,4,1,0,2,0,250.0,test,1,H-
623.898983002,2,1000,4,1,3,5,4,1,0,2,0,250.0,test,2,H-
848.302125931,5,1000,0,1,3,5,4,1,0,2,0,250.0,test,5,H-
623.743057251,3,1000,1,1,3,5,4,1,0,2,0,250.0,test,3,H-
415.781021118,4,1000,3,1,3,5,4,1,0,2,0,250.0,test,4,H-
735.743045807,1,1000,2,1,3,5,4,1,0,2,0,250.0,test,1,H-
495.898962021,1,1000,2,1,3,5,4,1,0,2,0,250.0,test,1,H-
752.202987671,2,1000,4,1,3,5,4,1,0,2,0,250.0,test,2,H-
736.124992371,4,1000,3,0,3,5,4,1,0,2,0,250.0,test,0,H-
1071.42400742,4,1000,3,1,3,5,4,1,0,2,0,250.0,test,4,H-
896.292924881,0,1000,5,1,3,5,4,1,0,2,0,250.0,test,0,H-
1392.0750618,4,1000,3,1,3,5,4,1,0,2,0,250.0,test,4,H-
1039.5359993,2,1000,4,1,3,5,4,1,0,2,0,250.0,test,2,H-
1024.01208878,3,1000,1,0,3,5,4,1,0,2,0,250.0,test,4,H-
640.21396637,2,1000,4,1,3,5,4,1,0,2,0,250.0,test,2,H-
704.550027847,2,1000,4,1,3,5,4,1,0,2,0,250.0,test,2,H-
480.005025864,3,1000,1,1,3,5,4,1,0,2,0,250.0,test,3,H-
1071.81286812,4,1000,3,1,3,5,4,1,0,2,0,250.0,test,4,H-
592.076063156,3,1000,1,1,3,5,4,1,0,2,0,250.0,test,3,H-
1232.00893402,0,1000,5,1,3,5,4,1,0,2,0,250.0,test,0,H-
816.869020462,5,1000,0,1,3,5,4,1,0,2,0,250.0,test,5,H-
687.702894211,1,1000,2,1,3,5,4,1,0,2,0,250.0,test,1,H-
944.618940353,4,1000,3,1,3,5,4,1,0,2,0,250.0,test,4,H-
912.016153336,3,1000,1,1,3,5,4,1,0,2,0,250.0,test,3,H-
656.233072281,1,1000,2,1,3,5,4,1,0,2,0,250.0,test,1,H-
640.299797058,2,1000,4,1,3,5,4,1,0,2,0,250.0,test,2,H-
943.500041962,5,1000,0,1,3,5,4,1,0,2,0,250.0,test,5,H-
815.613985062,4,1000,3,1,3,5,4,1,0,2,0,250.0,test,4,H-
655.651092529,2,1000,4,1,3,5,4,1,0,2,0,250.0,test,2,H-
1328.57990265,0,1000,5,1,3,5,4,1,0,2,0,250.0,test,0,H-
720.566034317,1,1000,2,1,3,5,4,1,0,2,0,250.0,test,1,H-
1008.22687149,0,1000,5,1,3,5,4,1,0,2,0,250.0,test,0,H-
1216.45498276,3,1000,1,1,3,5,4,1,0,2,0,250.0,test,3,H-
1136.56997681,5,1000,0,1,3,5,4,1,0,2,0,250.0,test,5,H-
783.752918243,4,1000,3,1,3,5,4,1,0,2,0,250.0,test,4,H-
560.02497673,4,1000,3,1,3,5,4,1,0,2,0,250.0,test,4,H-
1471.64201736,2,1000,4,1,3,5,4,1,0,2,0,250.0,test,2,H-
1008.59117508,1,1000,2,1,3,5,4,1,0,2,0,250.0,test,1,H-
1440.39797783,0,1000,5,1,3,5,4,1,0,2,0,250.0,test,0,H-
640.748977661,3,1000,1,1,3,5,4,1,0,2,0,250.0,test,3,H-
1232.03516006,1,1000,2,1,3,5,4,1,0,2,0,250.0,test,1,H-
831.72416687,1,1000,2,1,3,5,4,1,0,2,0,250.0,test,1,H-
2255.04207611,3,1000,1,1,3,5,4,1,0,2,0,250.0,test,3,H-
944.264173508,0,1000,5,1,3,5,4,1,0,2,0,250.0,test,0,H-
592.092037201,3,1000,1,1,3,5,4,1,0,2,0,250.0,test,3,H-
816.188097,0,1000,5,1,3,5,4,1,0,2,0,250.0,test,0,H-
928.020000458,4,1000,3,1,3,5,4,1,0,2,0,250.0,test,4,H-
1023.97799492,0,1000,5,1,3,5,4,1,0,2,0,250.0,test,0,H-
1359.97891426,4,1000,3,0,3,5,4,1,0,2,0,250.0,test,0,H-
784.083127975,3,1000,1,1,3,5,4,1,0,2,0,250.0,test,3,H-
575.804948807,3,1000,1,1,3,5,4,1,0,2,0,250.0,test,3,H-
671.866178513,5,1000,0,1,3,5,4,1,0,2,0,250.0,test,5,H-
704.576015472,2,1000,4,1,3,5,4,1,0,2,0,250.0,test,2,H-
1119.97389793,0,1000,5,1,3,5,4,1,0,2,0,250.0,test,0,H-
944.095134735,1,1000,2,1,3,5,4,1,0,2,0,250.0,test,1,H-
1935.61697006,2,1000,4,0,3,5,4,1,0,2,0,250.0,test,1,H-
1888.07082176,3,1000,1,1,3,5,4,1,0,2,0,250.0,test,3,H-
2079.5609951,0,1000,5,1,3,5,4,1,0,2,0,250.0,test,0,H-
479.861974716,0,1000,5,1,3,5,4,1,0,2,0,250.0,test,0,H-
560.679197311,3,1000,1,1,3,5,4,1,0,2,0,250.0,test,3,H-
752.230167389,2,1000,4,1,3,5,4,1,0,2,0,250.0,test,2,H-
592.55695343,3,1000,1,1,3,5,4,1,0,2,0,250.0,test,3,H-
1376.49798393,0,1000,5,1,3,5,4,1,0,2,0,250.0,test,0,H-
6847.06902504,4,1000,3,1,3,5,4,1,0,2,0,250.0,test,4,H-
815.788984299,2,1000,4,1,3,5,4,1,0,2,0,250.0,test,2,H-
496.098995209,3,1000,1,1,3,5,4,1,0,2,0,250.0,test,3,H-
848.148107529,1,1000,2,1,3,5,4,1,0,2,0,250.0,test,1,H-
591.655015945,4,1000,3,1,3,5,4,1,0,2,0,250.0,test,4,H-
576.647043228,4,1000,3,0,3,5,4,1,0,2,0,250.0,test,1,H-
943.551063538,1,1000,2,1,3,5,4,1,0,2,0,250.0,test,1,H-
719.527959824,4,1000,3,1,3,5,4,1,0,2,0,250.0,test,4,H-
480.312108994,3,1000,1,1,3,5,4,1,0,2,0,250.0,test,3,H-
576.00903511,2,1000,4,1,3,5,4,1,0,2,0,250.0,test,2,H-
640.097141266,0,1000,5,1,3,5,4,1,0,2,0,250.0,test,0,H-
495.871067047,0,1000,5,1,3,5,4,1,0,2,0,250.0,test,0,H-
575.932979584,3,1000,1,1,3,5,4,1,0,2,0,250.0,test,3,H-
592.570066452,2,1000,4,1,3,5,4,1,0,2,0,250.0,test,2,H-
608.019113541,0,1000,5,1,3,5,4,1,0,2,0,250.0,test,0,H-
351.752996445,0,1000,5,1,3,5,4,1,0,2,0,250.0,test,0,H-
496.114969254,3,1000,1,1,3,5,4,1,0,2,0,250.0,test,3,H-
672.673940659,4,1000,3,1,3,5,4,1,0,2,0,250.0,test,4,H-
511.866092682,3,1000,1,1,3,5,4,1,0,2,0,250.0,test,3,H-
671.966075897,1,1000,2,1,3,5,4,1,0,2,0,250.0,test,1,H-
512.141942978,4,1000,3,0,3,5,4,1,0,2,0,250.0,test,0,H-
640.188932419,3,1000,1,1,3,5,4,1,0,2,0,250.0,test,3,H-
640.248060226,5,1000,0,0,3,5,4,1,0,2,0,250.0,test,4,H-
848.159074783,4,1000,3,1,3,5,4,1,0,2,0,250.0,test,4,H-
640.197038651,4,1000,3,1,3,5,4,1,0,2,0,250.0,test,4,H-
1119.99201775,0,1000,5,1,3,5,4,1,0,2,0,250.0,test,0,H-
656.002998352,3,1000,1,1,3,5,4,1,0,2,0,250.0,test,3,H-
592.005968094,3,1000,1,1,3,5,4,1,0,2,0,250.0,test,3,H-
640.289068222,3,1000,1,1,3,5,4,1,0,2,0,250.0,test,3,H-
480.192899704,3,1000,1,1,3,5,4,1,0,2,0,250.0,test,3,H-
751.869916916,5,1000,0,1,3,5,4,1,0,2,0,250.0,test,5,H-
768.238067627,1,1000,2,1,3,5,4,1,0,2,0,250.0,test,1,H-
480.288028717,3,1000,1,1,3,5,4,1,0,2,0,250.0,test,3,H-
576.239109039,3,1000,1,1,3,5,4,1,0,2,0,250.0,test,3,H-
544.344186783,3,1000,1,1,3,5,4,1,0,2,0,250.0,test,3,H-
736.265897751,5,1000,0,1,3,5,4,1,0,2,0,250.0,test,5,H-
640.249013901,3,1000,1,1,3,5,4,1,0,2,0,250.0,test,3,H-
928.144216537,1,1000,2,1,3,5,4,1,0,2,0,250.0,test,1,H-
943.933010101,2,1000,4,1,3,5,4,1,0,2,0,250.0,test,2,H-
672.317028046,3,1000,1,1,3,5,4,1,0,2,0,250.0,test,3,H-
1455.86800575,0,1000,5,1,3,5,4,1,0,2,0,250.0,test,0,H-
544.354915619,3,1000,1,1,3,5,4,1,0,2,0,250.0,test,3,H-
480.28588295,3,1000,1,1,3,5,4,1,0,2,0,250.0,test,3,H-
480.202913284,5,1000,0,0,3,5,4,1,0,2,0,250.0,test,2,H-
544.117927551,2,1000,4,1,3,5,4,1,0,2,0,250.0,test,2,H-
815.932035446,0,1000,5,1,3,5,4,1,0,2,0,250.0,test,0,H-
992.660045624,5,1000,0,1,3,5,4,1,0,2,0,250.0,test,5,H-
608.17694664,2,1000,4,1,3,5,4,1,0,2,0,250.0,test,2,H-
735.818147659,3,1000,1,1,3,5,4,1,0,2,0,250.0,test,3,H-
575.616836548,2,1000,4,1,3,5,4,1,0,2,0,250.0,test,2,H-
1328.46713066,4,1000,3,1,3,5,4,1,0,2,0,250.0,test,4,H-
640.559911728,3,1000,1,0,3,5,4,1,0,2,0,250.0,test,2,H-
751.615047455,1,1000,2,1,3,5,4,1,0,2,0,250.0,test,1,H-
864.085197449,1,1000,2,1,3,5,4,1,0,2,0,250.0,test,1,H-
608.198881149,3,1000,1,1,3,5,4,1,0,2,0,250.0,test,3,H-
752.242803574,4,1000,3,1,3,5,4,1,0,2,0,250.0,test,4,H-
608.029127121,4,1000,3,1,3,5,4,1,0,2,0,250.0,test,4,H-
688.29703331,5,1000,0,1,3,5,4,1,0,2,0,250.0,test,5,H-
736.294031143,0,1000,5,1,3,5,4,1,0,2,0,250.0,test,0,H-
512.28094101,1,1000,2,1,3,5,4,1,0,2,0,250.0,test,1,H-
480.28421402,1,1000,2,1,3,5,4,1,0,2,0,250.0,test,1,H-
400.256156921,1,1000,2,1,3,5,4,1,0,2,0,250.0,test,1,H-
448.224067688,1,1000,2,1,3,5,4,1,0,2,0,250.0,test,1,H-
576.349020004,2,1000,4,0,3,5,4,1,0,2,0,250.0,test,3,H-
975.893974304,5,1000,0,1,3,5,4,1,0,2,0,250.0,test,5,H-
1423.62213135,5,1000,0,1,3,5,4,1,0,2,0,250.0,test,5,H-
639.390945435,3,1000,1,1,3,5,4,1,0,2,0,250.0,test,3,H-
1151.46207809,5,1000,0,1,3,5,4,1,0,2,0,250.0,test,5,H-
847.713947296,3,1000,1,1,3,5,4,1,0,2,0,250.0,test,3,H-
1055.7641983,5,1000,0,1,3,5,4,1,0,2,0,250.0,test,5,H-
960.15381813,3,1000,1,1,3,5,4,1,0,2,0,250.0,test,3,H-
1120.09811401,1,1000,2,1,3,5,4,1,0,2,0,250.0,test,1,H-
1152.07719803,1,1000,2,1,3,5,4,1,0,2,0,250.0,test,1,H-
704.144954681,5,1000,0,1,3,5,4,1,0,2,0,250.0,test,5,H-
688.73500824,3,1000,1,1,3,5,4,1,0,2,0,250.0,test,3,H-
848.332881927,4,1000,3,1,3,5,4,1,0,2,0,250.0,test,4,H-
832.12518692,1,1000,2,1,3,5,4,1,0,2,0,250.0,test,1,H-
688.639879227,3,1000,1,1,3,5,4,1,0,2,0,250.0,test,3,H-
1552.02293396,0,1000,5,1,3,5,4,1,0,2,0,250.0,test,0,H-
1215.95287323,3,1000,1,1,3,5,4,1,0,2,0,250.0,test,3,H-
688.704013824,5,1000,0,1,3,5,4,1,0,2,0,250.0,test,5,H-
1024.56402779,2,1000,4,1,3,5,4,1,0,2,0,250.0,test,2,H-
607.778072357,1,1000,2,1,3,5,4,1,0,2,0,250.0,test,1,H-
703.61995697,3,1000,1,1,3,5,4,1,0,2,0,250.0,test,3,H-
608.016014099,2,1000,4,1,3,5,4,1,0,2,0,250.0,test,2,H-
560.642004013,2,1000,4,1,3,5,4,1,0,2,0,250.0,test,2,H-
640.517950058,1,1000,2,1,3,5,4,1,0,2,0,250.0,test,1,H-
656.620979309,4,1000,3,1,3,5,4,1,0,2,0,250.0,test,4,H-
591.92609787,2,1000,4,1,3,5,4,1,0,2,0,250.0,test,2,H-
623.847961426,4,1000,3,1,3,5,4,1,0,2,0,250.0,test,4,H-
432.685852051,1,1000,2,1,3,5,4,1,0,2,0,250.0,test,1,H-
544.642925262,4,1000,3,0,3,5,4,1,0,2,0,250.0,test,3,H-
608.685970306,0,1000,5,0,3,5,4,1,0,2,0,250.0,test,4,H-
495.391845703,4,1000,3,1,3,5,4,1,0,2,0,250.0,test,4,H-
608.234167099,1,1000,2,1,3,5,4,1,0,2,0,250.0,test,1,H-
720.004081726,3,1000,1,1,3,5,4,1,0,2,0,250.0,test,3,H-
528.276920319,1,1000,2,1,3,5,4,1,0,2,0,250.0,test,1,H-
352.0860672,1,1000,2,1,3,5,4,1,0,2,0,250.0,test,1,H-
287.783145905,5,1000,0,0,3,5,4,1,0,2,0,250.0,test,1,H-
528.620958328,3,1000,1,1,3,5,4,1,0,2,0,250.0,test,3,H-
591.935157776,2,1000,4,1,3,5,4,1,0,2,0,250.0,test,2,H-
464.32185173,3,1000,1,1,3,5,4,1,0,2,0,250.0,test,3,H-
624.02510643,2,1000,4,1,3,5,4,1,0,2,0,250.0,test,2,H-
1648.16498756,3,1000,1,1,3,5,4,1,0,2,0,250.0,test,3,H-
448.10795784,3,1000,1,1,3,5,4,1,0,2,0,250.0,test,3,H-
560.256004333,2,1000,4,1,3,5,4,1,0,2,0,250.0,test,2,H-
480.200052261,3,1000,1,1,3,5,4,1,0,2,0,250.0,test,3,H-
864.328861237,5,1000,0,1,3,5,4,1,0,2,0,250.0,test,5,H-
1232.16104507,4,1000,3,1,3,5,4,1,0,2,0,250.0,test,4,H-
736.207962036,5,1000,0,1,3,5,4,1,0,2,0,250.0,test,5,H-
736.234903336,0,1000,5,1,3,5,4,1,0,2,0,250.0,test,0,H-
1072.13711739,5,1000,0,1,3,5,4,1,0,2,0,250.0,test,5,H-
559.860229492,5,1000,0,1,3,5,4,1,0,2,0,250.0,test,5,H-
480.024814606,5,1000,0,1,3,5,4,1,0,2,0,250.0,test,5,H-
1055.78112602,3,1000,1,1,3,5,4,1,0,2,0,250.0,test,3,H-
560.133934021,2,1000,4,1,3,5,4,1,0,2,0,250.0,test,2,H-
576.292991638,0,1000,5,1,3,5,4,1,0,2,0,250.0,test,0,H-
560.325145721,0,1000,5,1,3,5,4,1,0,2,0,250.0,test,0,H-
608.300209045,1,1000,2,1,3,5,4,1,0,2,0,250.0,test,1,H-
464.03503418,1,1000,2,1,3,5,4,1,0,2,0,250.0,test,1,H-
1248.24905396,0,1000,5,1,3,5,4,1,0,2,0,250.0,test,0,H-
575.951814651,5,1000,0,1,3,5,4,1,0,2,0,250.0,test,5,H-
576.111793518,1,1000,2,1,3,5,4,1,0,2,0,250.0,test,1,H-
560.057878494,5,1000,0,1,3,5,4,1,0,2,0,250.0,test,5,H-
496.272087097,1,1000,2,1,3,5,4,1,0,2,0,250.0,test,1,H-
928.286075592,0,1000,5,1,3,5,4,1,0,2,0,250.0,test,0,H-
703.867912292,5,1000,0,1,3,5,4,1,0,2,0,250.0,test,5,H-
496.063232422,3,1000,1,1,3,5,4,1,0,2,0,250.0,test,3,H-
496.046066284,1,1000,2,1,3,5,4,1,0,2,0,250.0,test,1,H-
480.170965195,5,1000,0,1,3,5,4,1,0,2,0,250.0,test,5,H-
464.689016342,3,1000,1,1,3,5,4,1,0,2,0,250.0,test,3,H-
528.612136841,2,1000,4,1,3,5,4,1,0,2,0,250.0,test,2,H-
591.886043549,0,1000,5,1,3,5,4,1,0,2,0,250.0,test,0,H-
432.25812912,0,1000,5,1,3,5,4,1,0,2,0,250.0,test,0,H-
544.126987457,5,1000,0,1,3,5,4,1,0,2,0,250.0,test,5,H-
528.230905533,1,1000,2,1,3,5,4,1,0,2,0,250.0,test,1,H-
576.305866241,2,1000,4,1,3,5,4,1,0,2,0,250.0,test,2,H-
1072.19815254,4,1000,3,0,3,5,4,1,0,2,0,250.0,test,5,H-
672.107934952,1,1000,2,1,3,5,4,1,0,2,0,250.0,test,1,H-
