RT,correct_response,ms-prestimblank,curstim,correct,SRmap_1,SRmap_0,SRmap_3,SRmap_2,SRmap_5,SRmap_4,ms-precue,ntrials,type,response,condition
2448.58813286,2,1000,1,1,2,3,0,1,4,5,0,250.0,train,2,M
576.297998428,0,1000,3,1,2,3,0,1,4,5,0,250.0,train,0,M
624.299049377,3,1000,0,1,2,3,0,1,4,5,0,250.0,train,3,M
592.948198318,1,1000,2,1,2,3,0,1,4,5,0,250.0,train,1,M
528.332948685,3,1000,0,1,2,3,0,1,4,5,0,250.0,train,3,M
464.417934418,3,1000,0,1,2,3,0,1,4,5,0,250.0,train,3,M
384.232997894,4,1000,5,1,2,3,0,1,4,5,0,250.0,train,4,M
400.313854218,4,1000,5,1,2,3,0,1,4,5,0,250.0,train,4,M
513.048171997,0,1000,3,1,2,3,0,1,4,5,0,250.0,train,0,M
464.39409256,3,1000,0,1,2,3,0,1,4,5,0,250.0,train,3,M
448.322057724,0,1000,3,1,2,3,0,1,4,5,0,250.0,train,0,M
432.281970978,2,1000,1,1,2,3,0,1,4,5,0,250.0,train,2,M
400.459051132,5,1000,4,0,2,3,0,1,4,5,0,250.0,train,4,M
320.418119431,5,1000,4,1,2,3,0,1,4,5,0,250.0,train,5,M
496.432065964,0,1000,3,1,2,3,0,1,4,5,0,250.0,train,0,M
432.461977005,0,1000,3,1,2,3,0,1,4,5,0,250.0,train,0,M
528.455018997,5,1000,4,1,2,3,0,1,4,5,0,250.0,train,5,M
464.380979538,3,1000,0,0,2,3,0,1,4,5,0,250.0,train,2,M
480.478048325,4,1000,5,1,2,3,0,1,4,5,0,250.0,train,4,M
385.067939758,5,1000,4,1,2,3,0,1,4,5,0,250.0,train,5,M
400.42591095,0,1000,3,1,2,3,0,1,4,5,0,250.0,train,0,M
432.465076447,1,1000,2,0,2,3,0,1,4,5,0,250.0,train,0,M
464.848041534,1,1000,2,1,2,3,0,1,4,5,0,250.0,train,1,M
496.461868286,0,1000,3,1,2,3,0,1,4,5,0,250.0,train,0,M
464.48802948,5,1000,4,1,2,3,0,1,4,5,0,250.0,train,5,M
496.530056,3,1000,0,1,2,3,0,1,4,5,0,250.0,train,3,M
736.500024796,1,1000,2,1,2,3,0,1,4,5,0,250.0,train,1,M
416.444063187,3,1000,0,0,2,3,0,1,4,5,0,250.0,train,2,M
384.881019592,3,1000,0,1,2,3,0,1,4,5,0,250.0,train,3,M
480.41510582,0,1000,3,1,2,3,0,1,4,5,0,250.0,train,0,M
448.335170746,0,1000,3,1,2,3,0,1,4,5,0,250.0,train,0,M
400.817871094,2,1000,1,0,2,3,0,1,4,5,0,250.0,train,1,M
624.442100525,4,1000,5,0,2,3,0,1,4,5,0,250.0,train,5,M
464.389801025,4,1000,5,1,2,3,0,1,4,5,0,250.0,train,4,M
448.379993439,3,1000,0,1,2,3,0,1,4,5,0,250.0,train,3,M
400.395870209,3,1000,0,1,2,3,0,1,4,5,0,250.0,train,3,M
528.409004211,1,1000,2,1,2,3,0,1,4,5,0,250.0,train,1,M
480.355978012,0,1000,3,1,2,3,0,1,4,5,0,250.0,train,0,M
352.895021439,5,1000,4,1,2,3,0,1,4,5,0,250.0,train,5,M
608.488798141,0,1000,3,1,2,3,0,1,4,5,0,250.0,train,0,M
448.291063309,5,1000,4,1,2,3,0,1,4,5,0,250.0,train,5,M
416.463136673,5,1000,4,0,2,3,0,1,4,5,0,250.0,train,4,M
784.53207016,3,1000,0,0,2,3,0,1,4,5,0,250.0,train,2,M
640.410900116,2,1000,1,1,2,3,0,1,4,5,0,250.0,train,2,M
496.4158535,5,1000,4,1,2,3,0,1,4,5,0,250.0,train,5,M
480.444908142,3,1000,0,1,2,3,0,1,4,5,0,250.0,train,3,M
592.573881149,1,1000,2,1,2,3,0,1,4,5,0,250.0,train,1,M
640.828132629,4,1000,5,0,2,3,0,1,4,5,0,250.0,train,5,M
512.460947037,3,1000,0,1,2,3,0,1,4,5,0,250.0,train,3,M
816.518068314,3,1000,0,1,2,3,0,1,4,5,0,250.0,train,3,M
608.466148376,1,1000,2,1,2,3,0,1,4,5,0,250.0,train,1,M
592.457056046,5,1000,4,1,2,3,0,1,4,5,0,250.0,train,5,M
656.500101089,1,1000,2,1,2,3,0,1,4,5,0,250.0,train,1,M
640.913963318,4,1000,5,1,2,3,0,1,4,5,0,250.0,train,4,M
560.572147369,2,1000,1,1,2,3,0,1,4,5,0,250.0,train,2,M
513.007879257,5,1000,4,1,2,3,0,1,4,5,0,250.0,train,5,M
432.56187439,0,1000,3,1,2,3,0,1,4,5,0,250.0,train,0,M
352.864980698,5,1000,4,1,2,3,0,1,4,5,0,250.0,train,5,M
1120.68891525,3,1000,0,1,2,3,0,1,4,5,0,250.0,train,3,M
544.489145279,1,1000,2,1,2,3,0,1,4,5,0,250.0,train,1,M
577.142000198,3,1000,0,1,2,3,0,1,4,5,0,250.0,train,3,M
816.884994507,2,1000,1,0,2,3,0,1,4,5,0,250.0,train,1,M
384.428977966,2,1000,1,1,2,3,0,1,4,5,0,250.0,train,2,M
592.412948608,3,1000,0,1,2,3,0,1,4,5,0,250.0,train,3,M
448.358058929,0,1000,3,1,2,3,0,1,4,5,0,250.0,train,0,M
688.300132751,2,1000,1,1,2,3,0,1,4,5,0,250.0,train,2,M
352.535009384,4,1000,5,1,2,3,0,1,4,5,0,250.0,train,4,M
384.335041046,0,1000,3,1,2,3,0,1,4,5,0,250.0,train,0,M
496.487140656,5,1000,4,1,2,3,0,1,4,5,0,250.0,train,5,M
480.465173721,5,1000,4,1,2,3,0,1,4,5,0,250.0,train,5,M
528.382062912,3,1000,0,1,2,3,0,1,4,5,0,250.0,train,3,M
544.559001923,2,1000,1,1,2,3,0,1,4,5,0,250.0,train,2,M
688.406944275,3,1000,0,1,2,3,0,1,4,5,0,250.0,train,3,M
576.962947845,4,1000,5,1,2,3,0,1,4,5,0,250.0,train,4,M
560.430049896,5,1000,4,1,2,3,0,1,4,5,0,250.0,train,5,M
496.379852295,1,1000,2,1,2,3,0,1,4,5,0,250.0,train,1,M
432.368040085,1,1000,2,1,2,3,0,1,4,5,0,250.0,train,1,M
464.468002319,0,1000,3,1,2,3,0,1,4,5,0,250.0,train,0,M
640.562057495,3,1000,0,1,2,3,0,1,4,5,0,250.0,train,3,M
496.537923813,0,1000,3,1,2,3,0,1,4,5,0,250.0,train,0,M
368.058919907,4,1000,5,0,2,3,0,1,4,5,0,250.0,train,3,M
592.424869537,1,1000,2,1,2,3,0,1,4,5,0,250.0,train,1,M
368.554830551,4,1000,5,1,2,3,0,1,4,5,0,250.0,train,4,M
480.529069901,5,1000,4,1,2,3,0,1,4,5,0,250.0,train,5,M
464.466094971,3,1000,0,1,2,3,0,1,4,5,0,250.0,train,3,M
464.455127716,2,1000,1,0,2,3,0,1,4,5,0,250.0,train,1,M
560.512065887,1,1000,2,1,2,3,0,1,4,5,0,250.0,train,1,M
688.476085663,5,1000,4,1,2,3,0,1,4,5,0,250.0,train,5,M
432.407855988,1,1000,2,1,2,3,0,1,4,5,0,250.0,train,1,M
608.589172363,4,1000,5,1,2,3,0,1,4,5,0,250.0,train,4,M
448.522806168,4,1000,5,1,2,3,0,1,4,5,0,250.0,train,4,M
336.418151855,5,1000,4,1,2,3,0,1,4,5,0,250.0,train,5,M
432.429075241,3,1000,0,1,2,3,0,1,4,5,0,250.0,train,3,M
528.534173965,3,1000,0,1,2,3,0,1,4,5,0,250.0,train,3,M
336.908817291,5,1000,4,1,2,3,0,1,4,5,0,250.0,train,5,M
448.482990265,3,1000,0,1,2,3,0,1,4,5,0,250.0,train,3,M
496.40417099,0,1000,3,1,2,3,0,1,4,5,0,250.0,train,0,M
496.58703804,3,1000,0,1,2,3,0,1,4,5,0,250.0,train,3,M
400.26307106,2,1000,1,1,2,3,0,1,4,5,0,250.0,train,2,M
400.590896606,5,1000,4,0,2,3,0,1,4,5,0,250.0,train,3,M
448.89497757,5,1000,4,1,2,3,0,1,4,5,0,250.0,train,5,M
448.421955109,1,1000,2,1,2,3,0,1,4,5,0,250.0,train,1,M
448.419094086,0,1000,3,1,2,3,0,1,4,5,0,250.0,train,0,M
656.440973282,4,1000,5,1,2,3,0,1,4,5,0,250.0,train,4,M
432.369947433,1,1000,2,1,2,3,0,1,4,5,0,250.0,train,1,M
640.350103378,3,1000,0,1,2,3,0,1,4,5,0,250.0,train,3,M
528.280973434,2,1000,1,0,2,3,0,1,4,5,0,250.0,train,1,M
592.45300293,5,1000,4,1,2,3,0,1,4,5,0,250.0,train,5,M
528.409004211,1,1000,2,1,2,3,0,1,4,5,0,250.0,train,1,M
480.387926102,0,1000,3,1,2,3,0,1,4,5,0,250.0,train,0,M
352.354049683,2,1000,1,1,2,3,0,1,4,5,0,250.0,train,2,M
352.401018143,3,1000,0,1,2,3,0,1,4,5,0,250.0,train,3,M
336.627006531,4,1000,5,1,2,3,0,1,4,5,0,250.0,train,4,M
304.368019104,5,1000,4,1,2,3,0,1,4,5,0,250.0,train,5,M
416.631221771,0,1000,3,1,2,3,0,1,4,5,0,250.0,train,0,M
352.52404213,0,1000,3,0,2,3,0,1,4,5,0,250.0,train,1,M
320.520877838,0,1000,3,1,2,3,0,1,4,5,0,250.0,train,0,M
320.37115097,1,1000,2,1,2,3,0,1,4,5,0,250.0,train,1,M
144.45400238,1,1000,2,0,2,3,0,1,4,5,0,250.0,train,2,M
704.550027847,5,1000,4,1,2,3,0,1,4,5,0,250.0,train,5,M
464.532852173,1,1000,2,1,2,3,0,1,4,5,0,250.0,train,1,M
448.455095291,2,1000,1,1,2,3,0,1,4,5,0,250.0,train,2,M
304.553031921,2,1000,1,1,2,3,0,1,4,5,0,250.0,train,2,M
480.412006378,4,1000,5,1,2,3,0,1,4,5,0,250.0,train,4,M
496.502876282,0,1000,3,0,2,3,0,1,4,5,0,250.0,train,2,M
288.523197174,0,1000,3,1,2,3,0,1,4,5,0,250.0,train,0,M
368.945837021,0,1000,3,1,2,3,0,1,4,5,0,250.0,train,0,M
432.559967041,1,1000,2,1,2,3,0,1,4,5,0,250.0,train,1,M
480.968952179,4,1000,5,1,2,3,0,1,4,5,0,250.0,train,4,M
544.594049454,5,1000,4,1,2,3,0,1,4,5,0,250.0,train,5,M
368.510007858,4,1000,5,1,2,3,0,1,4,5,0,250.0,train,4,M
368.52312088,0,1000,3,1,2,3,0,1,4,5,0,250.0,train,0,M
448.596000671,0,1000,3,1,2,3,0,1,4,5,0,250.0,train,0,M
640.510082245,3,1000,0,1,2,3,0,1,4,5,0,250.0,train,3,M
399.553060532,2,1000,1,0,2,3,0,1,4,5,0,250.0,train,1,M
304.734945297,2,1000,1,1,2,3,0,1,4,5,0,250.0,train,2,M
336.345911026,3,1000,0,0,2,3,0,1,4,5,0,250.0,train,4,M
288.123130798,3,1000,0,1,2,3,0,1,4,5,0,250.0,train,3,M
448.320865631,5,1000,4,1,2,3,0,1,4,5,0,250.0,train,5,M
513.020038605,1,1000,2,1,2,3,0,1,4,5,0,250.0,train,1,M
400.454998016,5,1000,4,1,2,3,0,1,4,5,0,250.0,train,5,M
480.768918991,3,1000,0,0,2,3,0,1,4,5,0,250.0,train,2,M
240.488052368,3,1000,0,1,2,3,0,1,4,5,0,250.0,train,3,M
400.537967682,5,1000,4,1,2,3,0,1,4,5,0,250.0,train,5,M
464.373826981,1,1000,2,1,2,3,0,1,4,5,0,250.0,train,1,M
400.213003159,5,1000,4,1,2,3,0,1,4,5,0,250.0,train,5,M
336.802005768,1,1000,2,1,2,3,0,1,4,5,0,250.0,train,1,M
272.47595787,5,1000,4,1,2,3,0,1,4,5,0,250.0,train,5,M
208.104848862,1,1000,2,1,2,3,0,1,4,5,0,250.0,train,1,M
641.014099121,2,1000,1,0,2,3,0,1,4,5,0,250.0,train,3,M
208.935022354,0,1000,3,0,2,3,0,1,4,5,0,250.0,train,2,M
447.496175766,3,1000,0,0,2,3,0,1,4,5,0,250.0,train,2,M
400.460958481,5,1000,4,1,2,3,0,1,4,5,0,250.0,train,5,M
496.41084671,5,1000,4,1,2,3,0,1,4,5,0,250.0,train,5,M
416.457891464,4,1000,5,1,2,3,0,1,4,5,0,250.0,train,4,M
512.439012527,0,1000,3,1,2,3,0,1,4,5,0,250.0,train,0,M
432.329177856,1,1000,2,1,2,3,0,1,4,5,0,250.0,train,1,M
592.456102371,3,1000,0,1,2,3,0,1,4,5,0,250.0,train,3,M
416.335821152,4,1000,5,1,2,3,0,1,4,5,0,250.0,train,4,M
464.421987534,0,1000,3,1,2,3,0,1,4,5,0,250.0,train,0,M
496.45614624,5,1000,4,1,2,3,0,1,4,5,0,250.0,train,5,M
416.434049606,5,1000,4,1,2,3,0,1,4,5,0,250.0,train,5,M
768.522024155,3,1000,0,1,2,3,0,1,4,5,0,250.0,train,3,M
912.29391098,2,1000,1,1,2,3,0,1,4,5,0,250.0,train,2,M
448.376893997,5,1000,4,1,2,3,0,1,4,5,0,250.0,train,5,M
432.626008987,0,1000,3,1,2,3,0,1,4,5,0,250.0,train,0,M
496.854066849,4,1000,5,1,2,3,0,1,4,5,0,250.0,train,4,M
560.348987579,2,1000,1,1,2,3,0,1,4,5,0,250.0,train,2,M
528.527975082,1,1000,2,1,2,3,0,1,4,5,0,250.0,train,1,M
528.511047363,3,1000,0,1,2,3,0,1,4,5,0,250.0,train,3,M
448.503017426,0,1000,3,1,2,3,0,1,4,5,0,250.0,train,0,M
992.542982101,4,1000,5,1,2,3,0,1,4,5,0,250.0,train,4,M
368.258953094,5,1000,4,1,2,3,0,1,4,5,0,250.0,train,5,M
528.88584137,1,1000,2,1,2,3,0,1,4,5,0,250.0,train,1,M
544.435024261,4,1000,5,1,2,3,0,1,4,5,0,250.0,train,4,M
400.465965271,4,1000,5,1,2,3,0,1,4,5,0,250.0,train,4,M
352.437019348,4,1000,5,1,2,3,0,1,4,5,0,250.0,train,4,M
496.384143829,3,1000,0,1,2,3,0,1,4,5,0,250.0,train,3,M
416.296005249,5,1000,4,1,2,3,0,1,4,5,0,250.0,train,5,M
624.446153641,2,1000,1,1,2,3,0,1,4,5,0,250.0,train,2,M
528.409004211,3,1000,0,1,2,3,0,1,4,5,0,250.0,train,3,M
320.369005203,4,1000,5,1,2,3,0,1,4,5,0,250.0,train,4,M
575.720071793,4,1000,5,1,2,3,0,1,4,5,0,250.0,train,4,M
511.589050293,3,1000,0,1,2,3,0,1,4,5,0,250.0,train,3,M
543.458938599,1,1000,2,1,2,3,0,1,4,5,0,250.0,train,1,M
736.510038376,3,1000,0,1,2,3,0,1,4,5,0,250.0,train,3,M
544.37494278,3,1000,0,1,2,3,0,1,4,5,0,250.0,train,3,M
480.38315773,4,1000,5,1,2,3,0,1,4,5,0,250.0,train,4,M
352.421998978,4,1000,5,1,2,3,0,1,4,5,0,250.0,train,4,M
512.607812881,0,1000,3,1,2,3,0,1,4,5,0,250.0,train,0,M
608.938932419,4,1000,5,1,2,3,0,1,4,5,0,250.0,train,4,M
688.488960266,3,1000,0,1,2,3,0,1,4,5,0,250.0,train,3,M
352.507829666,4,1000,5,1,2,3,0,1,4,5,0,250.0,train,4,M
352.461099625,5,1000,4,1,2,3,0,1,4,5,0,250.0,train,5,M
480.916976929,1,1000,2,1,2,3,0,1,4,5,0,250.0,train,1,M
463.645935059,5,1000,4,0,2,3,0,1,4,5,0,250.0,train,4,M
304.228067398,5,1000,4,1,2,3,0,1,4,5,0,250.0,train,5,M
576.864957809,1,1000,2,1,2,3,0,1,4,5,0,250.0,train,1,M
432.89899826,1,1000,2,1,2,3,0,1,4,5,0,250.0,train,1,M
800.592899323,3,1000,0,1,2,3,0,1,4,5,0,250.0,train,3,M
464.609146118,0,1000,3,1,2,3,0,1,4,5,0,250.0,train,0,M
448.893070221,5,1000,4,1,2,3,0,1,4,5,0,250.0,train,5,M
464.536905289,0,1000,3,1,2,3,0,1,4,5,0,250.0,train,0,M
784.612178802,3,1000,0,1,2,3,0,1,4,5,0,250.0,train,3,M
560.384988785,3,1000,0,1,2,3,0,1,4,5,0,250.0,train,3,M
448.539018631,5,1000,4,1,2,3,0,1,4,5,0,250.0,train,5,M
464.450120926,1,1000,2,1,2,3,0,1,4,5,0,250.0,train,1,M
576.924085617,3,1000,0,1,2,3,0,1,4,5,0,250.0,train,3,M
336.46607399,4,1000,5,1,2,3,0,1,4,5,0,250.0,train,4,M
496.568202972,2,1000,1,1,2,3,0,1,4,5,0,250.0,train,2,M
496.428012848,5,1000,4,1,2,3,0,1,4,5,0,250.0,train,5,M
448.454856873,4,1000,5,1,2,3,0,1,4,5,0,250.0,train,4,M
912.395954132,2,1000,1,1,2,3,0,1,4,5,0,250.0,train,2,M
400.499105453,4,1000,5,0,2,3,0,1,4,5,0,250.0,train,5,M
416.459083557,4,1000,5,0,2,3,0,1,4,5,0,250.0,train,5,M
208.433866501,2,1000,1,0,2,3,0,1,4,5,0,250.0,train,4,M
624.454021454,5,1000,4,1,2,3,0,1,4,5,0,250.0,train,5,M
464.437007904,2,1000,1,1,2,3,0,1,4,5,0,250.0,train,2,M
400.39396286,4,1000,5,1,2,3,0,1,4,5,0,250.0,train,4,M
464.4780159,0,1000,3,1,2,3,0,1,4,5,0,250.0,train,0,M
352.591991425,4,1000,5,1,2,3,0,1,4,5,0,250.0,train,4,M
416.339874268,1,1000,2,1,2,3,0,1,4,5,0,250.0,train,1,M
335.647821426,2,1000,1,1,2,3,0,1,4,5,0,250.0,train,2,M
400.925159454,0,1000,3,1,2,3,0,1,4,5,0,250.0,train,0,M
480.962991714,5,1000,4,1,2,3,0,1,4,5,0,250.0,train,5,M
496.386051178,0,1000,3,1,2,3,0,1,4,5,0,250.0,train,0,M
400.695085526,1,1000,2,1,2,3,0,1,4,5,0,250.0,train,1,M
448.525905609,0,1000,3,1,2,3,0,1,4,5,0,250.0,train,0,M
448.434829712,5,1000,4,1,2,3,0,1,4,5,0,250.0,train,5,M
495.645999908,1,1000,2,1,2,3,0,1,4,5,0,250.0,train,1,M
464.169025421,3,1000,0,1,2,3,0,1,4,5,0,250.0,train,3,M
432.999849319,5,1000,4,1,2,3,0,1,4,5,0,250.0,train,5,M
368.181228638,4,1000,5,1,2,3,0,1,4,5,0,250.0,train,4,M
416.433095932,5,1000,4,1,2,3,0,1,4,5,0,250.0,train,5,M
432.570934296,2,1000,1,0,2,3,0,1,4,5,0,250.0,train,1,M
432.45100975,4,1000,5,1,2,3,0,1,4,5,0,250.0,train,4,M
416.401863098,5,1000,4,1,2,3,0,1,4,5,0,250.0,train,5,M
480.532884598,0,1000,3,1,2,3,0,1,4,5,0,250.0,train,0,M
624.629020691,3,1000,0,0,2,3,0,1,4,5,0,250.0,train,2,M
592.398881912,2,1000,1,0,2,3,0,1,4,5,0,250.0,train,3,M
480.381011963,3,1000,0,1,2,3,0,1,4,5,0,250.0,train,3,M
576.38001442,2,1000,1,1,2,3,0,1,4,5,0,250.0,train,2,M
544.550895691,4,1000,5,1,2,3,0,1,4,5,0,250.0,train,4,M
464.754104614,1,1000,2,1,2,3,0,1,4,5,0,250.0,train,1,M
560.467004776,4,1000,5,1,2,3,0,1,4,5,0,250.0,train,4,M
624.456882477,2,1000,1,1,2,3,0,1,4,5,0,250.0,train,2,M
768.433094025,0,1000,3,1,2,3,0,1,4,5,0,250.0,train,0,M
512.50910759,5,1000,4,1,2,3,0,1,4,5,0,250.0,train,5,M
528.304815292,1,1000,2,1,2,3,0,1,4,5,0,250.0,train,1,M
464.516878128,4,1000,5,1,2,3,0,1,4,5,0,250.0,train,4,M
3840.07000923,4,1000,5,1,2,3,0,1,4,5,0,250.0,test,4,M
1168.14899445,5,1000,4,1,2,3,0,1,4,5,0,250.0,test,5,M
1472.43285179,3,1000,0,1,2,3,0,1,4,5,0,250.0,test,3,M
864.781141281,5,1000,4,1,2,3,0,1,4,5,0,250.0,test,5,M
960.479974747,3,1000,0,1,2,3,0,1,4,5,0,250.0,test,3,M
736.386060715,3,1000,0,1,2,3,0,1,4,5,0,250.0,test,3,M
672.420978546,5,1000,4,1,2,3,0,1,4,5,0,250.0,test,5,M
592.495203018,2,1000,1,1,2,3,0,1,4,5,0,250.0,test,2,M
384.420156479,2,1000,1,1,2,3,0,1,4,5,0,250.0,test,2,M
864.543914795,1,1000,2,1,2,3,0,1,4,5,0,250.0,test,1,M
416.385889053,4,1000,5,0,2,3,0,1,4,5,0,250.0,test,0,M
832.355976105,1,1000,2,1,2,3,0,1,4,5,0,250.0,test,1,M
736.320018768,5,1000,4,1,2,3,0,1,4,5,0,250.0,test,5,M
2400.21300316,2,1000,1,1,2,3,0,1,4,5,0,250.0,test,2,M
960.845947266,4,1000,5,1,2,3,0,1,4,5,0,250.0,test,4,M
816.441059113,3,1000,0,1,2,3,0,1,4,5,0,250.0,test,3,M
592.505931854,5,1000,4,1,2,3,0,1,4,5,0,250.0,test,5,M
624.85408783,1,1000,2,0,2,3,0,1,4,5,0,250.0,test,2,M
528.748035431,3,1000,0,1,2,3,0,1,4,5,0,250.0,test,3,M
624.413013458,5,1000,4,1,2,3,0,1,4,5,0,250.0,test,5,M
560.289859772,0,1000,3,1,2,3,0,1,4,5,0,250.0,test,0,M
432.313919067,1,1000,2,1,2,3,0,1,4,5,0,250.0,test,1,M
608.402967453,1,1000,2,1,2,3,0,1,4,5,0,250.0,test,1,M
368.455886841,2,1000,1,1,2,3,0,1,4,5,0,250.0,test,2,M
527.940988541,0,1000,3,1,2,3,0,1,4,5,0,250.0,test,0,M
560.739994049,0,1000,3,1,2,3,0,1,4,5,0,250.0,test,0,M
639.971971512,1,1000,2,1,2,3,0,1,4,5,0,250.0,test,1,M
511.9099617,5,1000,4,1,2,3,0,1,4,5,0,250.0,test,5,M
608.254909515,3,1000,0,1,2,3,0,1,4,5,0,250.0,test,3,M
704.5109272,2,1000,1,1,2,3,0,1,4,5,0,250.0,test,2,M
383.97192955,4,1000,5,1,2,3,0,1,4,5,0,250.0,test,4,M
480.324983597,3,1000,0,1,2,3,0,1,4,5,0,250.0,test,3,M
607.99407959,4,1000,5,1,2,3,0,1,4,5,0,250.0,test,4,M
592.55194664,0,1000,3,1,2,3,0,1,4,5,0,250.0,test,0,M
576.519966125,5,1000,4,1,2,3,0,1,4,5,0,250.0,test,5,M
496.020793915,3,1000,0,1,2,3,0,1,4,5,0,250.0,test,3,M
511.821985245,0,1000,3,1,2,3,0,1,4,5,0,250.0,test,0,M
784.41286087,4,1000,5,1,2,3,0,1,4,5,0,250.0,test,4,M
463.862895966,5,1000,4,1,2,3,0,1,4,5,0,250.0,test,5,M
688.74502182,2,1000,1,1,2,3,0,1,4,5,0,250.0,test,2,M
368.319034576,2,1000,1,1,2,3,0,1,4,5,0,250.0,test,2,M
496.020793915,0,1000,3,1,2,3,0,1,4,5,0,250.0,test,0,M
528.962135315,3,1000,0,1,2,3,0,1,4,5,0,250.0,test,3,M
368.395805359,3,1000,0,1,2,3,0,1,4,5,0,250.0,test,3,M
592.360019684,1,1000,2,1,2,3,0,1,4,5,0,250.0,test,1,M
576.309919357,4,1000,5,0,2,3,0,1,4,5,0,250.0,test,0,M
527.801990509,3,1000,0,1,2,3,0,1,4,5,0,250.0,test,3,M
463.953018188,1,1000,2,1,2,3,0,1,4,5,0,250.0,test,1,M
640.332937241,1,1000,2,1,2,3,0,1,4,5,0,250.0,test,1,M
543.899059296,3,1000,0,1,2,3,0,1,4,5,0,250.0,test,3,M
271.919965744,3,1000,0,0,2,3,0,1,4,5,0,250.0,test,5,M
367.912054062,3,1000,0,1,2,3,0,1,4,5,0,250.0,test,3,M
576.006889343,4,1000,5,1,2,3,0,1,4,5,0,250.0,test,4,M
592.023134232,1,1000,2,1,2,3,0,1,4,5,0,250.0,test,1,M
543.792963028,3,1000,0,1,2,3,0,1,4,5,0,250.0,test,3,M
496.032953262,4,1000,5,1,2,3,0,1,4,5,0,250.0,test,4,M
303.864955902,5,1000,4,1,2,3,0,1,4,5,0,250.0,test,5,M
608.888149261,2,1000,1,1,2,3,0,1,4,5,0,250.0,test,2,M
432.841062546,2,1000,1,1,2,3,0,1,4,5,0,250.0,test,2,M
432.84702301,2,1000,1,1,2,3,0,1,4,5,0,250.0,test,2,M
416.863918304,2,1000,1,1,2,3,0,1,4,5,0,250.0,test,2,M
528.788805008,3,1000,0,0,2,3,0,1,4,5,0,250.0,test,4,M
464.172124863,1,1000,2,1,2,3,0,1,4,5,0,250.0,test,1,M
512.096881866,0,1000,3,1,2,3,0,1,4,5,0,250.0,test,0,M
496.870040894,2,1000,1,1,2,3,0,1,4,5,0,250.0,test,2,M
528.85723114,2,1000,1,1,2,3,0,1,4,5,0,250.0,test,2,M
320.858001709,2,1000,1,1,2,3,0,1,4,5,0,250.0,test,2,M
560.899972916,4,1000,5,1,2,3,0,1,4,5,0,250.0,test,4,M
304.180860519,4,1000,5,0,2,3,0,1,4,5,0,250.0,test,0,M
367.984056473,3,1000,0,0,2,3,0,1,4,5,0,250.0,test,4,M
543.872833252,2,1000,1,1,2,3,0,1,4,5,0,250.0,test,2,M
688.280820847,3,1000,0,1,2,3,0,1,4,5,0,250.0,test,3,M
576.389074326,5,1000,4,1,2,3,0,1,4,5,0,250.0,test,5,M
608.098983765,4,1000,5,1,2,3,0,1,4,5,0,250.0,test,4,M
480.355978012,3,1000,0,1,2,3,0,1,4,5,0,250.0,test,3,M
560.237884521,0,1000,3,1,2,3,0,1,4,5,0,250.0,test,0,M
448.364973068,3,1000,0,1,2,3,0,1,4,5,0,250.0,test,3,M
528.343915939,0,1000,3,1,2,3,0,1,4,5,0,250.0,test,0,M
495.963096619,0,1000,3,1,2,3,0,1,4,5,0,250.0,test,0,M
928.205966949,3,1000,0,1,2,3,0,1,4,5,0,250.0,test,3,M
511.82103157,5,1000,4,1,2,3,0,1,4,5,0,250.0,test,5,M
543.91002655,5,1000,4,1,2,3,0,1,4,5,0,250.0,test,5,M
975.827932358,1,1000,2,1,2,3,0,1,4,5,0,250.0,test,1,M
479.737997055,5,1000,4,1,2,3,0,1,4,5,0,250.0,test,5,M
527.741193771,3,1000,0,1,2,3,0,1,4,5,0,250.0,test,3,M
480.47208786,5,1000,4,1,2,3,0,1,4,5,0,250.0,test,5,M
480.024814606,0,1000,3,1,2,3,0,1,4,5,0,250.0,test,0,M
527.887105942,2,1000,1,1,2,3,0,1,4,5,0,250.0,test,2,M
575.87313652,0,1000,3,1,2,3,0,1,4,5,0,250.0,test,0,M
543.794870377,1,1000,2,0,2,3,0,1,4,5,0,250.0,test,2,M
431.896924973,2,1000,1,1,2,3,0,1,4,5,0,250.0,test,2,M
591.673135757,3,1000,0,1,2,3,0,1,4,5,0,250.0,test,3,M
575.960159302,2,1000,1,1,2,3,0,1,4,5,0,250.0,test,2,M
575.808048248,5,1000,4,1,2,3,0,1,4,5,0,250.0,test,5,M
656.229019165,4,1000,5,1,2,3,0,1,4,5,0,250.0,test,4,M
400.395154953,3,1000,0,1,2,3,0,1,4,5,0,250.0,test,3,M
528.762102127,2,1000,1,1,2,3,0,1,4,5,0,250.0,test,2,M
528.802871704,0,1000,3,1,2,3,0,1,4,5,0,250.0,test,0,M
352.424860001,1,1000,2,1,2,3,0,1,4,5,0,250.0,test,1,M
416.833877563,1,1000,2,1,2,3,0,1,4,5,0,250.0,test,1,M
768.796205521,5,1000,4,0,2,3,0,1,4,5,0,250.0,test,3,M
704.05292511,2,1000,1,1,2,3,0,1,4,5,0,250.0,test,2,M
656.817913055,4,1000,5,1,2,3,0,1,4,5,0,250.0,test,4,M
592.908143997,0,1000,3,1,2,3,0,1,4,5,0,250.0,test,0,M
624.125003815,3,1000,0,1,2,3,0,1,4,5,0,250.0,test,3,M
384.685993195,1,1000,2,0,2,3,0,1,4,5,0,250.0,test,3,M
528.995990753,0,1000,3,1,2,3,0,1,4,5,0,250.0,test,0,M
720.3810215,4,1000,5,1,2,3,0,1,4,5,0,250.0,test,4,M
496.27494812,0,1000,3,1,2,3,0,1,4,5,0,250.0,test,0,M
528.202772141,5,1000,4,1,2,3,0,1,4,5,0,250.0,test,5,M
496.26994133,2,1000,1,1,2,3,0,1,4,5,0,250.0,test,2,M
592.449903488,1,1000,2,1,2,3,0,1,4,5,0,250.0,test,1,M
607.597827911,4,1000,5,1,2,3,0,1,4,5,0,250.0,test,4,M
480.074167252,1,1000,2,0,2,3,0,1,4,5,0,250.0,test,2,M
512.274026871,5,1000,4,1,2,3,0,1,4,5,0,250.0,test,5,M
528.403043747,2,1000,1,1,2,3,0,1,4,5,0,250.0,test,2,M
527.845859528,1,1000,2,1,2,3,0,1,4,5,0,250.0,test,1,M
511.949062347,2,1000,1,1,2,3,0,1,4,5,0,250.0,test,2,M
448.001861572,5,1000,4,1,2,3,0,1,4,5,0,250.0,test,5,M
623.967885971,1,1000,2,1,2,3,0,1,4,5,0,250.0,test,1,M
384.00220871,3,1000,0,0,2,3,0,1,4,5,0,250.0,test,2,M
495.862007141,5,1000,4,1,2,3,0,1,4,5,0,250.0,test,5,M
560.202121735,1,1000,2,1,2,3,0,1,4,5,0,250.0,test,1,M
352.078914642,4,1000,5,1,2,3,0,1,4,5,0,250.0,test,4,M
431.922912598,0,1000,3,1,2,3,0,1,4,5,0,250.0,test,0,M
511.969804764,0,1000,3,1,2,3,0,1,4,5,0,250.0,test,0,M
496.048927307,5,1000,4,1,2,3,0,1,4,5,0,250.0,test,5,M
511.966943741,0,1000,3,1,2,3,0,1,4,5,0,250.0,test,0,M
1023.48589897,3,1000,0,1,2,3,0,1,4,5,0,250.0,test,3,M
416.141033173,4,1000,5,1,2,3,0,1,4,5,0,250.0,test,4,M
591.998100281,1,1000,2,1,2,3,0,1,4,5,0,250.0,test,1,M
480.755090714,2,1000,1,1,2,3,0,1,4,5,0,250.0,test,2,M
528.065919876,5,1000,4,1,2,3,0,1,4,5,0,250.0,test,5,M
303.968906403,0,1000,3,0,2,3,0,1,4,5,0,250.0,test,4,M
511.955976486,5,1000,4,1,2,3,0,1,4,5,0,250.0,test,5,M
719.949007034,4,1000,5,1,2,3,0,1,4,5,0,250.0,test,4,M
480.137825012,5,1000,4,1,2,3,0,1,4,5,0,250.0,test,5,M
736.939191818,1,1000,2,1,2,3,0,1,4,5,0,250.0,test,1,M
480.104923248,0,1000,3,1,2,3,0,1,4,5,0,250.0,test,0,M
543.564796448,3,1000,0,1,2,3,0,1,4,5,0,250.0,test,3,M
479.944944382,1,1000,2,1,2,3,0,1,4,5,0,250.0,test,1,M
496.86384201,3,1000,0,1,2,3,0,1,4,5,0,250.0,test,3,M
463.794946671,2,1000,1,1,2,3,0,1,4,5,0,250.0,test,2,M
320.722818375,0,1000,3,0,2,3,0,1,4,5,0,250.0,test,4,M
559.890031815,3,1000,0,1,2,3,0,1,4,5,0,250.0,test,3,M
432.127952576,5,1000,4,1,2,3,0,1,4,5,0,250.0,test,5,M
495.927810669,5,1000,4,1,2,3,0,1,4,5,0,250.0,test,5,M
608.127117157,2,1000,1,1,2,3,0,1,4,5,0,250.0,test,2,M
511.874198914,1,1000,2,1,2,3,0,1,4,5,0,250.0,test,1,M
544.071912766,4,1000,5,1,2,3,0,1,4,5,0,250.0,test,4,M
592.899084091,0,1000,3,1,2,3,0,1,4,5,0,250.0,test,0,M
480.791807175,2,1000,1,1,2,3,0,1,4,5,0,250.0,test,2,M
432.773113251,4,1000,5,1,2,3,0,1,4,5,0,250.0,test,4,M
448.891878128,3,1000,0,0,2,3,0,1,4,5,0,250.0,test,5,M
543.868780136,2,1000,1,1,2,3,0,1,4,5,0,250.0,test,2,M
736.368894577,0,1000,3,0,2,3,0,1,4,5,0,250.0,test,4,M
480.797052383,2,1000,1,1,2,3,0,1,4,5,0,250.0,test,2,M
527.849912643,5,1000,4,1,2,3,0,1,4,5,0,250.0,test,5,M
576.44200325,3,1000,0,1,2,3,0,1,4,5,0,250.0,test,3,M
704.44393158,4,1000,5,1,2,3,0,1,4,5,0,250.0,test,4,M
1167.88506508,0,1000,3,1,2,3,0,1,4,5,0,250.0,test,0,M
559.607982635,5,1000,4,1,2,3,0,1,4,5,0,250.0,test,5,M
559.823036194,4,1000,5,1,2,3,0,1,4,5,0,250.0,test,4,M
672.123908997,2,1000,1,1,2,3,0,1,4,5,0,250.0,test,2,M
849.004030228,0,1000,3,1,2,3,0,1,4,5,0,250.0,test,0,M
512.089014053,1,1000,2,1,2,3,0,1,4,5,0,250.0,test,1,M
527.764797211,5,1000,4,1,2,3,0,1,4,5,0,250.0,test,5,M
783.650875092,5,1000,4,1,2,3,0,1,4,5,0,250.0,test,5,M
575.47712326,4,1000,5,1,2,3,0,1,4,5,0,250.0,test,4,M
448.269844055,5,1000,4,1,2,3,0,1,4,5,0,250.0,test,5,M
576.126098633,0,1000,3,0,2,3,0,1,4,5,0,250.0,test,4,M
688.854932785,1,1000,2,1,2,3,0,1,4,5,0,250.0,test,1,M
560.869932175,0,1000,3,1,2,3,0,1,4,5,0,250.0,test,0,M
528.873920441,1,1000,2,1,2,3,0,1,4,5,0,250.0,test,1,M
463.863134384,5,1000,4,1,2,3,0,1,4,5,0,250.0,test,5,M
320.982933044,0,1000,3,0,2,3,0,1,4,5,0,250.0,test,4,M
511.903047562,1,1000,2,1,2,3,0,1,4,5,0,250.0,test,1,M
336.495161057,3,1000,0,1,2,3,0,1,4,5,0,250.0,test,3,M
447.263002396,2,1000,1,1,2,3,0,1,4,5,0,250.0,test,2,M
432.862997055,0,1000,3,1,2,3,0,1,4,5,0,250.0,test,0,M
703.515052795,1,1000,2,1,2,3,0,1,4,5,0,250.0,test,1,M
593.021154404,0,1000,3,1,2,3,0,1,4,5,0,250.0,test,0,M
576.253890991,1,1000,2,1,2,3,0,1,4,5,0,250.0,test,1,M
416.821956635,1,1000,2,1,2,3,0,1,4,5,0,250.0,test,1,M
751.926183701,0,1000,3,1,2,3,0,1,4,5,0,250.0,test,0,M
512.847900391,2,1000,1,1,2,3,0,1,4,5,0,250.0,test,2,M
495.721817017,0,1000,3,1,2,3,0,1,4,5,0,250.0,test,0,M
352.84113884,3,1000,0,1,2,3,0,1,4,5,0,250.0,test,3,M
575.69694519,2,1000,1,1,2,3,0,1,4,5,0,250.0,test,2,M
512.887001038,0,1000,3,1,2,3,0,1,4,5,0,250.0,test,0,M
512.07613945,0,1000,3,1,2,3,0,1,4,5,0,250.0,test,0,M
575.976848602,0,1000,3,1,2,3,0,1,4,5,0,250.0,test,0,M
1040.32993317,4,1000,5,1,2,3,0,1,4,5,0,250.0,test,4,M
735.392808914,1,1000,2,1,2,3,0,1,4,5,0,250.0,test,1,M
815.673112869,0,1000,3,1,2,3,0,1,4,5,0,250.0,test,0,M
512.516021729,2,1000,1,1,2,3,0,1,4,5,0,250.0,test,2,M
528.402090073,1,1000,2,1,2,3,0,1,4,5,0,250.0,test,1,M
672.414064407,4,1000,5,1,2,3,0,1,4,5,0,250.0,test,4,M
975.888967514,5,1000,4,1,2,3,0,1,4,5,0,250.0,test,5,M
672.795057297,4,1000,5,1,2,3,0,1,4,5,0,250.0,test,4,M
944.082021713,1,1000,2,1,2,3,0,1,4,5,0,250.0,test,1,M
575.901031494,0,1000,3,1,2,3,0,1,4,5,0,250.0,test,0,M
495.982170105,4,1000,5,1,2,3,0,1,4,5,0,250.0,test,4,M
559.87405777,0,1000,3,1,2,3,0,1,4,5,0,250.0,test,0,M
416.252851486,2,1000,1,1,2,3,0,1,4,5,0,250.0,test,2,M
432.021141052,5,1000,4,1,2,3,0,1,4,5,0,250.0,test,5,M
432.355880737,3,1000,0,1,2,3,0,1,4,5,0,250.0,test,3,M
479.774951935,1,1000,2,1,2,3,0,1,4,5,0,250.0,test,1,M
399.816036224,1,1000,2,1,2,3,0,1,4,5,0,250.0,test,1,M
367.9728508,4,1000,5,0,2,3,0,1,4,5,0,250.0,test,2,M
479.84290123,2,1000,1,1,2,3,0,1,4,5,0,250.0,test,2,M
575.62494278,4,1000,5,1,2,3,0,1,4,5,0,250.0,test,4,M
431.995153427,0,1000,3,1,2,3,0,1,4,5,0,250.0,test,0,M
624.964952469,1,1000,2,1,2,3,0,1,4,5,0,250.0,test,1,M
463.625907898,0,1000,3,0,2,3,0,1,4,5,0,250.0,test,1,M
400.813817978,1,1000,2,1,2,3,0,1,4,5,0,250.0,test,1,M
528.909921646,5,1000,4,1,2,3,0,1,4,5,0,250.0,test,5,M
495.913028717,0,1000,3,1,2,3,0,1,4,5,0,250.0,test,0,M
607.797145844,3,1000,0,1,2,3,0,1,4,5,0,250.0,test,3,M
527.720928192,4,1000,5,1,2,3,0,1,4,5,0,250.0,test,4,M
496.164083481,0,1000,3,1,2,3,0,1,4,5,0,250.0,test,0,M
463.947057724,5,1000,4,1,2,3,0,1,4,5,0,250.0,test,5,M
415.938138962,5,1000,4,1,2,3,0,1,4,5,0,250.0,test,5,M
560.85896492,1,1000,2,1,2,3,0,1,4,5,0,250.0,test,1,M
608.206033707,2,1000,1,1,2,3,0,1,4,5,0,250.0,test,2,M
496.170043945,5,1000,4,1,2,3,0,1,4,5,0,250.0,test,5,M
1024.85895157,0,1000,3,1,2,3,0,1,4,5,0,250.0,test,0,M
544.291973114,1,1000,2,0,2,3,0,1,4,5,0,250.0,test,2,M
560.175180435,2,1000,1,1,2,3,0,1,4,5,0,250.0,test,2,M
368.407011032,5,1000,4,1,2,3,0,1,4,5,0,250.0,test,5,M
544.553041458,3,1000,0,1,2,3,0,1,4,5,0,250.0,test,3,M
688.326120377,0,1000,3,1,2,3,0,1,4,5,0,250.0,test,0,M
607.774972916,0,1000,3,1,2,3,0,1,4,5,0,250.0,test,0,M
480.782985687,3,1000,0,1,2,3,0,1,4,5,0,250.0,test,3,M
431.952953339,2,1000,1,1,2,3,0,1,4,5,0,250.0,test,2,M
576.429843903,3,1000,0,1,2,3,0,1,4,5,0,250.0,test,3,M
512.341022491,0,1000,3,1,2,3,0,1,4,5,0,250.0,test,0,M
559.849023819,4,1000,5,1,2,3,0,1,4,5,0,250.0,test,4,M
463.76991272,2,1000,1,1,2,3,0,1,4,5,0,250.0,test,2,M
447.843074799,1,1000,2,1,2,3,0,1,4,5,0,250.0,test,1,M
511.85297966,1,1000,2,1,2,3,0,1,4,5,0,250.0,test,1,M
463.705062866,4,1000,5,1,2,3,0,1,4,5,0,250.0,test,4,M
464.324951172,2,1000,1,1,2,3,0,1,4,5,0,250.0,test,2,M
400.244951248,4,1000,5,1,2,3,0,1,4,5,0,250.0,test,4,M
576.412916183,0,1000,3,1,2,3,0,1,4,5,0,250.0,test,0,M
416.37802124,3,1000,0,1,2,3,0,1,4,5,0,250.0,test,3,M
559.392929077,2,1000,1,1,2,3,0,1,4,5,0,250.0,test,2,M
608.859062195,0,1000,3,1,2,3,0,1,4,5,0,250.0,test,0,M
480.11302948,2,1000,1,1,2,3,0,1,4,5,0,250.0,test,2,M
624.696016312,1,1000,2,1,2,3,0,1,4,5,0,250.0,test,1,M
