RT,correct_response,ms-prestimblank,curstim,correct,SRmap_1,SRmap_0,SRmap_3,SRmap_2,SRmap_5,SRmap_4,ms-precue,ntrials,type,response,condition
120060.275793,4,1000,2,1,1,5,3,4,0,2,0,250.0,train,4,M
1376.16491318,0,1000,5,1,1,5,3,4,0,2,0,250.0,train,0,M
1728.22713852,4,1000,2,1,1,5,3,4,0,2,0,250.0,train,4,M
816.487073898,3,1000,3,1,1,5,3,4,0,2,0,250.0,train,3,M
608.507871628,3,1000,3,1,1,5,3,4,0,2,0,250.0,train,3,M
608.366012573,1,1000,1,0,1,5,3,4,0,2,0,250.0,train,0,M
608.398199081,0,1000,5,1,1,5,3,4,0,2,0,250.0,train,0,M
560.200929642,0,1000,5,1,1,5,3,4,0,2,0,250.0,train,0,M
624.337911606,5,1000,0,1,1,5,3,4,0,2,0,250.0,train,5,M
592.317819595,2,1000,4,0,1,5,3,4,0,2,0,250.0,train,1,M
576.858997345,4,1000,2,0,1,5,3,4,0,2,0,250.0,train,5,M
1136.68489456,3,1000,3,1,1,5,3,4,0,2,0,250.0,train,3,M
671.257019043,5,1000,0,1,1,5,3,4,0,2,0,250.0,train,5,M
671.525001526,1,1000,1,1,1,5,3,4,0,2,0,250.0,train,1,M
592.859983444,1,1000,1,1,1,5,3,4,0,2,0,250.0,train,1,M
640.35987854,4,1000,2,0,1,5,3,4,0,2,0,250.0,train,5,M
608.379125595,5,1000,0,1,1,5,3,4,0,2,0,250.0,train,5,M
719.484090805,3,1000,3,1,1,5,3,4,0,2,0,250.0,train,3,M
592.319011688,5,1000,0,1,1,5,3,4,0,2,0,250.0,train,5,M
592.391014099,5,1000,0,1,1,5,3,4,0,2,0,250.0,train,5,M
752.885103226,3,1000,3,1,1,5,3,4,0,2,0,250.0,train,3,M
800.390005112,2,1000,4,1,1,5,3,4,0,2,0,250.0,train,2,M
864.531993866,0,1000,5,1,1,5,3,4,0,2,0,250.0,train,0,M
496.27494812,3,1000,3,1,1,5,3,4,0,2,0,250.0,train,3,M
560.424089432,1,1000,1,1,1,5,3,4,0,2,0,250.0,train,1,M
576.488018036,2,1000,4,1,1,5,3,4,0,2,0,250.0,train,2,M
544.595003128,4,1000,2,1,1,5,3,4,0,2,0,250.0,train,4,M
448.625087738,5,1000,0,1,1,5,3,4,0,2,0,250.0,train,5,M
815.905094147,2,1000,4,1,1,5,3,4,0,2,0,250.0,train,2,M
623.808145523,5,1000,0,1,1,5,3,4,0,2,0,250.0,train,5,M
591.593027115,1,1000,1,1,1,5,3,4,0,2,0,250.0,train,1,M
607.558012009,3,1000,3,1,1,5,3,4,0,2,0,250.0,train,3,M
495.581150055,4,1000,2,1,1,5,3,4,0,2,0,250.0,train,4,M
591.428995132,4,1000,2,1,1,5,3,4,0,2,0,250.0,train,4,M
543.76912117,0,1000,5,1,1,5,3,4,0,2,0,250.0,train,0,M
415.463924408,4,1000,2,1,1,5,3,4,0,2,0,250.0,train,4,M
623.54516983,1,1000,1,1,1,5,3,4,0,2,0,250.0,train,1,M
495.454072952,5,1000,0,1,1,5,3,4,0,2,0,250.0,train,5,M
511.475086212,5,1000,0,1,1,5,3,4,0,2,0,250.0,train,5,M
543.576002121,0,1000,5,1,1,5,3,4,0,2,0,250.0,train,0,M
480.366945267,2,1000,4,0,1,5,3,4,0,2,0,250.0,train,4,M
560.340881348,3,1000,3,0,1,5,3,4,0,2,0,250.0,train,1,M
703.399896622,3,1000,3,1,1,5,3,4,0,2,0,250.0,train,3,M
352.215051651,4,1000,2,1,1,5,3,4,0,2,0,250.0,train,4,M
496.199846268,0,1000,5,1,1,5,3,4,0,2,0,250.0,train,0,M
480.859994888,0,1000,5,1,1,5,3,4,0,2,0,250.0,train,0,M
703.577041626,4,1000,2,1,1,5,3,4,0,2,0,250.0,train,4,M
528.220891953,3,1000,3,0,1,5,3,4,0,2,0,250.0,train,2,M
655.646085739,0,1000,5,1,1,5,3,4,0,2,0,250.0,train,0,M
623.497962952,4,1000,2,1,1,5,3,4,0,2,0,250.0,train,4,M
511.790037155,0,1000,5,1,1,5,3,4,0,2,0,250.0,train,0,M
496.300935745,1,1000,1,1,1,5,3,4,0,2,0,250.0,train,1,M
543.901920319,1,1000,1,1,1,5,3,4,0,2,0,250.0,train,1,M
815.551996231,4,1000,2,1,1,5,3,4,0,2,0,250.0,train,4,M
447.280168533,4,1000,2,1,1,5,3,4,0,2,0,250.0,train,4,M
496.438980103,3,1000,3,0,1,5,3,4,0,2,0,250.0,train,4,M
639.570951462,0,1000,5,1,1,5,3,4,0,2,0,250.0,train,0,M
559.668064117,5,1000,0,1,1,5,3,4,0,2,0,250.0,train,5,M
511.719942093,0,1000,5,1,1,5,3,4,0,2,0,250.0,train,0,M
671.86498642,0,1000,5,1,1,5,3,4,0,2,0,250.0,train,0,M
415.910959244,1,1000,1,1,1,5,3,4,0,2,0,250.0,train,1,M
640.403985977,3,1000,3,1,1,5,3,4,0,2,0,250.0,train,3,M
496.469020844,1,1000,1,1,1,5,3,4,0,2,0,250.0,train,1,M
656.535863876,3,1000,3,1,1,5,3,4,0,2,0,250.0,train,3,M
496.866941452,5,1000,0,1,1,5,3,4,0,2,0,250.0,train,5,M
528.380155563,1,1000,1,0,1,5,3,4,0,2,0,250.0,train,0,M
912.357807159,4,1000,2,1,1,5,3,4,0,2,0,250.0,train,4,M
656.340122223,2,1000,4,1,1,5,3,4,0,2,0,250.0,train,2,M
592.464923859,4,1000,2,1,1,5,3,4,0,2,0,250.0,train,4,M
847.450971603,2,1000,4,1,1,5,3,4,0,2,0,250.0,train,2,M
751.718044281,3,1000,3,1,1,5,3,4,0,2,0,250.0,train,3,M
607.352972031,5,1000,0,1,1,5,3,4,0,2,0,250.0,train,5,M
544.00396347,1,1000,1,1,1,5,3,4,0,2,0,250.0,train,1,M
368.345975876,2,1000,4,1,1,5,3,4,0,2,0,250.0,train,2,M
448.126077652,2,1000,4,0,1,5,3,4,0,2,0,250.0,train,1,M
543.982982635,0,1000,5,1,1,5,3,4,0,2,0,250.0,train,0,M
815.622091293,4,1000,2,1,1,5,3,4,0,2,0,250.0,train,4,M
544.271945953,0,1000,5,1,1,5,3,4,0,2,0,250.0,train,0,M
496.402978897,5,1000,0,1,1,5,3,4,0,2,0,250.0,train,5,M
640.281200409,3,1000,3,1,1,5,3,4,0,2,0,250.0,train,3,M
607.76591301,0,1000,5,1,1,5,3,4,0,2,0,250.0,train,0,M
495.604038239,0,1000,5,1,1,5,3,4,0,2,0,250.0,train,0,M
559.537172318,5,1000,0,1,1,5,3,4,0,2,0,250.0,train,5,M
463.589906693,4,1000,2,1,1,5,3,4,0,2,0,250.0,train,4,M
480.088949203,2,1000,4,1,1,5,3,4,0,2,0,250.0,train,2,M
560.832977295,5,1000,0,1,1,5,3,4,0,2,0,250.0,train,5,M
511.783123016,1,1000,1,1,1,5,3,4,0,2,0,250.0,train,1,M
592.833042145,3,1000,3,1,1,5,3,4,0,2,0,250.0,train,3,M
543.766975403,5,1000,0,1,1,5,3,4,0,2,0,250.0,train,5,M
656.02517128,1,1000,1,1,1,5,3,4,0,2,0,250.0,train,1,M
527.765989304,3,1000,3,1,1,5,3,4,0,2,0,250.0,train,3,M
351.563930511,4,1000,2,1,1,5,3,4,0,2,0,250.0,train,4,M
463.645219803,0,1000,5,1,1,5,3,4,0,2,0,250.0,train,0,M
447.601079941,1,1000,1,1,1,5,3,4,0,2,0,250.0,train,1,M
463.782072067,2,1000,4,1,1,5,3,4,0,2,0,250.0,train,2,M
399.639129639,3,1000,3,1,1,5,3,4,0,2,0,250.0,train,3,M
464.107990265,1,1000,1,1,1,5,3,4,0,2,0,250.0,train,1,M
463.261842728,5,1000,0,1,1,5,3,4,0,2,0,250.0,train,5,M
543.578147888,1,1000,1,1,1,5,3,4,0,2,0,250.0,train,1,M
463.600873947,2,1000,4,1,1,5,3,4,0,2,0,250.0,train,2,M
464.53499794,2,1000,4,1,1,5,3,4,0,2,0,250.0,train,2,M
447.642087936,2,1000,4,1,1,5,3,4,0,2,0,250.0,train,2,M
527.614116669,5,1000,0,1,1,5,3,4,0,2,0,250.0,train,5,M
463.905096054,5,1000,0,1,1,5,3,4,0,2,0,250.0,train,5,M
400.655031204,4,1000,2,1,1,5,3,4,0,2,0,250.0,train,4,M
480.355978012,4,1000,2,1,1,5,3,4,0,2,0,250.0,train,4,M
544.381856918,0,1000,5,1,1,5,3,4,0,2,0,250.0,train,0,M
479.606866837,0,1000,5,1,1,5,3,4,0,2,0,250.0,train,0,M
367.900848389,0,1000,5,1,1,5,3,4,0,2,0,250.0,train,0,M
368.232011795,0,1000,5,1,1,5,3,4,0,2,0,250.0,train,0,M
464.329004288,5,1000,0,1,1,5,3,4,0,2,0,250.0,train,5,M
415.79413414,1,1000,1,1,1,5,3,4,0,2,0,250.0,train,1,M
384.823799133,3,1000,3,0,1,5,3,4,0,2,0,250.0,train,4,M
688.206911087,2,1000,4,1,1,5,3,4,0,2,0,250.0,train,2,M
464.260101318,0,1000,5,1,1,5,3,4,0,2,0,250.0,train,0,M
416.356086731,2,1000,4,1,1,5,3,4,0,2,0,250.0,train,2,M
656.370162964,3,1000,3,1,1,5,3,4,0,2,0,250.0,train,3,M
559.363126755,2,1000,4,1,1,5,3,4,0,2,0,250.0,train,2,M
592.561006546,4,1000,2,0,1,5,3,4,0,2,0,250.0,train,3,M
528.939008713,5,1000,0,1,1,5,3,4,0,2,0,250.0,train,5,M
512.360095978,2,1000,4,1,1,5,3,4,0,2,0,250.0,train,2,M
544.547080994,3,1000,3,1,1,5,3,4,0,2,0,250.0,train,3,M
511.724948883,2,1000,4,1,1,5,3,4,0,2,0,250.0,train,2,M
447.783946991,1,1000,1,1,1,5,3,4,0,2,0,250.0,train,1,M
431.505918503,4,1000,2,0,1,5,3,4,0,2,0,250.0,train,5,M
478.850841522,2,1000,4,1,1,5,3,4,0,2,0,250.0,train,2,M
479.627132416,5,1000,0,1,1,5,3,4,0,2,0,250.0,train,5,M
447.449922562,5,1000,0,1,1,5,3,4,0,2,0,250.0,train,5,M
495.860099792,2,1000,4,0,1,5,3,4,0,2,0,250.0,train,3,M
576.60317421,1,1000,1,1,1,5,3,4,0,2,0,250.0,train,1,M
1039.45112228,3,1000,3,1,1,5,3,4,0,2,0,250.0,train,3,M
543.394088745,5,1000,0,1,1,5,3,4,0,2,0,250.0,train,5,M
576.138973236,1,1000,1,1,1,5,3,4,0,2,0,250.0,train,1,M
512.461185455,3,1000,3,1,1,5,3,4,0,2,0,250.0,train,3,M
480.965852737,3,1000,3,1,1,5,3,4,0,2,0,250.0,train,3,M
480.406045914,1,1000,1,1,1,5,3,4,0,2,0,250.0,train,1,M
399.993896484,0,1000,5,1,1,5,3,4,0,2,0,250.0,train,0,M
495.817899704,2,1000,4,0,1,5,3,4,0,2,0,250.0,train,0,M
511.534929276,0,1000,5,1,1,5,3,4,0,2,0,250.0,train,0,M
416.257143021,1,1000,1,1,1,5,3,4,0,2,0,250.0,train,1,M
336.39383316,2,1000,4,1,1,5,3,4,0,2,0,250.0,train,2,M
672.355175018,4,1000,2,1,1,5,3,4,0,2,0,250.0,train,4,M
528.047800064,2,1000,4,0,1,5,3,4,0,2,0,250.0,train,1,M
479.598999023,2,1000,4,1,1,5,3,4,0,2,0,250.0,train,2,M
495.414972305,1,1000,1,1,1,5,3,4,0,2,0,250.0,train,1,M
416.450023651,0,1000,5,1,1,5,3,4,0,2,0,250.0,train,0,M
832.427978516,4,1000,2,1,1,5,3,4,0,2,0,250.0,train,4,M
576.366901398,1,1000,1,1,1,5,3,4,0,2,0,250.0,train,1,M
671.816110611,2,1000,4,1,1,5,3,4,0,2,0,250.0,train,2,M
767.986059189,2,1000,4,1,1,5,3,4,0,2,0,250.0,train,2,M
527.256011963,5,1000,0,1,1,5,3,4,0,2,0,250.0,train,5,M
528.712034225,5,1000,0,1,1,5,3,4,0,2,0,250.0,train,5,M
687.54196167,2,1000,4,1,1,5,3,4,0,2,0,250.0,train,2,M
512.130022049,2,1000,4,1,1,5,3,4,0,2,0,250.0,train,2,M
432.543992996,2,1000,4,1,1,5,3,4,0,2,0,250.0,train,2,M
384.903907776,2,1000,4,1,1,5,3,4,0,2,0,250.0,train,2,M
463.621139526,0,1000,5,1,1,5,3,4,0,2,0,250.0,train,0,M
496.076107025,2,1000,4,1,1,5,3,4,0,2,0,250.0,train,2,M
432.383060455,0,1000,5,1,1,5,3,4,0,2,0,250.0,train,0,M
336.141109467,0,1000,5,1,1,5,3,4,0,2,0,250.0,train,0,M
383.974075317,0,1000,5,1,1,5,3,4,0,2,0,250.0,train,0,M
431.55503273,1,1000,1,1,1,5,3,4,0,2,0,250.0,train,1,M
544.131040573,5,1000,0,1,1,5,3,4,0,2,0,250.0,train,5,M
447.730064392,0,1000,5,0,1,5,3,4,0,2,0,250.0,train,3,M
431.604146957,0,1000,5,1,1,5,3,4,0,2,0,250.0,train,0,M
416.033983231,0,1000,5,1,1,5,3,4,0,2,0,250.0,train,0,M
560.82201004,2,1000,4,1,1,5,3,4,0,2,0,250.0,train,2,M
447.587013245,0,1000,5,1,1,5,3,4,0,2,0,250.0,train,0,M
511.814832687,1,1000,1,1,1,5,3,4,0,2,0,250.0,train,1,M
560.456037521,2,1000,4,1,1,5,3,4,0,2,0,250.0,train,2,M
480.596065521,1,1000,1,1,1,5,3,4,0,2,0,250.0,train,1,M
416.507005692,0,1000,5,1,1,5,3,4,0,2,0,250.0,train,0,M
512.472867966,5,1000,0,1,1,5,3,4,0,2,0,250.0,train,5,M
432.558059692,5,1000,0,1,1,5,3,4,0,2,0,250.0,train,5,M
640.535116196,2,1000,4,1,1,5,3,4,0,2,0,250.0,train,2,M
528.513908386,0,1000,5,1,1,5,3,4,0,2,0,250.0,train,0,M
832.504987717,3,1000,3,1,1,5,3,4,0,2,0,250.0,train,3,M
560.362100601,5,1000,0,1,1,5,3,4,0,2,0,250.0,train,5,M
560.460090637,3,1000,3,1,1,5,3,4,0,2,0,250.0,train,3,M
720.006942749,3,1000,3,0,1,5,3,4,0,2,0,250.0,train,2,M
576.905012131,5,1000,0,1,1,5,3,4,0,2,0,250.0,train,5,M
592.434883118,5,1000,0,1,1,5,3,4,0,2,0,250.0,train,5,M
816.442966461,2,1000,4,1,1,5,3,4,0,2,0,250.0,train,2,M
576.826095581,1,1000,1,1,1,5,3,4,0,2,0,250.0,train,1,M
464.453935623,0,1000,5,1,1,5,3,4,0,2,0,250.0,train,0,M
464.391946793,1,1000,1,1,1,5,3,4,0,2,0,250.0,train,1,M
592.366933823,3,1000,3,0,1,5,3,4,0,2,0,250.0,train,4,M
576.309919357,2,1000,4,1,1,5,3,4,0,2,0,250.0,train,2,M
512.927055359,1,1000,1,1,1,5,3,4,0,2,0,250.0,train,1,M
544.564962387,5,1000,0,1,1,5,3,4,0,2,0,250.0,train,5,M
576.287031174,3,1000,3,0,1,5,3,4,0,2,0,250.0,train,2,M
672.430038452,4,1000,2,1,1,5,3,4,0,2,0,250.0,train,4,M
448.438882828,3,1000,3,1,1,5,3,4,0,2,0,250.0,train,3,M
544.535160065,2,1000,4,1,1,5,3,4,0,2,0,250.0,train,2,M
480.54599762,0,1000,5,1,1,5,3,4,0,2,0,250.0,train,0,M
576.509952545,2,1000,4,1,1,5,3,4,0,2,0,250.0,train,2,M
480.967998505,0,1000,5,1,1,5,3,4,0,2,0,250.0,train,0,M
639.575004578,3,1000,3,1,1,5,3,4,0,2,0,250.0,train,3,M
512.824058533,3,1000,3,1,1,5,3,4,0,2,0,250.0,train,3,M
575.584173203,4,1000,2,1,1,5,3,4,0,2,0,250.0,train,4,M
512.892007828,0,1000,5,1,1,5,3,4,0,2,0,250.0,train,0,M
576.472997665,5,1000,0,1,1,5,3,4,0,2,0,250.0,train,5,M
480.442047119,2,1000,4,1,1,5,3,4,0,2,0,250.0,train,2,M
512.565851212,2,1000,4,1,1,5,3,4,0,2,0,250.0,train,2,M
480.458021164,1,1000,1,1,1,5,3,4,0,2,0,250.0,train,1,M
528.460979462,5,1000,0,1,1,5,3,4,0,2,0,250.0,train,5,M
720.504999161,1,1000,1,1,1,5,3,4,0,2,0,250.0,train,1,M
528.469085693,2,1000,4,1,1,5,3,4,0,2,0,250.0,train,2,M
672.585010529,4,1000,2,1,1,5,3,4,0,2,0,250.0,train,4,M
704.564809799,4,1000,2,1,1,5,3,4,0,2,0,250.0,train,4,M
448.513031006,0,1000,5,1,1,5,3,4,0,2,0,250.0,train,0,M
464.537143707,2,1000,4,1,1,5,3,4,0,2,0,250.0,train,2,M
496.713161469,0,1000,5,1,1,5,3,4,0,2,0,250.0,train,0,M
464.470863342,3,1000,3,0,1,5,3,4,0,2,0,250.0,train,2,M
624.958992004,3,1000,3,1,1,5,3,4,0,2,0,250.0,train,3,M
464.465141296,4,1000,2,1,1,5,3,4,0,2,0,250.0,train,4,M
608.508825302,2,1000,4,1,1,5,3,4,0,2,0,250.0,train,2,M
832.518100739,5,1000,0,0,1,5,3,4,0,2,0,250.0,train,3,M
560.338973999,0,1000,5,1,1,5,3,4,0,2,0,250.0,train,0,M
928.553104401,4,1000,2,1,1,5,3,4,0,2,0,250.0,train,4,M
608.323097229,1,1000,1,1,1,5,3,4,0,2,0,250.0,train,1,M
496.401786804,0,1000,5,1,1,5,3,4,0,2,0,250.0,train,0,M
720.504045486,3,1000,3,1,1,5,3,4,0,2,0,250.0,train,3,M
496.374845505,1,1000,1,1,1,5,3,4,0,2,0,250.0,train,1,M
464.458942413,0,1000,5,1,1,5,3,4,0,2,0,250.0,train,0,M
480.429887772,0,1000,5,1,1,5,3,4,0,2,0,250.0,train,0,M
655.500888824,2,1000,4,1,1,5,3,4,0,2,0,250.0,train,2,M
528.846979141,3,1000,3,1,1,5,3,4,0,2,0,250.0,train,3,M
480.418205261,1,1000,1,1,1,5,3,4,0,2,0,250.0,train,1,M
592.518806458,1,1000,1,1,1,5,3,4,0,2,0,250.0,train,1,M
480.311155319,1,1000,1,1,1,5,3,4,0,2,0,250.0,train,1,M
448.529958725,0,1000,5,1,1,5,3,4,0,2,0,250.0,train,0,M
433.129787445,3,1000,3,0,1,5,3,4,0,2,0,250.0,train,0,M
416.328191757,3,1000,3,1,1,5,3,4,0,2,0,250.0,train,3,M
560.796976089,2,1000,4,1,1,5,3,4,0,2,0,250.0,train,2,M
560.525894165,5,1000,0,1,1,5,3,4,0,2,0,250.0,train,5,M
368.935108185,5,1000,0,1,1,5,3,4,0,2,0,250.0,train,5,M
512.456893921,3,1000,3,1,1,5,3,4,0,2,0,250.0,train,3,M
432.161808014,3,1000,3,1,1,5,3,4,0,2,0,250.0,train,3,M
416.037797928,3,1000,3,1,1,5,3,4,0,2,0,250.0,train,3,M
496.714115143,1,1000,1,1,1,5,3,4,0,2,0,250.0,train,1,M
640.106916428,3,1000,3,1,1,5,3,4,0,2,0,250.0,train,3,M
447.792053223,0,1000,5,1,1,5,3,4,0,2,0,250.0,train,0,M
479.834079742,2,1000,4,1,1,5,3,4,0,2,0,250.0,train,2,M
496.791124344,3,1000,3,1,1,5,3,4,0,2,0,250.0,train,3,M
351.78399086,1,1000,1,1,1,5,3,4,0,2,0,250.0,train,1,M
512.841939926,5,1000,0,0,1,5,3,4,0,2,0,250.0,train,3,M
512.777090073,1,1000,1,1,1,5,3,4,0,2,0,250.0,train,1,M
544.030189514,5,1000,0,1,1,5,3,4,0,2,0,250.0,train,5,M
688.919067383,2,1000,4,1,1,5,3,4,0,2,0,250.0,train,2,M
3216.340065,5,1000,0,1,1,5,3,4,0,2,0,250.0,test,5,M
1568.23587418,0,1000,5,1,1,5,3,4,0,2,0,250.0,test,0,M
960.49284935,5,1000,0,1,1,5,3,4,0,2,0,250.0,test,5,M
1856.36210442,2,1000,4,1,1,5,3,4,0,2,0,250.0,test,2,M
1120.41401863,3,1000,3,1,1,5,3,4,0,2,0,250.0,test,3,M
832.354784012,0,1000,5,0,1,5,3,4,0,2,0,250.0,test,5,M
399.897098541,0,1000,5,1,1,5,3,4,0,2,0,250.0,test,0,M
976.393938065,3,1000,3,1,1,5,3,4,0,2,0,250.0,test,3,M
1312.27087975,4,1000,2,1,1,5,3,4,0,2,0,250.0,test,4,M
1056.28609657,3,1000,3,1,1,5,3,4,0,2,0,250.0,test,3,M
880.45501709,2,1000,4,0,1,5,3,4,0,2,0,250.0,test,1,M
1472.29909897,3,1000,3,1,1,5,3,4,0,2,0,250.0,test,3,M
608.431816101,3,1000,3,1,1,5,3,4,0,2,0,250.0,test,3,M
639.930963516,0,1000,5,1,1,5,3,4,0,2,0,250.0,test,0,M
1472.44215012,5,1000,0,1,1,5,3,4,0,2,0,250.0,test,5,M
1088.34791183,2,1000,4,1,1,5,3,4,0,2,0,250.0,test,2,M
848.490953445,4,1000,2,0,1,5,3,4,0,2,0,250.0,test,3,M
1408.30183029,1,1000,1,1,1,5,3,4,0,2,0,250.0,test,1,M
1088.43898773,4,1000,2,1,1,5,3,4,0,2,0,250.0,test,4,M
816.3189888,2,1000,4,0,1,5,3,4,0,2,0,250.0,test,5,M
480.218172073,5,1000,0,1,1,5,3,4,0,2,0,250.0,test,5,M
480.252981186,5,1000,0,1,1,5,3,4,0,2,0,250.0,test,5,M
896.903038025,1,1000,1,1,1,5,3,4,0,2,0,250.0,test,1,M
896.3971138,4,1000,2,1,1,5,3,4,0,2,0,250.0,test,4,M
624.418973923,1,1000,1,1,1,5,3,4,0,2,0,250.0,test,1,M
448.423862457,1,1000,1,1,1,5,3,4,0,2,0,250.0,test,1,M
1024.44386482,2,1000,4,1,1,5,3,4,0,2,0,250.0,test,2,M
1168.30801964,3,1000,3,1,1,5,3,4,0,2,0,250.0,test,3,M
416.321992874,3,1000,3,1,1,5,3,4,0,2,0,250.0,test,3,M
544.300079346,1,1000,1,1,1,5,3,4,0,2,0,250.0,test,1,M
575.914144516,1,1000,1,1,1,5,3,4,0,2,0,250.0,test,1,M
448.334932327,1,1000,1,1,1,5,3,4,0,2,0,250.0,test,1,M
512.309789658,5,1000,0,1,1,5,3,4,0,2,0,250.0,test,5,M
752.487182617,2,1000,4,1,1,5,3,4,0,2,0,250.0,test,2,M
688.401937485,2,1000,4,1,1,5,3,4,0,2,0,250.0,test,2,M
560.153961182,4,1000,2,0,1,5,3,4,0,2,0,250.0,test,2,M
609.110116959,5,1000,0,1,1,5,3,4,0,2,0,250.0,test,5,M
720.325946808,3,1000,3,1,1,5,3,4,0,2,0,250.0,test,3,M
479.968070984,5,1000,0,1,1,5,3,4,0,2,0,250.0,test,5,M
1264.32609558,4,1000,2,1,1,5,3,4,0,2,0,250.0,test,4,M
608.488082886,1,1000,1,1,1,5,3,4,0,2,0,250.0,test,1,M
400.444984436,3,1000,3,0,1,5,3,4,0,2,0,250.0,test,0,M
608.284235001,0,1000,5,1,1,5,3,4,0,2,0,250.0,test,0,M
640.273094177,3,1000,3,1,1,5,3,4,0,2,0,250.0,test,3,M
560.342073441,4,1000,2,0,1,5,3,4,0,2,0,250.0,test,1,M
1664.25800323,4,1000,2,1,1,5,3,4,0,2,0,250.0,test,4,M
688.354969025,2,1000,4,1,1,5,3,4,0,2,0,250.0,test,2,M
608.180046082,4,1000,2,0,1,5,3,4,0,2,0,250.0,test,1,M
1120.26906013,2,1000,4,1,1,5,3,4,0,2,0,250.0,test,2,M
1248.25787544,2,1000,4,0,1,5,3,4,0,2,0,250.0,test,5,M
624.351024628,5,1000,0,1,1,5,3,4,0,2,0,250.0,test,5,M
688.338041306,2,1000,4,0,1,5,3,4,0,2,0,250.0,test,5,M
656.165122986,5,1000,0,1,1,5,3,4,0,2,0,250.0,test,5,M
751.872062683,3,1000,3,1,1,5,3,4,0,2,0,250.0,test,3,M
608.283996582,0,1000,5,1,1,5,3,4,0,2,0,250.0,test,0,M
512.288093567,1,1000,1,1,1,5,3,4,0,2,0,250.0,test,1,M
832.401037216,2,1000,4,1,1,5,3,4,0,2,0,250.0,test,2,M
704.413890839,4,1000,2,1,1,5,3,4,0,2,0,250.0,test,4,M
544.486045837,0,1000,5,1,1,5,3,4,0,2,0,250.0,test,0,M
528.412103653,5,1000,0,1,1,5,3,4,0,2,0,250.0,test,5,M
480.494976044,1,1000,1,1,1,5,3,4,0,2,0,250.0,test,1,M
512.439966202,0,1000,5,1,1,5,3,4,0,2,0,250.0,test,0,M
1072.51286507,2,1000,4,1,1,5,3,4,0,2,0,250.0,test,2,M
640.433073044,3,1000,3,1,1,5,3,4,0,2,0,250.0,test,3,M
576.076984406,5,1000,0,1,1,5,3,4,0,2,0,250.0,test,5,M
816.638946533,3,1000,3,1,1,5,3,4,0,2,0,250.0,test,3,M
1024.39522743,2,1000,4,1,1,5,3,4,0,2,0,250.0,test,2,M
576.333999634,1,1000,1,1,1,5,3,4,0,2,0,250.0,test,1,M
784.346103668,4,1000,2,1,1,5,3,4,0,2,0,250.0,test,4,M
528.393030167,5,1000,0,1,1,5,3,4,0,2,0,250.0,test,5,M
528.394937515,0,1000,5,1,1,5,3,4,0,2,0,250.0,test,0,M
496.434926987,5,1000,0,1,1,5,3,4,0,2,0,250.0,test,5,M
784.254074097,3,1000,3,1,1,5,3,4,0,2,0,250.0,test,3,M
576.343774796,0,1000,5,1,1,5,3,4,0,2,0,250.0,test,0,M
496.469020844,5,1000,0,1,1,5,3,4,0,2,0,250.0,test,5,M
976.39799118,2,1000,4,0,1,5,3,4,0,2,0,250.0,test,1,M
544.406175613,1,1000,1,1,1,5,3,4,0,2,0,250.0,test,1,M
784.525156021,1,1000,1,1,1,5,3,4,0,2,0,250.0,test,1,M
656.42619133,0,1000,5,1,1,5,3,4,0,2,0,250.0,test,0,M
1248.40497971,4,1000,2,1,1,5,3,4,0,2,0,250.0,test,4,M
528.417110443,4,1000,2,1,1,5,3,4,0,2,0,250.0,test,4,M
752.44808197,3,1000,3,1,1,5,3,4,0,2,0,250.0,test,3,M
560.351848602,5,1000,0,1,1,5,3,4,0,2,0,250.0,test,5,M
560.278892517,0,1000,5,1,1,5,3,4,0,2,0,250.0,test,0,M
591.896057129,3,1000,3,1,1,5,3,4,0,2,0,250.0,test,3,M
544.412136078,2,1000,4,0,1,5,3,4,0,2,0,250.0,test,4,M
432.301998138,2,1000,4,1,1,5,3,4,0,2,0,250.0,test,2,M
576.387166977,5,1000,0,1,1,5,3,4,0,2,0,250.0,test,5,M
448.333978653,5,1000,0,1,1,5,3,4,0,2,0,250.0,test,5,M
560.348033905,2,1000,4,1,1,5,3,4,0,2,0,250.0,test,2,M
960.430860519,3,1000,3,1,1,5,3,4,0,2,0,250.0,test,3,M
896.47603035,1,1000,1,1,1,5,3,4,0,2,0,250.0,test,1,M
704.376220703,2,1000,4,1,1,5,3,4,0,2,0,250.0,test,2,M
592.391967773,5,1000,0,1,1,5,3,4,0,2,0,250.0,test,5,M
752.486944199,4,1000,2,1,1,5,3,4,0,2,0,250.0,test,4,M
544.443130493,0,1000,5,1,1,5,3,4,0,2,0,250.0,test,0,M
560.370922089,0,1000,5,1,1,5,3,4,0,2,0,250.0,test,0,M
928.434848785,1,1000,1,1,1,5,3,4,0,2,0,250.0,test,1,M
495.965003967,1,1000,1,1,1,5,3,4,0,2,0,250.0,test,1,M
544.368028641,2,1000,4,1,1,5,3,4,0,2,0,250.0,test,2,M
527.990102768,3,1000,3,1,1,5,3,4,0,2,0,250.0,test,3,M
544.291973114,5,1000,0,1,1,5,3,4,0,2,0,250.0,test,5,M
528.475046158,4,1000,2,1,1,5,3,4,0,2,0,250.0,test,4,M
544.359922409,4,1000,2,1,1,5,3,4,0,2,0,250.0,test,4,M
416.320800781,4,1000,2,1,1,5,3,4,0,2,0,250.0,test,4,M
464.48302269,3,1000,3,1,1,5,3,4,0,2,0,250.0,test,3,M
560.413837433,5,1000,0,1,1,5,3,4,0,2,0,250.0,test,5,M
608.484983444,0,1000,5,1,1,5,3,4,0,2,0,250.0,test,0,M
592.330932617,2,1000,4,1,1,5,3,4,0,2,0,250.0,test,2,M
768.398046494,4,1000,2,1,1,5,3,4,0,2,0,250.0,test,4,M
512.300014496,3,1000,3,0,1,5,3,4,0,2,0,250.0,test,2,M
560.276985168,5,1000,0,1,1,5,3,4,0,2,0,250.0,test,5,M
960.313796997,1,1000,1,1,1,5,3,4,0,2,0,250.0,test,1,M
560.307979584,3,1000,3,1,1,5,3,4,0,2,0,250.0,test,3,M
608.306884766,1,1000,1,1,1,5,3,4,0,2,0,250.0,test,1,M
672.344923019,2,1000,4,1,1,5,3,4,0,2,0,250.0,test,2,M
528.288125992,5,1000,0,1,1,5,3,4,0,2,0,250.0,test,5,M
528.35392952,3,1000,3,1,1,5,3,4,0,2,0,250.0,test,3,M
544.407129288,1,1000,1,1,1,5,3,4,0,2,0,250.0,test,1,M
544.448137283,2,1000,4,1,1,5,3,4,0,2,0,250.0,test,2,M
592.491149902,5,1000,0,1,1,5,3,4,0,2,0,250.0,test,5,M
576.212882996,4,1000,2,1,1,5,3,4,0,2,0,250.0,test,4,M
527.899026871,3,1000,3,0,1,5,3,4,0,2,0,250.0,test,4,M
560.377836227,0,1000,5,1,1,5,3,4,0,2,0,250.0,test,0,M
640.383958817,1,1000,1,1,1,5,3,4,0,2,0,250.0,test,1,M
528.454065323,3,1000,3,1,1,5,3,4,0,2,0,250.0,test,3,M
527.966022491,3,1000,3,1,1,5,3,4,0,2,0,250.0,test,3,M
688.152074814,4,1000,2,1,1,5,3,4,0,2,0,250.0,test,4,M
480.279922485,4,1000,2,1,1,5,3,4,0,2,0,250.0,test,4,M
384.345054626,3,1000,3,1,1,5,3,4,0,2,0,250.0,test,3,M
544.278860092,0,1000,5,1,1,5,3,4,0,2,0,250.0,test,0,M
512.175798416,4,1000,2,0,1,5,3,4,0,2,0,250.0,test,3,M
592.266082764,2,1000,4,1,1,5,3,4,0,2,0,250.0,test,2,M
960.382223129,5,1000,0,1,1,5,3,4,0,2,0,250.0,test,5,M
544.436216354,0,1000,5,1,1,5,3,4,0,2,0,250.0,test,0,M
672.4858284,3,1000,3,1,1,5,3,4,0,2,0,250.0,test,3,M
960.525035858,1,1000,1,1,1,5,3,4,0,2,0,250.0,test,1,M
560.311079025,3,1000,3,1,1,5,3,4,0,2,0,250.0,test,3,M
608.312129974,5,1000,0,1,1,5,3,4,0,2,0,250.0,test,5,M
1168.24603081,1,1000,1,1,1,5,3,4,0,2,0,250.0,test,1,M
432.03496933,1,1000,1,1,1,5,3,4,0,2,0,250.0,test,1,M
544.64507103,0,1000,5,1,1,5,3,4,0,2,0,250.0,test,0,M
608.278036118,3,1000,3,1,1,5,3,4,0,2,0,250.0,test,3,M
528.427839279,5,1000,0,1,1,5,3,4,0,2,0,250.0,test,5,M
528.481960297,0,1000,5,1,1,5,3,4,0,2,0,250.0,test,0,M
560.335159302,1,1000,1,1,1,5,3,4,0,2,0,250.0,test,1,M
528.042078018,5,1000,0,1,1,5,3,4,0,2,0,250.0,test,5,M
432.731866837,5,1000,0,1,1,5,3,4,0,2,0,250.0,test,5,M
608.716011047,3,1000,3,1,1,5,3,4,0,2,0,250.0,test,3,M
512.635946274,2,1000,4,0,1,5,3,4,0,2,0,250.0,test,1,M
496.246099472,2,1000,4,1,1,5,3,4,0,2,0,250.0,test,2,M
1984.333992,5,1000,0,0,1,5,3,4,0,2,0,250.0,test,4,M
592.252969742,0,1000,5,1,1,5,3,4,0,2,0,250.0,test,0,M
672.289848328,2,1000,4,1,1,5,3,4,0,2,0,250.0,test,2,M
464.292049408,1,1000,1,0,1,5,3,4,0,2,0,250.0,test,0,M
736.256122589,2,1000,4,1,1,5,3,4,0,2,0,250.0,test,2,M
528.2330513,0,1000,5,1,1,5,3,4,0,2,0,250.0,test,0,M
560.281991959,4,1000,2,0,1,5,3,4,0,2,0,250.0,test,1,M
560.24813652,3,1000,3,0,1,5,3,4,0,2,0,250.0,test,2,M
432.237863541,3,1000,3,1,1,5,3,4,0,2,0,250.0,test,3,M
528.339862823,5,1000,0,1,1,5,3,4,0,2,0,250.0,test,5,M
1408.34593773,1,1000,1,1,1,5,3,4,0,2,0,250.0,test,1,M
528.33199501,1,1000,1,1,1,5,3,4,0,2,0,250.0,test,1,M
752.379894257,4,1000,2,1,1,5,3,4,0,2,0,250.0,test,4,M
512.249946594,3,1000,3,1,1,5,3,4,0,2,0,250.0,test,3,M
448.379993439,5,1000,0,1,1,5,3,4,0,2,0,250.0,test,5,M
624.37415123,5,1000,0,1,1,5,3,4,0,2,0,250.0,test,5,M
576.401948929,2,1000,4,1,1,5,3,4,0,2,0,250.0,test,2,M
640.2759552,2,1000,4,1,1,5,3,4,0,2,0,250.0,test,2,M
512.305021286,4,1000,2,1,1,5,3,4,0,2,0,250.0,test,4,M
528.277873993,0,1000,5,1,1,5,3,4,0,2,0,250.0,test,0,M
480.427026749,3,1000,3,0,1,5,3,4,0,2,0,250.0,test,1,M
672.319889069,2,1000,4,1,1,5,3,4,0,2,0,250.0,test,2,M
496.910095215,2,1000,4,1,1,5,3,4,0,2,0,250.0,test,2,M
592.336893082,5,1000,0,1,1,5,3,4,0,2,0,250.0,test,5,M
592.42105484,0,1000,5,1,1,5,3,4,0,2,0,250.0,test,0,M
624.442100525,5,1000,0,1,1,5,3,4,0,2,0,250.0,test,5,M
512.442111969,1,1000,1,1,1,5,3,4,0,2,0,250.0,test,1,M
544.399023056,3,1000,3,1,1,5,3,4,0,2,0,250.0,test,3,M
528.423070908,1,1000,1,1,1,5,3,4,0,2,0,250.0,test,1,M
496.436834335,1,1000,1,0,1,5,3,4,0,2,0,250.0,test,2,M
624.258995056,0,1000,5,1,1,5,3,4,0,2,0,250.0,test,0,M
608.344078064,3,1000,3,1,1,5,3,4,0,2,0,250.0,test,3,M
1088.36603165,4,1000,2,1,1,5,3,4,0,2,0,250.0,test,4,M
592.643022537,2,1000,4,0,1,5,3,4,0,2,0,250.0,test,5,M
832.421779633,1,1000,1,1,1,5,3,4,0,2,0,250.0,test,1,M
512.398958206,1,1000,1,1,1,5,3,4,0,2,0,250.0,test,1,M
383.920907974,1,1000,1,1,1,5,3,4,0,2,0,250.0,test,1,M
624.394893646,0,1000,5,1,1,5,3,4,0,2,0,250.0,test,0,M
607.443094254,2,1000,4,1,1,5,3,4,0,2,0,250.0,test,2,M
367.94090271,1,1000,1,1,1,5,3,4,0,2,0,250.0,test,1,M
496.277809143,1,1000,1,1,1,5,3,4,0,2,0,250.0,test,1,M
416.429042816,1,1000,1,1,1,5,3,4,0,2,0,250.0,test,1,M
576.313018799,2,1000,4,1,1,5,3,4,0,2,0,250.0,test,2,M
528.281927109,5,1000,0,1,1,5,3,4,0,2,0,250.0,test,5,M
544.318914413,0,1000,5,1,1,5,3,4,0,2,0,250.0,test,0,M
432.311058044,0,1000,5,1,1,5,3,4,0,2,0,250.0,test,0,M
560.492038727,3,1000,3,1,1,5,3,4,0,2,0,250.0,test,3,M
560.395002365,5,1000,0,1,1,5,3,4,0,2,0,250.0,test,5,M
704.344987869,2,1000,4,0,1,5,3,4,0,2,0,250.0,test,5,M
432.368993759,2,1000,4,1,1,5,3,4,0,2,0,250.0,test,2,M
544.292926788,5,1000,0,1,1,5,3,4,0,2,0,250.0,test,5,M
496.226072311,3,1000,3,1,1,5,3,4,0,2,0,250.0,test,3,M
512.281894684,1,1000,1,1,1,5,3,4,0,2,0,250.0,test,1,M
512.83788681,4,1000,2,1,1,5,3,4,0,2,0,250.0,test,4,M
528.401851654,5,1000,0,1,1,5,3,4,0,2,0,250.0,test,5,M
640.456914902,3,1000,3,1,1,5,3,4,0,2,0,250.0,test,3,M
624.372005463,0,1000,5,1,1,5,3,4,0,2,0,250.0,test,0,M
687.968015671,2,1000,4,1,1,5,3,4,0,2,0,250.0,test,2,M
496.167898178,5,1000,0,1,1,5,3,4,0,2,0,250.0,test,5,M
512.042999268,3,1000,3,1,1,5,3,4,0,2,0,250.0,test,3,M
576.392889023,0,1000,5,1,1,5,3,4,0,2,0,250.0,test,0,M
560.477972031,1,1000,1,1,1,5,3,4,0,2,0,250.0,test,1,M
1232.31983185,4,1000,2,1,1,5,3,4,0,2,0,250.0,test,4,M
576.38001442,5,1000,0,1,1,5,3,4,0,2,0,250.0,test,5,M
528.389930725,0,1000,5,1,1,5,3,4,0,2,0,250.0,test,0,M
544.322967529,3,1000,3,1,1,5,3,4,0,2,0,250.0,test,3,M
640.300035477,2,1000,4,0,1,5,3,4,0,2,0,250.0,test,1,M
432.204008102,2,1000,4,1,1,5,3,4,0,2,0,250.0,test,2,M
560.495138168,3,1000,3,1,1,5,3,4,0,2,0,250.0,test,3,M
480.406045914,4,1000,2,0,1,5,3,4,0,2,0,250.0,test,3,M
624.310016632,0,1000,5,1,1,5,3,4,0,2,0,250.0,test,0,M
768.397092819,2,1000,4,1,1,5,3,4,0,2,0,250.0,test,2,M
576.371908188,3,1000,3,1,1,5,3,4,0,2,0,250.0,test,3,M
592.422962189,2,1000,4,1,1,5,3,4,0,2,0,250.0,test,2,M
624.444961548,5,1000,0,1,1,5,3,4,0,2,0,250.0,test,5,M
624.387979507,0,1000,5,1,1,5,3,4,0,2,0,250.0,test,0,M
560.450077057,2,1000,4,1,1,5,3,4,0,2,0,250.0,test,2,M
640.337944031,0,1000,5,1,1,5,3,4,0,2,0,250.0,test,0,M
656.019926071,5,1000,0,1,1,5,3,4,0,2,0,250.0,test,5,M
512.338161469,1,1000,1,0,1,5,3,4,0,2,0,250.0,test,2,M
512.262821198,3,1000,3,1,1,5,3,4,0,2,0,250.0,test,3,M
511.870145798,1,1000,1,1,1,5,3,4,0,2,0,250.0,test,1,M
560.384988785,2,1000,4,1,1,5,3,4,0,2,0,250.0,test,2,M
528.591156006,1,1000,1,1,1,5,3,4,0,2,0,250.0,test,1,M
544.409036636,4,1000,2,1,1,5,3,4,0,2,0,250.0,test,4,M
512.387990952,1,1000,1,1,1,5,3,4,0,2,0,250.0,test,1,M
560.4159832,1,1000,1,0,1,5,3,4,0,2,0,250.0,test,2,M
560.286998749,0,1000,5,1,1,5,3,4,0,2,0,250.0,test,0,M
607.923984528,1,1000,1,1,1,5,3,4,0,2,0,250.0,test,1,M
432.403802872,1,1000,1,1,1,5,3,4,0,2,0,250.0,test,1,M
512.261152267,1,1000,1,1,1,5,3,4,0,2,0,250.0,test,1,M
528.372049332,0,1000,5,1,1,5,3,4,0,2,0,250.0,test,0,M
592.37408638,4,1000,2,1,1,5,3,4,0,2,0,250.0,test,4,M
608.372926712,2,1000,4,1,1,5,3,4,0,2,0,250.0,test,2,M
608.41012001,1,1000,1,1,1,5,3,4,0,2,0,250.0,test,1,M
544.248819351,4,1000,2,1,1,5,3,4,0,2,0,250.0,test,4,M
688.019990921,2,1000,4,1,1,5,3,4,0,2,0,250.0,test,2,M
544.39496994,0,1000,5,1,1,5,3,4,0,2,0,250.0,test,0,M
896.319150925,0,1000,5,1,1,5,3,4,0,2,0,250.0,test,0,M
