RT,correct_response,ms-prestimblank,curstim,correct,SRmap_1,SRmap_0,SRmap_3,SRmap_2,SRmap_5,SRmap_4,ms-precue,ntrials,type,response,condition
4526.05390549,5,600,4,1,2,0,1,4,3,5,400,250.0,train,5,E+
846.23503685,3,600,5,1,2,0,1,4,3,5,400,250.0,train,3,E+
238.806009293,3,600,5,1,2,0,1,4,3,5,400,250.0,train,3,E+
143.001794815,2,600,1,1,2,0,1,4,3,5,400,250.0,train,2,E+
111.130952835,5,600,4,1,2,0,1,4,3,5,400,250.0,train,5,E+
255.571842194,5,600,4,1,2,0,1,4,3,5,400,250.0,train,5,E+
46.9100475311,5,600,4,1,2,0,1,4,3,5,400,250.0,train,5,E+
143.504858017,2,600,1,1,2,0,1,4,3,5,400,250.0,train,2,E+
127.071142197,1,600,3,1,2,0,1,4,3,5,400,250.0,train,1,E+
47.5289821625,1,600,3,1,2,0,1,4,3,5,400,250.0,train,1,E+
47.6670265198,0,600,0,1,2,0,1,4,3,5,400,250.0,train,0,E+
141.571044922,2,600,1,1,2,0,1,4,3,5,400,250.0,train,2,E+
287.056922913,4,600,2,1,2,0,1,4,3,5,400,250.0,train,4,E+
62.2680187225,3,600,5,1,2,0,1,4,3,5,400,250.0,train,3,E+
47.6598739624,3,600,5,1,2,0,1,4,3,5,400,250.0,train,3,E+
63.453912735,0,600,0,1,2,0,1,4,3,5,400,250.0,train,0,E+
63.1430149078,5,600,4,0,2,0,1,4,3,5,400,250.0,train,3,E+
287.067174911,1,600,3,1,2,0,1,4,3,5,400,250.0,train,1,E+
62.9749298096,5,600,4,1,2,0,1,4,3,5,400,250.0,train,5,E+
223.599910736,1,600,3,1,2,0,1,4,3,5,400,250.0,train,1,E+
527.033090591,2,600,1,1,2,0,1,4,3,5,400,250.0,train,2,E+
271.153926849,2,600,1,1,2,0,1,4,3,5,400,250.0,train,2,E+
207.129955292,5,600,4,1,2,0,1,4,3,5,400,250.0,train,5,E+
271.100997925,2,600,1,1,2,0,1,4,3,5,400,250.0,train,2,E+
639.049053192,0,600,0,1,2,0,1,4,3,5,400,250.0,train,0,E+
254.840135574,2,600,1,1,2,0,1,4,3,5,400,250.0,train,2,E+
191.032886505,5,600,4,1,2,0,1,4,3,5,400,250.0,train,5,E+
223.57916832,2,600,1,1,2,0,1,4,3,5,400,250.0,train,2,E+
78.34815979,2,600,1,1,2,0,1,4,3,5,400,250.0,train,2,E+
335.049152374,0,600,0,1,2,0,1,4,3,5,400,250.0,train,0,E+
335.01791954,4,600,2,1,2,0,1,4,3,5,400,250.0,train,4,E+
239.092826843,2,600,1,1,2,0,1,4,3,5,400,250.0,train,2,E+
175.027132034,1,600,3,1,2,0,1,4,3,5,400,250.0,train,1,E+
175.524950027,5,600,4,1,2,0,1,4,3,5,400,250.0,train,5,E+
95.4339504242,5,600,4,1,2,0,1,4,3,5,400,250.0,train,5,E+
335.449934006,3,600,5,0,2,0,1,4,3,5,400,250.0,train,4,E+
319.565057755,1,600,3,1,2,0,1,4,3,5,400,250.0,train,1,E+
79.3340206146,5,600,4,1,2,0,1,4,3,5,400,250.0,train,5,E+
303.611040115,4,600,2,1,2,0,1,4,3,5,400,250.0,train,4,E+
127.726078033,4,600,2,1,2,0,1,4,3,5,400,250.0,train,4,E+
271.534919739,1,600,3,1,2,0,1,4,3,5,400,250.0,train,1,E+
159.591913223,2,600,1,1,2,0,1,4,3,5,400,250.0,train,2,E+
159.353017807,3,600,5,1,2,0,1,4,3,5,400,250.0,train,3,E+
95.7019329071,5,600,4,1,2,0,1,4,3,5,400,250.0,train,5,E+
255.572080612,2,600,1,1,2,0,1,4,3,5,400,250.0,train,2,E+
239.64381218,4,600,2,1,2,0,1,4,3,5,400,250.0,train,4,E+
271.589040756,4,600,2,1,2,0,1,4,3,5,400,250.0,train,4,E+
142.45390892,5,600,4,1,2,0,1,4,3,5,400,250.0,train,5,E+
271.66891098,3,600,5,1,2,0,1,4,3,5,400,250.0,train,3,E+
94.526052475,4,600,2,1,2,0,1,4,3,5,400,250.0,train,4,E+
287.644863129,0,600,0,1,2,0,1,4,3,5,400,250.0,train,0,E+
62.9420280457,1,600,3,1,2,0,1,4,3,5,400,250.0,train,1,E+
303.609132767,1,600,3,1,2,0,1,4,3,5,400,250.0,train,1,E+
206.263065338,4,600,2,1,2,0,1,4,3,5,400,250.0,train,4,E+
3262.09211349,0,600,0,1,2,0,1,4,3,5,400,250.0,train,0,E+
175.045013428,2,600,1,1,2,0,1,4,3,5,400,250.0,train,2,E+
382.735013962,4,600,2,1,2,0,1,4,3,5,400,250.0,train,4,E+
159.546136856,1,600,3,1,2,0,1,4,3,5,400,250.0,train,1,E+
62.2429847717,0,600,0,1,2,0,1,4,3,5,400,250.0,train,0,E+
158.947944641,0,600,0,1,2,0,1,4,3,5,400,250.0,train,0,E+
63.1470680237,0,600,0,1,2,0,1,4,3,5,400,250.0,train,0,E+
255.203008652,4,600,2,1,2,0,1,4,3,5,400,250.0,train,4,E+
94.9249267578,5,600,4,1,2,0,1,4,3,5,400,250.0,train,5,E+
79.6840190887,4,600,2,1,2,0,1,4,3,5,400,250.0,train,4,E+
111.678123474,1,600,3,1,2,0,1,4,3,5,400,250.0,train,1,E+
175.52614212,4,600,2,1,2,0,1,4,3,5,400,250.0,train,4,E+
142.992019653,5,600,4,1,2,0,1,4,3,5,400,250.0,train,5,E+
143.52107048,2,600,1,0,2,0,1,4,3,5,400,250.0,train,1,E+
94.9800014496,5,600,4,1,2,0,1,4,3,5,400,250.0,train,5,E+
223.713874817,2,600,1,0,2,0,1,4,3,5,400,250.0,train,3,E+
94.1891670227,1,600,3,1,2,0,1,4,3,5,400,250.0,train,1,E+
207.582950592,4,600,2,1,2,0,1,4,3,5,400,250.0,train,4,E+
95.5338478088,0,600,0,1,2,0,1,4,3,5,400,250.0,train,0,E+
46.0920333862,0,600,0,1,2,0,1,4,3,5,400,250.0,train,0,E+
3679.50081825,0,600,0,1,2,0,1,4,3,5,400,250.0,train,0,E+
94.8719978333,1,600,3,1,2,0,1,4,3,5,400,250.0,train,1,E+
14.6069526672,1,600,3,1,2,0,1,4,3,5,400,250.0,train,1,E+
174.314022064,3,600,5,0,2,0,1,4,3,5,400,250.0,train,4,E+
31.720161438,4,600,2,1,2,0,1,4,3,5,400,250.0,train,4,E+
63.4939670563,0,600,0,1,2,0,1,4,3,5,400,250.0,train,0,E+
31.5079689026,0,600,0,1,2,0,1,4,3,5,400,250.0,train,0,E+
254.577875137,3,600,5,1,2,0,1,4,3,5,400,250.0,train,3,E+
31.1839580536,4,600,2,1,2,0,1,4,3,5,400,250.0,train,4,E+
15.5680179596,3,600,5,1,2,0,1,4,3,5,400,250.0,train,3,E+
175.098180771,4,600,2,1,2,0,1,4,3,5,400,250.0,train,4,E+
127.524137497,0,600,0,1,2,0,1,4,3,5,400,250.0,train,0,E+
95.5410003662,0,600,0,1,2,0,1,4,3,5,400,250.0,train,0,E+
271.5280056,3,600,5,0,2,0,1,4,3,5,400,250.0,train,4,E+
127.511978149,1,600,3,1,2,0,1,4,3,5,400,250.0,train,1,E+
351.583003998,3,600,5,1,2,0,1,4,3,5,400,250.0,train,3,E+
143.647909164,1,600,3,1,2,0,1,4,3,5,400,250.0,train,1,E+
63.6510848999,1,600,3,1,2,0,1,4,3,5,400,250.0,train,1,E+
143.559932709,5,600,4,1,2,0,1,4,3,5,400,250.0,train,5,E+
47.7089881897,0,600,0,1,2,0,1,4,3,5,400,250.0,train,0,E+
238.989830017,3,600,5,1,2,0,1,4,3,5,400,250.0,train,3,E+
95.5560207367,1,600,3,1,2,0,1,4,3,5,400,250.0,train,1,E+
175.076961517,2,600,1,1,2,0,1,4,3,5,400,250.0,train,2,E+
3629.04906273,2,600,1,1,2,0,1,4,3,5,400,250.0,train,2,E+
302.714824677,5,600,4,1,2,0,1,4,3,5,400,250.0,train,5,E+
110.454797745,1,600,3,1,2,0,1,4,3,5,400,250.0,train,1,E+
127.542972565,5,600,4,1,2,0,1,4,3,5,400,250.0,train,5,E+
15.6240463257,4,600,2,1,2,0,1,4,3,5,400,250.0,train,4,E+
158.956050873,4,600,2,1,2,0,1,4,3,5,400,250.0,train,4,E+
159.065961838,0,600,0,1,2,0,1,4,3,5,400,250.0,train,0,E+
174.08490181,3,600,5,1,2,0,1,4,3,5,400,250.0,train,3,E+
0.0519752502441,3,600,5,1,2,0,1,4,3,5,400,250.0,train,3,E+
207.472085953,0,600,0,1,2,0,1,4,3,5,400,250.0,train,0,E+
63.2801055908,1,600,3,1,2,0,1,4,3,5,400,250.0,train,1,E+
255.587100983,4,600,2,1,2,0,1,4,3,5,400,250.0,train,4,E+
158.871173859,5,600,4,1,2,0,1,4,3,5,400,250.0,train,5,E+
111.697912216,2,600,1,0,2,0,1,4,3,5,400,250.0,train,3,E+
111.213207245,0,600,0,1,2,0,1,4,3,5,400,250.0,train,0,E+
63.1611347198,0,600,0,1,2,0,1,4,3,5,400,250.0,train,0,E+
46.8029975891,1,600,3,1,2,0,1,4,3,5,400,250.0,train,1,E+
111.670017242,2,600,1,1,2,0,1,4,3,5,400,250.0,train,2,E+
207.502126694,0,600,0,1,2,0,1,4,3,5,400,250.0,train,0,E+
63.3780956268,0,600,0,1,2,0,1,4,3,5,400,250.0,train,0,E+
223.583936691,3,600,5,1,2,0,1,4,3,5,400,250.0,train,3,E+
46.2169647217,0,600,0,1,2,0,1,4,3,5,400,250.0,train,0,E+
142.513036728,5,600,4,1,2,0,1,4,3,5,400,250.0,train,5,E+
111.685037613,0,600,0,1,2,0,1,4,3,5,400,250.0,train,0,E+
95.7310199738,5,600,4,1,2,0,1,4,3,5,400,250.0,train,5,E+
158.94818306,4,600,2,1,2,0,1,4,3,5,400,250.0,train,4,E+
79.7519683838,5,600,4,1,2,0,1,4,3,5,400,250.0,train,5,E+
173.756837845,1,600,3,1,2,0,1,4,3,5,400,250.0,train,1,E+
318.336963654,3,600,5,1,2,0,1,4,3,5,400,250.0,train,3,E+
174.49092865,1,600,3,1,2,0,1,4,3,5,400,250.0,train,1,E+
31.5010547638,1,600,3,1,2,0,1,4,3,5,400,250.0,train,1,E+
14.6028995514,1,600,3,1,2,0,1,4,3,5,400,250.0,train,1,E+
799.638032913,1,600,3,1,2,0,1,4,3,5,400,250.0,train,1,E+
223.025083542,4,600,2,1,2,0,1,4,3,5,400,250.0,train,4,E+
78.6077976227,1,600,3,1,2,0,1,4,3,5,400,250.0,train,1,E+
287.051916122,2,600,1,1,2,0,1,4,3,5,400,250.0,train,2,E+
31.6710472107,0,600,0,1,2,0,1,4,3,5,400,250.0,train,0,E+
190.359115601,5,600,4,1,2,0,1,4,3,5,400,250.0,train,5,E+
46.4000701904,1,600,3,1,2,0,1,4,3,5,400,250.0,train,1,E+
63.2939338684,0,600,0,1,2,0,1,4,3,5,400,250.0,train,0,E+
207.554101944,2,600,1,1,2,0,1,4,3,5,400,250.0,train,2,E+
127.60591507,1,600,3,1,2,0,1,4,3,5,400,250.0,train,1,E+
318.673849106,3,600,5,1,2,0,1,4,3,5,400,250.0,train,3,E+
367.601156235,2,600,1,1,2,0,1,4,3,5,400,250.0,train,2,E+
47.7058887482,1,600,3,1,2,0,1,4,3,5,400,250.0,train,1,E+
63.7259483337,1,600,3,1,2,0,1,4,3,5,400,250.0,train,1,E+
303.647041321,3,600,5,1,2,0,1,4,3,5,400,250.0,train,3,E+
351.615905762,5,600,4,1,2,0,1,4,3,5,400,250.0,train,5,E+
62.3350143433,2,600,1,1,2,0,1,4,3,5,400,250.0,train,2,E+
159.585952759,3,600,5,1,2,0,1,4,3,5,400,250.0,train,3,E+
159.68298912,3,600,5,1,2,0,1,4,3,5,400,250.0,train,3,E+
63.2078647614,5,600,4,1,2,0,1,4,3,5,400,250.0,train,5,E+
94.5110321045,5,600,4,1,2,0,1,4,3,5,400,250.0,train,5,E+
191.393136978,2,600,1,0,2,0,1,4,3,5,400,250.0,train,3,E+
717.909812927,2,600,1,1,2,0,1,4,3,5,400,250.0,train,2,E+
94.9130058289,5,600,4,1,2,0,1,4,3,5,400,250.0,train,5,E+
30.4651260376,5,600,4,0,2,0,1,4,3,5,400,250.0,train,2,E+
287.546157837,3,600,5,1,2,0,1,4,3,5,400,250.0,train,3,E+
47.2319126129,3,600,5,1,2,0,1,4,3,5,400,250.0,train,3,E+
62.6900196075,0,600,0,1,2,0,1,4,3,5,400,250.0,train,0,E+
78.5229206085,2,600,1,1,2,0,1,4,3,5,400,250.0,train,2,E+
95.6890583038,5,600,4,1,2,0,1,4,3,5,400,250.0,train,5,E+
239.531040192,3,600,5,1,2,0,1,4,3,5,400,250.0,train,3,E+
94.8729515076,5,600,4,1,2,0,1,4,3,5,400,250.0,train,5,E+
271.082878113,2,600,1,0,2,0,1,4,3,5,400,250.0,train,3,E+
47.6670265198,2,600,1,1,2,0,1,4,3,5,400,250.0,train,2,E+
94.7968959808,5,600,4,1,2,0,1,4,3,5,400,250.0,train,5,E+
175.740003586,1,600,3,1,2,0,1,4,3,5,400,250.0,train,1,E+
94.4390296936,5,600,4,1,2,0,1,4,3,5,400,250.0,train,5,E+
191.586017609,4,600,2,1,2,0,1,4,3,5,400,250.0,train,4,E+
126.902103424,2,600,1,1,2,0,1,4,3,5,400,250.0,train,2,E+
111.769914627,3,600,5,1,2,0,1,4,3,5,400,250.0,train,3,E+
463.666915894,2,600,1,1,2,0,1,4,3,5,400,250.0,train,2,E+
47.5959777832,5,600,4,1,2,0,1,4,3,5,400,250.0,train,5,E+
94.1138267517,5,600,4,1,2,0,1,4,3,5,400,250.0,train,5,E+
495.535135269,5,600,4,1,2,0,1,4,3,5,400,250.0,train,5,E+
398.241043091,1,600,3,1,2,0,1,4,3,5,400,250.0,train,1,E+
63.1730556488,2,600,1,1,2,0,1,4,3,5,400,250.0,train,2,E+
191.010951996,3,600,5,1,2,0,1,4,3,5,400,250.0,train,3,E+
126.348018646,4,600,2,1,2,0,1,4,3,5,400,250.0,train,4,E+
62.7679824829,0,600,0,1,2,0,1,4,3,5,400,250.0,train,0,E+
527.238130569,4,600,2,1,2,0,1,4,3,5,400,250.0,train,4,E+
206.552028656,4,600,2,1,2,0,1,4,3,5,400,250.0,train,4,E+
127.496957779,2,600,1,1,2,0,1,4,3,5,400,250.0,train,2,E+
383.414983749,2,600,1,1,2,0,1,4,3,5,400,250.0,train,2,E+
78.9318084717,3,600,5,1,2,0,1,4,3,5,400,250.0,train,3,E+
79.5431137085,5,600,4,1,2,0,1,4,3,5,400,250.0,train,5,E+
79.6620845795,2,600,1,1,2,0,1,4,3,5,400,250.0,train,2,E+
95.6749916077,0,600,0,1,2,0,1,4,3,5,400,250.0,train,0,E+
31.0440063477,1,600,3,1,2,0,1,4,3,5,400,250.0,train,1,E+
111.677885056,3,600,5,1,2,0,1,4,3,5,400,250.0,train,3,E+
110.699892044,5,600,4,1,2,0,1,4,3,5,400,250.0,train,5,E+
255.589008331,2,600,1,1,2,0,1,4,3,5,400,250.0,train,2,E+
47.7240085602,0,600,0,1,2,0,1,4,3,5,400,250.0,train,0,E+
63.4520053864,5,600,4,1,2,0,1,4,3,5,400,250.0,train,5,E+
175.076007843,3,600,5,1,2,0,1,4,3,5,400,250.0,train,3,E+
47.7359294891,3,600,5,1,2,0,1,4,3,5,400,250.0,train,3,E+
15.6581401825,5,600,4,1,2,0,1,4,3,5,400,250.0,train,5,E+
78.6609649658,5,600,4,1,2,0,1,4,3,5,400,250.0,train,5,E+
79.6840190887,3,600,5,1,2,0,1,4,3,5,400,250.0,train,3,E+
30.3370952606,5,600,4,1,2,0,1,4,3,5,400,250.0,train,5,E+
286.342144012,1,600,3,1,2,0,1,4,3,5,400,250.0,train,1,E+
111.147880554,5,600,4,1,2,0,1,4,3,5,400,250.0,train,5,E+
175.592184067,1,600,3,1,2,0,1,4,3,5,400,250.0,train,1,E+
111.520051956,5,600,4,1,2,0,1,4,3,5,400,250.0,train,5,E+
462.954998016,5,600,4,1,2,0,1,4,3,5,400,250.0,train,5,E+
94.9330329895,0,600,0,1,2,0,1,4,3,5,400,250.0,train,0,E+
207.670927048,2,600,1,1,2,0,1,4,3,5,400,250.0,train,2,E+
47.2831726074,2,600,1,1,2,0,1,4,3,5,400,250.0,train,2,E+
207.648992538,3,600,5,1,2,0,1,4,3,5,400,250.0,train,3,E+
95.7131385803,4,600,2,1,2,0,1,4,3,5,400,250.0,train,4,E+
127.479076385,1,600,3,0,2,0,1,4,3,5,400,250.0,train,3,E+
95.2048301697,2,600,1,1,2,0,1,4,3,5,400,250.0,train,2,E+
191.55216217,4,600,2,1,2,0,1,4,3,5,400,250.0,train,4,E+
110.357999802,4,600,2,1,2,0,1,4,3,5,400,250.0,train,4,E+
159.559965134,2,600,1,1,2,0,1,4,3,5,400,250.0,train,2,E+
110.991001129,4,600,2,1,2,0,1,4,3,5,400,250.0,train,4,E+
127.501964569,3,600,5,1,2,0,1,4,3,5,400,250.0,train,3,E+
47.4350452423,4,600,2,1,2,0,1,4,3,5,400,250.0,train,4,E+
254.894018173,2,600,1,1,2,0,1,4,3,5,400,250.0,train,2,E+
174.826860428,5,600,4,1,2,0,1,4,3,5,400,250.0,train,5,E+
127.189159393,4,600,2,1,2,0,1,4,3,5,400,250.0,train,4,E+
159.482002258,0,600,0,1,2,0,1,4,3,5,400,250.0,train,0,E+
159.503936768,1,600,3,1,2,0,1,4,3,5,400,250.0,train,1,E+
95.4689979553,1,600,3,1,2,0,1,4,3,5,400,250.0,train,1,E+
318.912029266,3,600,5,1,2,0,1,4,3,5,400,250.0,train,3,E+
175.628185272,2,600,1,1,2,0,1,4,3,5,400,250.0,train,2,E+
206.958055496,3,600,5,1,2,0,1,4,3,5,400,250.0,train,3,E+
175.06814003,4,600,2,1,2,0,1,4,3,5,400,250.0,train,4,E+
127.197027206,5,600,4,1,2,0,1,4,3,5,400,250.0,train,5,E+
110.394001007,0,600,0,1,2,0,1,4,3,5,400,250.0,train,0,E+
78.5081386566,5,600,4,1,2,0,1,4,3,5,400,250.0,train,5,E+
159.701108932,2,600,1,1,2,0,1,4,3,5,400,250.0,train,2,E+
142.702817917,1,600,3,1,2,0,1,4,3,5,400,250.0,train,1,E+
687.659978867,0,600,0,1,2,0,1,4,3,5,400,250.0,train,0,E+
1007.01498985,4,600,2,1,2,0,1,4,3,5,400,250.0,train,4,E+
543.550014496,2,600,1,1,2,0,1,4,3,5,400,250.0,train,2,E+
15.5718326569,2,600,1,1,2,0,1,4,3,5,400,250.0,train,2,E+
63.4751319885,0,600,0,1,2,0,1,4,3,5,400,250.0,train,0,E+
607.005834579,1,600,3,1,2,0,1,4,3,5,400,250.0,train,1,E+
30.6041240692,0,600,0,1,2,0,1,4,3,5,400,250.0,train,0,E+
47.2660064697,1,600,3,1,2,0,1,4,3,5,400,250.0,train,1,E+
95.7291126251,0,600,0,1,2,0,1,4,3,5,400,250.0,train,0,E+
111.663818359,2,600,1,1,2,0,1,4,3,5,400,250.0,train,2,E+
31.553030014,0,600,0,1,2,0,1,4,3,5,400,250.0,train,0,E+
78.5989761353,0,600,0,1,2,0,1,4,3,5,400,250.0,train,0,E+
207.571983337,0,600,0,1,2,0,1,4,3,5,400,250.0,train,0,E+
190.901994705,5,600,4,1,2,0,1,4,3,5,400,250.0,train,5,E+
63.6999607086,0,600,0,1,2,0,1,4,3,5,400,250.0,train,0,E+
111.043930054,4,600,2,1,2,0,1,4,3,5,400,250.0,train,4,E+
111.5629673,1,600,3,1,2,0,1,4,3,5,400,250.0,train,1,E+
127.557039261,1,600,3,1,2,0,1,4,3,5,400,250.0,train,1,E+
62.4430179596,0,600,0,1,2,0,1,4,3,5,400,250.0,train,0,E+
1022.88889885,3,1000,5,1,2,0,1,4,3,5,0,250.0,test,3,E+
574.882030487,2,1000,1,1,2,0,1,4,3,5,0,250.0,test,2,E+
623.003959656,4,1000,2,1,2,0,1,4,3,5,0,250.0,test,4,E+
383.155107498,3,1000,5,1,2,0,1,4,3,5,0,250.0,test,3,E+
510.970115662,4,1000,2,1,2,0,1,4,3,5,0,250.0,test,4,E+
398.253917694,0,1000,0,1,2,0,1,4,3,5,0,250.0,test,0,E+
479.146003723,5,1000,4,1,2,0,1,4,3,5,0,250.0,test,5,E+
637.909889221,1,1000,3,1,2,0,1,4,3,5,0,250.0,test,1,E+
526.191949844,2,1000,1,0,2,0,1,4,3,5,0,250.0,test,3,E+
382.781028748,2,1000,1,1,2,0,1,4,3,5,0,250.0,test,2,E+
415.084123611,0,1000,0,1,2,0,1,4,3,5,0,250.0,test,0,E+
446.892976761,3,1000,5,1,2,0,1,4,3,5,0,250.0,test,3,E+
639.017820358,2,1000,1,1,2,0,1,4,3,5,0,250.0,test,2,E+
414.725065231,2,1000,1,1,2,0,1,4,3,5,0,250.0,test,2,E+
463.565826416,5,1000,4,1,2,0,1,4,3,5,0,250.0,test,5,E+
606.940031052,3,1000,5,1,2,0,1,4,3,5,0,250.0,test,3,E+
511.455774307,2,1000,1,0,2,0,1,4,3,5,0,250.0,test,1,E+
493.392944336,4,1000,2,0,2,0,1,4,3,5,0,250.0,test,3,E+
511.116027832,5,1000,4,1,2,0,1,4,3,5,0,250.0,test,5,E+
557.202100754,2,1000,1,1,2,0,1,4,3,5,0,250.0,test,2,E+
445.812940598,0,1000,0,1,2,0,1,4,3,5,0,250.0,test,0,E+
525.902032852,3,1000,5,1,2,0,1,4,3,5,0,250.0,test,3,E+
446.979999542,0,1000,0,1,2,0,1,4,3,5,0,250.0,test,0,E+
509.316921234,3,1000,5,1,2,0,1,4,3,5,0,250.0,test,3,E+
526.068925858,2,1000,1,1,2,0,1,4,3,5,0,250.0,test,2,E+
398.734092712,2,1000,1,1,2,0,1,4,3,5,0,250.0,test,2,E+
478.183984756,3,1000,5,1,2,0,1,4,3,5,0,250.0,test,3,E+
414.654970169,2,1000,1,1,2,0,1,4,3,5,0,250.0,test,2,E+
526.209115982,1,1000,3,1,2,0,1,4,3,5,0,250.0,test,1,E+
575.041055679,4,1000,2,0,2,0,1,4,3,5,0,250.0,test,3,E+
542.396068573,1,1000,3,1,2,0,1,4,3,5,0,250.0,test,1,E+
495.636940002,1,1000,3,1,2,0,1,4,3,5,0,250.0,test,1,E+
607.558965683,1,1000,3,1,2,0,1,4,3,5,0,250.0,test,1,E+
462.798833847,0,1000,0,1,2,0,1,4,3,5,0,250.0,test,0,E+
478.863954544,5,1000,4,1,2,0,1,4,3,5,0,250.0,test,5,E+
702.949047089,3,1000,5,1,2,0,1,4,3,5,0,250.0,test,3,E+
415.446043015,0,1000,0,1,2,0,1,4,3,5,0,250.0,test,0,E+
574.292898178,2,1000,1,1,2,0,1,4,3,5,0,250.0,test,2,E+
430.234909058,1,1000,3,1,2,0,1,4,3,5,0,250.0,test,1,E+
414.988994598,0,1000,0,0,2,0,1,4,3,5,0,250.0,test,2,E+
478.870153427,2,1000,1,1,2,0,1,4,3,5,0,250.0,test,2,E+
687.794923782,5,1000,4,1,2,0,1,4,3,5,0,250.0,test,5,E+
703.082084656,2,1000,1,1,2,0,1,4,3,5,0,250.0,test,2,E+
575.293064117,3,1000,5,1,2,0,1,4,3,5,0,250.0,test,3,E+
494.983911514,5,1000,4,1,2,0,1,4,3,5,0,250.0,test,5,E+
446.151971817,0,1000,0,1,2,0,1,4,3,5,0,250.0,test,0,E+
1087.89610863,4,1000,2,0,2,0,1,4,3,5,0,250.0,test,3,E+
750.941991806,4,1000,2,1,2,0,1,4,3,5,0,250.0,test,4,E+
431.116104126,4,1000,2,1,2,0,1,4,3,5,0,250.0,test,4,E+
526.072978973,0,1000,0,1,2,0,1,4,3,5,0,250.0,test,0,E+
543.040990829,3,1000,5,1,2,0,1,4,3,5,0,250.0,test,3,E+
766.908884048,1,1000,3,1,2,0,1,4,3,5,0,250.0,test,1,E+
702.683925629,4,1000,2,1,2,0,1,4,3,5,0,250.0,test,4,E+
622.65086174,2,1000,1,1,2,0,1,4,3,5,0,250.0,test,2,E+
430.869102478,5,1000,4,1,2,0,1,4,3,5,0,250.0,test,5,E+
511.126041412,4,1000,2,1,2,0,1,4,3,5,0,250.0,test,4,E+
463.057994843,5,1000,4,1,2,0,1,4,3,5,0,250.0,test,5,E+
494.409799576,3,1000,5,0,2,0,1,4,3,5,0,250.0,test,4,E+
495.635986328,0,1000,0,1,2,0,1,4,3,5,0,250.0,test,0,E+
447.485923767,2,1000,1,0,2,0,1,4,3,5,0,250.0,test,1,E+
430.547952652,0,1000,0,1,2,0,1,4,3,5,0,250.0,test,0,E+
495.615005493,1,1000,3,1,2,0,1,4,3,5,0,250.0,test,1,E+
557.93094635,4,1000,2,1,2,0,1,4,3,5,0,250.0,test,4,E+
413.738965988,5,1000,4,0,2,0,1,4,3,5,0,250.0,test,4,E+
461.596012115,5,1000,4,1,2,0,1,4,3,5,0,250.0,test,5,E+
958.874940872,2,1000,1,1,2,0,1,4,3,5,0,250.0,test,2,E+
494.866847992,0,1000,0,1,2,0,1,4,3,5,0,250.0,test,0,E+
543.510198593,4,1000,2,1,2,0,1,4,3,5,0,250.0,test,4,E+
559.402942657,5,1000,4,1,2,0,1,4,3,5,0,250.0,test,5,E+
541.712999344,1,1000,3,1,2,0,1,4,3,5,0,250.0,test,1,E+
878.95989418,3,1000,5,1,2,0,1,4,3,5,0,250.0,test,3,E+
511.096000671,2,1000,1,1,2,0,1,4,3,5,0,250.0,test,2,E+
623.072862625,4,1000,2,1,2,0,1,4,3,5,0,250.0,test,4,E+
846.379995346,1,1000,3,1,2,0,1,4,3,5,0,250.0,test,1,E+
542.286872864,0,1000,0,1,2,0,1,4,3,5,0,250.0,test,0,E+
638.052940369,3,1000,5,1,2,0,1,4,3,5,0,250.0,test,3,E+
430.871009827,3,1000,5,1,2,0,1,4,3,5,0,250.0,test,3,E+
495.597839355,5,1000,4,1,2,0,1,4,3,5,0,250.0,test,5,E+
526.582956314,5,1000,4,1,2,0,1,4,3,5,0,250.0,test,5,E+
575.042009354,2,1000,1,1,2,0,1,4,3,5,0,250.0,test,2,E+
461.855173111,5,1000,4,1,2,0,1,4,3,5,0,250.0,test,5,E+
543.578147888,2,1000,1,1,2,0,1,4,3,5,0,250.0,test,2,E+
479.62808609,3,1000,5,1,2,0,1,4,3,5,0,250.0,test,3,E+
447.547912598,1,1000,3,1,2,0,1,4,3,5,0,250.0,test,1,E+
462.182998657,1,1000,3,1,2,0,1,4,3,5,0,250.0,test,1,E+
478.983879089,1,1000,3,1,2,0,1,4,3,5,0,250.0,test,1,E+
430.934906006,2,1000,1,1,2,0,1,4,3,5,0,250.0,test,2,E+
302.595853806,1,1000,3,1,2,0,1,4,3,5,0,250.0,test,1,E+
590.041160583,4,1000,2,1,2,0,1,4,3,5,0,250.0,test,4,E+
510.949134827,5,1000,4,1,2,0,1,4,3,5,0,250.0,test,5,E+
446.888923645,4,1000,2,1,2,0,1,4,3,5,0,250.0,test,4,E+
461.446046829,1,1000,3,1,2,0,1,4,3,5,0,250.0,test,1,E+
829.920053482,3,1000,5,1,2,0,1,4,3,5,0,250.0,test,3,E+
557.978868484,2,1000,1,1,2,0,1,4,3,5,0,250.0,test,2,E+
414.155960083,3,1000,5,0,2,0,1,4,3,5,0,250.0,test,4,E+
430.337190628,2,1000,1,0,2,0,1,4,3,5,0,250.0,test,3,E+
446.339130402,3,1000,5,1,2,0,1,4,3,5,0,250.0,test,3,E+
479.632854462,4,1000,2,1,2,0,1,4,3,5,0,250.0,test,4,E+
655.166149139,1,1000,3,0,2,0,1,4,3,5,0,250.0,test,2,E+
478.895902634,5,1000,4,1,2,0,1,4,3,5,0,250.0,test,5,E+
477.917909622,3,1000,5,1,2,0,1,4,3,5,0,250.0,test,3,E+
430.937051773,3,1000,5,1,2,0,1,4,3,5,0,250.0,test,3,E+
526.371955872,2,1000,1,1,2,0,1,4,3,5,0,250.0,test,2,E+
478.028059006,5,1000,4,1,2,0,1,4,3,5,0,250.0,test,5,E+
479.630947113,5,1000,4,1,2,0,1,4,3,5,0,250.0,test,5,E+
479.0828228,5,1000,4,1,2,0,1,4,3,5,0,250.0,test,5,E+
462.951898575,4,1000,2,1,2,0,1,4,3,5,0,250.0,test,4,E+
478.461027145,0,1000,0,0,2,0,1,4,3,5,0,250.0,test,3,E+
910.892963409,4,1000,2,1,2,0,1,4,3,5,0,250.0,test,4,E+
655.027866364,4,1000,2,1,2,0,1,4,3,5,0,250.0,test,4,E+
542.952060699,0,1000,0,1,2,0,1,4,3,5,0,250.0,test,0,E+
431.130886078,0,1000,0,1,2,0,1,4,3,5,0,250.0,test,0,E+
734.560012817,2,1000,1,1,2,0,1,4,3,5,0,250.0,test,2,E+
527.553081512,2,1000,1,0,2,0,1,4,3,5,0,250.0,test,3,E+
574.430942535,2,1000,1,1,2,0,1,4,3,5,0,250.0,test,2,E+
575.458049774,3,1000,5,1,2,0,1,4,3,5,0,250.0,test,3,E+
576.323032379,2,1000,1,1,2,0,1,4,3,5,0,250.0,test,2,E+
383.018016815,3,1000,5,1,2,0,1,4,3,5,0,250.0,test,3,E+
527.085065842,4,1000,2,1,2,0,1,4,3,5,0,250.0,test,4,E+
399.092912674,3,1000,5,1,2,0,1,4,3,5,0,250.0,test,3,E+
494.930028915,4,1000,2,1,2,0,1,4,3,5,0,250.0,test,4,E+
383.044958115,2,1000,1,1,2,0,1,4,3,5,0,250.0,test,2,E+
430.385112762,3,1000,5,1,2,0,1,4,3,5,0,250.0,test,3,E+
445.278167725,4,1000,2,1,2,0,1,4,3,5,0,250.0,test,4,E+
462.966918945,4,1000,2,1,2,0,1,4,3,5,0,250.0,test,4,E+
750.883102417,2,1000,1,1,2,0,1,4,3,5,0,250.0,test,2,E+
831.040859222,1,1000,3,1,2,0,1,4,3,5,0,250.0,test,1,E+
494.759082794,0,1000,0,1,2,0,1,4,3,5,0,250.0,test,0,E+
463.027954102,2,1000,1,1,2,0,1,4,3,5,0,250.0,test,2,E+
367.022037506,2,1000,1,1,2,0,1,4,3,5,0,250.0,test,2,E+
511.628866196,5,1000,4,1,2,0,1,4,3,5,0,250.0,test,5,E+
479.154109955,5,1000,4,1,2,0,1,4,3,5,0,250.0,test,5,E+
429.353952408,0,1000,0,1,2,0,1,4,3,5,0,250.0,test,0,E+
622.411966324,3,1000,5,1,2,0,1,4,3,5,0,250.0,test,3,E+
413.869142532,0,1000,0,1,2,0,1,4,3,5,0,250.0,test,0,E+
478.91497612,5,1000,4,1,2,0,1,4,3,5,0,250.0,test,5,E+
607.512950897,2,1000,1,1,2,0,1,4,3,5,0,250.0,test,2,E+
366.770029068,2,1000,1,1,2,0,1,4,3,5,0,250.0,test,2,E+
415.571928024,2,1000,1,1,2,0,1,4,3,5,0,250.0,test,2,E+
527.129173279,5,1000,4,1,2,0,1,4,3,5,0,250.0,test,5,E+
463.533163071,4,1000,2,1,2,0,1,4,3,5,0,250.0,test,4,E+
462.937116623,5,1000,4,1,2,0,1,4,3,5,0,250.0,test,5,E+
399.514198303,5,1000,4,0,2,0,1,4,3,5,0,250.0,test,4,E+
351.509094238,5,1000,4,1,2,0,1,4,3,5,0,250.0,test,5,E+
431.648015976,4,1000,2,1,2,0,1,4,3,5,0,250.0,test,4,E+
623.080015182,2,1000,1,1,2,0,1,4,3,5,0,250.0,test,2,E+
462.529182434,5,1000,4,1,2,0,1,4,3,5,0,250.0,test,5,E+
415.605783463,1,1000,3,0,2,0,1,4,3,5,0,250.0,test,2,E+
398.92911911,5,1000,4,1,2,0,1,4,3,5,0,250.0,test,5,E+
493.227958679,2,1000,1,0,2,0,1,4,3,5,0,250.0,test,5,E+
462.759971619,0,1000,0,1,2,0,1,4,3,5,0,250.0,test,0,E+
622.401952744,4,1000,2,1,2,0,1,4,3,5,0,250.0,test,4,E+
429.914951324,5,1000,4,1,2,0,1,4,3,5,0,250.0,test,5,E+
463.104963303,0,1000,0,1,2,0,1,4,3,5,0,250.0,test,0,E+
381.839990616,0,1000,0,1,2,0,1,4,3,5,0,250.0,test,0,E+
414.600849152,5,1000,4,1,2,0,1,4,3,5,0,250.0,test,5,E+
703.063011169,3,1000,5,0,2,0,1,4,3,5,0,250.0,test,1,E+
590.576887131,2,1000,1,1,2,0,1,4,3,5,0,250.0,test,2,E+
559.055089951,4,1000,2,1,2,0,1,4,3,5,0,250.0,test,4,E+
559.149026871,1,1000,3,1,2,0,1,4,3,5,0,250.0,test,1,E+
541.254043579,2,1000,1,1,2,0,1,4,3,5,0,250.0,test,2,E+
622.782945633,1,1000,3,1,2,0,1,4,3,5,0,250.0,test,1,E+
623.018026352,4,1000,2,1,2,0,1,4,3,5,0,250.0,test,4,E+
430.546998978,0,1000,0,1,2,0,1,4,3,5,0,250.0,test,0,E+
495.605945587,4,1000,2,1,2,0,1,4,3,5,0,250.0,test,4,E+
526.823997498,3,1000,5,1,2,0,1,4,3,5,0,250.0,test,3,E+
495.548009872,1,1000,3,1,2,0,1,4,3,5,0,250.0,test,1,E+
478.83605957,2,1000,1,1,2,0,1,4,3,5,0,250.0,test,2,E+
495.584011078,5,1000,4,1,2,0,1,4,3,5,0,250.0,test,5,E+
783.02693367,3,1000,5,1,2,0,1,4,3,5,0,250.0,test,3,E+
446.754932404,0,1000,0,1,2,0,1,4,3,5,0,250.0,test,0,E+
398.935079575,0,1000,0,1,2,0,1,4,3,5,0,250.0,test,0,E+
494.508981705,1,1000,3,1,2,0,1,4,3,5,0,250.0,test,1,E+
495.615005493,5,1000,4,1,2,0,1,4,3,5,0,250.0,test,5,E+
510.694026947,1,1000,3,1,2,0,1,4,3,5,0,250.0,test,1,E+
511.475086212,5,1000,4,1,2,0,1,4,3,5,0,250.0,test,5,E+
589.787960052,2,1000,1,1,2,0,1,4,3,5,0,250.0,test,2,E+
494.894981384,5,1000,4,1,2,0,1,4,3,5,0,250.0,test,5,E+
478.076934814,0,1000,0,1,2,0,1,4,3,5,0,250.0,test,0,E+
590.817213058,3,1000,5,1,2,0,1,4,3,5,0,250.0,test,3,E+
527.101039886,2,1000,1,1,2,0,1,4,3,5,0,250.0,test,2,E+
478.945970535,5,1000,4,1,2,0,1,4,3,5,0,250.0,test,5,E+
574.749231339,4,1000,2,1,2,0,1,4,3,5,0,250.0,test,4,E+
462.344169617,0,1000,0,1,2,0,1,4,3,5,0,250.0,test,0,E+
590.366125107,4,1000,2,1,2,0,1,4,3,5,0,250.0,test,4,E+
461.935043335,0,1000,0,1,2,0,1,4,3,5,0,250.0,test,0,E+
765.998125076,2,1000,1,1,2,0,1,4,3,5,0,250.0,test,2,E+
478.574991226,2,1000,1,1,2,0,1,4,3,5,0,250.0,test,2,E+
911.051988602,2,1000,1,1,2,0,1,4,3,5,0,250.0,test,2,E+
430.269002914,0,1000,0,1,2,0,1,4,3,5,0,250.0,test,0,E+
543.529987335,4,1000,2,1,2,0,1,4,3,5,0,250.0,test,4,E+
463.066101074,2,1000,1,1,2,0,1,4,3,5,0,250.0,test,2,E+
559.54003334,3,1000,5,1,2,0,1,4,3,5,0,250.0,test,3,E+
542.929887772,5,1000,4,1,2,0,1,4,3,5,0,250.0,test,5,E+
430.968046188,0,1000,0,1,2,0,1,4,3,5,0,250.0,test,0,E+
526.826143265,2,1000,1,1,2,0,1,4,3,5,0,250.0,test,2,E+
575.033903122,0,1000,0,1,2,0,1,4,3,5,0,250.0,test,0,E+
446.794986725,5,1000,4,1,2,0,1,4,3,5,0,250.0,test,5,E+
430.933952332,0,1000,0,1,2,0,1,4,3,5,0,250.0,test,0,E+
798.803091049,2,1000,1,1,2,0,1,4,3,5,0,250.0,test,2,E+
415.03405571,0,1000,0,1,2,0,1,4,3,5,0,250.0,test,0,E+
462.947130203,3,1000,5,1,2,0,1,4,3,5,0,250.0,test,3,E+
749.269008636,4,1000,2,1,2,0,1,4,3,5,0,250.0,test,4,E+
526.890039444,3,1000,5,1,2,0,1,4,3,5,0,250.0,test,3,E+
415.083885193,2,1000,1,0,2,0,1,4,3,5,0,250.0,test,3,E+
479.608058929,5,1000,4,1,2,0,1,4,3,5,0,250.0,test,5,E+
559.010028839,4,1000,2,1,2,0,1,4,3,5,0,250.0,test,4,E+
446.216106415,3,1000,5,1,2,0,1,4,3,5,0,250.0,test,3,E+
526.980876923,5,1000,4,1,2,0,1,4,3,5,0,250.0,test,5,E+
429.338932037,0,1000,0,1,2,0,1,4,3,5,0,250.0,test,0,E+
557.134151459,2,1000,1,1,2,0,1,4,3,5,0,250.0,test,2,E+
831.542015076,1,1000,3,1,2,0,1,4,3,5,0,250.0,test,1,E+
383.616924286,1,1000,3,1,2,0,1,4,3,5,0,250.0,test,1,E+
511.571884155,0,1000,0,1,2,0,1,4,3,5,0,250.0,test,0,E+
431.063175201,5,1000,4,1,2,0,1,4,3,5,0,250.0,test,5,E+
783.662080765,3,1000,5,1,2,0,1,4,3,5,0,250.0,test,3,E+
558.515071869,3,1000,5,1,2,0,1,4,3,5,0,250.0,test,3,E+
511.609077454,0,1000,0,1,2,0,1,4,3,5,0,250.0,test,0,E+
543.345928192,3,1000,5,1,2,0,1,4,3,5,0,250.0,test,3,E+
1054.80790138,2,1000,1,1,2,0,1,4,3,5,0,250.0,test,2,E+
495.107889175,2,1000,1,1,2,0,1,4,3,5,0,250.0,test,2,E+
463.543891907,0,1000,0,1,2,0,1,4,3,5,0,250.0,test,0,E+
574.794054031,2,1000,1,1,2,0,1,4,3,5,0,250.0,test,2,E+
575.015068054,5,1000,4,1,2,0,1,4,3,5,0,250.0,test,5,E+
526.730060577,0,1000,0,1,2,0,1,4,3,5,0,250.0,test,0,E+
527.500867844,1,1000,3,1,2,0,1,4,3,5,0,250.0,test,1,E+
429.816007614,0,1000,0,1,2,0,1,4,3,5,0,250.0,test,0,E+
431.100130081,2,1000,1,1,2,0,1,4,3,5,0,250.0,test,2,E+
366.374015808,2,1000,1,1,2,0,1,4,3,5,0,250.0,test,2,E+
655.095100403,1,1000,3,0,2,0,1,4,3,5,0,250.0,test,0,E+
511.06595993,5,1000,4,1,2,0,1,4,3,5,0,250.0,test,5,E+
461.418867111,1,1000,3,1,2,0,1,4,3,5,0,250.0,test,1,E+
510.013103485,4,1000,2,1,2,0,1,4,3,5,0,250.0,test,4,E+
494.474172592,2,1000,1,1,2,0,1,4,3,5,0,250.0,test,2,E+
479.224920273,5,1000,4,1,2,0,1,4,3,5,0,250.0,test,5,E+
510.104179382,3,1000,5,1,2,0,1,4,3,5,0,250.0,test,3,E+
431.058883667,5,1000,4,1,2,0,1,4,3,5,0,250.0,test,5,E+
510.314941406,4,1000,2,1,2,0,1,4,3,5,0,250.0,test,4,E+
494.458198547,3,1000,5,1,2,0,1,4,3,5,0,250.0,test,3,E+
463.665008545,0,1000,0,1,2,0,1,4,3,5,0,250.0,test,0,E+
542.542934418,4,1000,2,1,2,0,1,4,3,5,0,250.0,test,4,E+
574.475049973,2,1000,1,1,2,0,1,4,3,5,0,250.0,test,2,E+
398.326158524,2,1000,1,1,2,0,1,4,3,5,0,250.0,test,2,E+
415.083169937,2,1000,1,1,2,0,1,4,3,5,0,250.0,test,2,E+
463.063001633,3,1000,5,1,2,0,1,4,3,5,0,250.0,test,3,E+
926.753997803,3,1000,5,1,2,0,1,4,3,5,0,250.0,test,3,E+
478.070020676,1,1000,3,1,2,0,1,4,3,5,0,250.0,test,1,E+
446.945905685,1,1000,3,1,2,0,1,4,3,5,0,250.0,test,1,E+
447.043895721,2,1000,1,1,2,0,1,4,3,5,0,250.0,test,2,E+
494.658946991,5,1000,4,1,2,0,1,4,3,5,0,250.0,test,5,E+
