RT,correct_response,ms-prestimblank,curstim,correct,SRmap_1,SRmap_0,SRmap_3,SRmap_2,SRmap_5,SRmap_4,ms-precue,ntrials,type,response,condition
7998.1200695,4,600,5,1,5,3,0,2,4,1,400,250.0,train,4,E+
1886.84797287,0,600,3,1,5,3,0,2,4,1,400,250.0,train,0,E+
1470.37315369,2,600,2,1,5,3,0,2,4,1,400,250.0,train,2,E+
7230.31210899,5,600,1,1,5,3,0,2,4,1,400,250.0,train,5,E+
1502.40087509,1,600,4,1,5,3,0,2,4,1,400,250.0,train,1,E+
2926.68509483,5,600,1,1,5,3,0,2,4,1,400,250.0,train,5,E+
1855.45492172,2,600,2,1,5,3,0,2,4,1,400,250.0,train,2,E+
1423.07806015,2,600,2,1,5,3,0,2,4,1,400,250.0,train,2,E+
943.241119385,0,600,3,1,5,3,0,2,4,1,400,250.0,train,0,E+
1310.70303917,1,600,4,1,5,3,0,2,4,1,400,250.0,train,1,E+
751.159906387,0,600,3,1,5,3,0,2,4,1,400,250.0,train,0,E+
1357.57684708,3,600,0,1,5,3,0,2,4,1,400,250.0,train,3,E+
670.279026031,0,600,3,1,5,3,0,2,4,1,400,250.0,train,0,E+
1342.85092354,4,600,5,1,5,3,0,2,4,1,400,250.0,train,4,E+
783.293008804,1,600,4,1,5,3,0,2,4,1,400,250.0,train,1,E+
383.234024048,0,600,3,1,5,3,0,2,4,1,400,250.0,train,0,E+
479.125022888,0,600,3,1,5,3,0,2,4,1,400,250.0,train,0,E+
510.918855667,0,600,3,1,5,3,0,2,4,1,400,250.0,train,0,E+
414.449930191,0,600,3,1,5,3,0,2,4,1,400,250.0,train,0,E+
383.605957031,0,600,3,1,5,3,0,2,4,1,400,250.0,train,0,E+
430.850982666,0,600,3,1,5,3,0,2,4,1,400,250.0,train,0,E+
1007.60102272,2,600,2,1,5,3,0,2,4,1,400,250.0,train,2,E+
511.583089828,0,600,3,1,5,3,0,2,4,1,400,250.0,train,0,E+
1855.59892654,4,600,5,1,5,3,0,2,4,1,400,250.0,train,4,E+
607.605218887,1,600,4,1,5,3,0,2,4,1,400,250.0,train,1,E+
974.550008774,5,600,1,1,5,3,0,2,4,1,400,250.0,train,5,E+
958.648920059,4,600,5,1,5,3,0,2,4,1,400,250.0,train,4,E+
254.873037338,0,600,3,1,5,3,0,2,4,1,400,250.0,train,0,E+
430.48620224,5,600,1,1,5,3,0,2,4,1,400,250.0,train,5,E+
622.9159832,2,600,2,1,5,3,0,2,4,1,400,250.0,train,2,E+
446.285009384,3,600,0,0,5,3,0,2,4,1,400,250.0,train,4,E+
302.426099777,1,600,4,1,5,3,0,2,4,1,400,250.0,train,1,E+
287.218093872,1,600,4,1,5,3,0,2,4,1,400,250.0,train,1,E+
430.498123169,5,600,1,1,5,3,0,2,4,1,400,250.0,train,5,E+
239.624977112,5,600,1,1,5,3,0,2,4,1,400,250.0,train,5,E+
287.610054016,2,600,2,0,5,3,0,2,4,1,400,250.0,train,3,E+
286.432981491,3,600,0,1,5,3,0,2,4,1,400,250.0,train,3,E+
382.177829742,5,600,1,1,5,3,0,2,4,1,400,250.0,train,5,E+
447.161912918,3,600,0,1,5,3,0,2,4,1,400,250.0,train,3,E+
47.6100444794,0,600,3,1,5,3,0,2,4,1,400,250.0,train,0,E+
350.877046585,4,600,5,0,5,3,0,2,4,1,400,250.0,train,5,E+
526.837110519,4,600,5,1,5,3,0,2,4,1,400,250.0,train,4,E+
333.942890167,5,600,1,1,5,3,0,2,4,1,400,250.0,train,5,E+
190.203905106,0,600,3,1,5,3,0,2,4,1,400,250.0,train,0,E+
159.717082977,1,600,4,1,5,3,0,2,4,1,400,250.0,train,1,E+
527.101039886,3,600,0,1,5,3,0,2,4,1,400,250.0,train,3,E+
95.3028202057,4,600,5,1,5,3,0,2,4,1,400,250.0,train,4,E+
126.497983932,4,600,5,0,5,3,0,2,4,1,400,250.0,train,3,E+
207.525014877,4,600,5,1,5,3,0,2,4,1,400,250.0,train,4,E+
575.592041016,4,600,5,1,5,3,0,2,4,1,400,250.0,train,4,E+
318.819999695,2,600,2,1,5,3,0,2,4,1,400,250.0,train,2,E+
95.1039791107,2,600,2,1,5,3,0,2,4,1,400,250.0,train,2,E+
95.2110290527,2,600,2,1,5,3,0,2,4,1,400,250.0,train,2,E+
223.133802414,3,600,0,1,5,3,0,2,4,1,400,250.0,train,3,E+
111.634969711,1,600,4,1,5,3,0,2,4,1,400,250.0,train,1,E+
127.552986145,2,600,2,1,5,3,0,2,4,1,400,250.0,train,2,E+
78.8631439209,2,600,2,1,5,3,0,2,4,1,400,250.0,train,2,E+
206.425905228,5,600,1,1,5,3,0,2,4,1,400,250.0,train,5,E+
142.416000366,1,600,4,1,5,3,0,2,4,1,400,250.0,train,1,E+
206.772089005,1,600,4,1,5,3,0,2,4,1,400,250.0,train,1,E+
366.182088852,3,600,0,1,5,3,0,2,4,1,400,250.0,train,3,E+
175.618886948,3,600,0,1,5,3,0,2,4,1,400,250.0,train,3,E+
30.1959514618,4,600,5,1,5,3,0,2,4,1,400,250.0,train,4,E+
95.3018665314,2,600,2,1,5,3,0,2,4,1,400,250.0,train,2,E+
30.5500030518,2,600,2,1,5,3,0,2,4,1,400,250.0,train,2,E+
94.7449207306,1,600,4,1,5,3,0,2,4,1,400,250.0,train,1,E+
206.232786179,4,600,5,0,5,3,0,2,4,1,400,250.0,train,3,E+
175.523042679,4,600,5,1,5,3,0,2,4,1,400,250.0,train,4,E+
751.564025879,4,600,5,1,5,3,0,2,4,1,400,250.0,train,4,E+
655.39598465,3,600,0,1,5,3,0,2,4,1,400,250.0,train,3,E+
127.6679039,0,600,3,1,5,3,0,2,4,1,400,250.0,train,0,E+
0.0519752502441,1,600,4,1,5,3,0,2,4,1,400,250.0,train,1,E+
543.15495491,3,600,0,1,5,3,0,2,4,1,400,250.0,train,3,E+
62.9169940948,0,600,3,1,5,3,0,2,4,1,400,250.0,train,0,E+
511.029005051,1,600,4,1,5,3,0,2,4,1,400,250.0,train,1,E+
350.235939026,5,600,1,1,5,3,0,2,4,1,400,250.0,train,5,E+
238.695144653,2,600,2,1,5,3,0,2,4,1,400,250.0,train,2,E+
415.006160736,1,600,4,1,5,3,0,2,4,1,400,250.0,train,1,E+
479.631900787,3,600,0,1,5,3,0,2,4,1,400,250.0,train,3,E+
31.6278934479,0,600,3,1,5,3,0,2,4,1,400,250.0,train,0,E+
94.4378376007,2,600,2,1,5,3,0,2,4,1,400,250.0,train,2,E+
0.0519752502441,2,600,2,1,5,3,0,2,4,1,400,250.0,train,2,E+
319.523096085,4,600,5,0,5,3,0,2,4,1,400,250.0,train,3,E+
127.671957016,0,600,3,1,5,3,0,2,4,1,400,250.0,train,0,E+
175.564050674,2,600,2,1,5,3,0,2,4,1,400,250.0,train,2,E+
46.3991165161,1,600,4,1,5,3,0,2,4,1,400,250.0,train,1,E+
31.6479206085,1,600,4,1,5,3,0,2,4,1,400,250.0,train,1,E+
253.63612175,3,600,0,1,5,3,0,2,4,1,400,250.0,train,3,E+
78.458070755,1,600,4,1,5,3,0,2,4,1,400,250.0,train,1,E+
430.828094482,3,600,0,1,5,3,0,2,4,1,400,250.0,train,3,E+
350.867033005,4,600,5,1,5,3,0,2,4,1,400,250.0,train,4,E+
207.567930222,2,600,2,1,5,3,0,2,4,1,400,250.0,train,2,E+
462.293863297,1,600,4,1,5,3,0,2,4,1,400,250.0,train,1,E+
494.501829147,5,600,1,1,5,3,0,2,4,1,400,250.0,train,5,E+
62.1740818024,0,600,3,1,5,3,0,2,4,1,400,250.0,train,0,E+
127.665996552,2,600,2,1,5,3,0,2,4,1,400,250.0,train,2,E+
47.6469993591,2,600,2,1,5,3,0,2,4,1,400,250.0,train,2,E+
31.6970348358,2,600,2,1,5,3,0,2,4,1,400,250.0,train,2,E+
158.535003662,4,600,5,1,5,3,0,2,4,1,400,250.0,train,4,E+
30.4970741272,0,600,3,1,5,3,0,2,4,1,400,250.0,train,0,E+
271.147012711,5,600,1,1,5,3,0,2,4,1,400,250.0,train,5,E+
430.392980576,4,600,5,1,5,3,0,2,4,1,400,250.0,train,4,E+
431.634902954,5,600,1,1,5,3,0,2,4,1,400,250.0,train,5,E+
47.7859973907,5,600,1,1,5,3,0,2,4,1,400,250.0,train,5,E+
79.7710418701,2,600,2,1,5,3,0,2,4,1,400,250.0,train,2,E+
495.357036591,2,600,2,1,5,3,0,2,4,1,400,250.0,train,2,E+
303.644895554,4,600,5,1,5,3,0,2,4,1,400,250.0,train,4,E+
0.0519752502441,4,600,5,1,5,3,0,2,4,1,400,250.0,train,4,E+
175.55308342,1,600,4,1,5,3,0,2,4,1,400,250.0,train,1,E+
206.4909935,5,600,1,1,5,3,0,2,4,1,400,250.0,train,5,E+
62.3731613159,1,600,4,1,5,3,0,2,4,1,400,250.0,train,1,E+
127.369165421,2,600,2,1,5,3,0,2,4,1,400,250.0,train,2,E+
0.053882598877,1,600,4,1,5,3,0,2,4,1,400,250.0,train,1,E+
127.653121948,5,600,1,1,5,3,0,2,4,1,400,250.0,train,5,E+
31.6920280457,5,600,1,1,5,3,0,2,4,1,400,250.0,train,5,E+
127.596855164,4,600,5,1,5,3,0,2,4,1,400,250.0,train,4,E+
111.566066742,3,600,0,0,5,3,0,2,4,1,400,250.0,train,2,E+
47.7299690247,1,600,4,1,5,3,0,2,4,1,400,250.0,train,1,E+
351.680994034,3,600,0,1,5,3,0,2,4,1,400,250.0,train,3,E+
350.59595108,4,600,5,1,5,3,0,2,4,1,400,250.0,train,4,E+
190.859079361,5,600,1,1,5,3,0,2,4,1,400,250.0,train,5,E+
79.1420936584,1,600,4,1,5,3,0,2,4,1,400,250.0,train,1,E+
14.5499706268,0,600,3,1,5,3,0,2,4,1,400,250.0,train,0,E+
319.266080856,4,600,5,1,5,3,0,2,4,1,400,250.0,train,4,E+
511.083126068,4,600,5,1,5,3,0,2,4,1,400,250.0,train,4,E+
62.3388290405,5,600,1,1,5,3,0,2,4,1,400,250.0,train,5,E+
111.706018448,0,600,3,1,5,3,0,2,4,1,400,250.0,train,0,E+
159.49511528,2,600,2,1,5,3,0,2,4,1,400,250.0,train,2,E+
0.053882598877,1,600,4,1,5,3,0,2,4,1,400,250.0,train,1,E+
159.493923187,0,600,3,1,5,3,0,2,4,1,400,250.0,train,0,E+
431.147098541,4,600,5,1,5,3,0,2,4,1,400,250.0,train,4,E+
0.0550746917725,4,600,5,1,5,3,0,2,4,1,400,250.0,train,4,E+
222.512960434,5,600,1,1,5,3,0,2,4,1,400,250.0,train,5,E+
127.675056458,4,600,5,1,5,3,0,2,4,1,400,250.0,train,4,E+
271.540164948,3,600,0,1,5,3,0,2,4,1,400,250.0,train,3,E+
143.579006195,4,600,5,1,5,3,0,2,4,1,400,250.0,train,4,E+
367.559194565,4,600,5,1,5,3,0,2,4,1,400,250.0,train,4,E+
127.680063248,5,600,1,1,5,3,0,2,4,1,400,250.0,train,5,E+
95.7300662994,0,600,3,1,5,3,0,2,4,1,400,250.0,train,0,E+
223.505973816,4,600,5,1,5,3,0,2,4,1,400,250.0,train,4,E+
143.717050552,3,600,0,1,5,3,0,2,4,1,400,250.0,train,3,E+
367.198944092,2,600,2,1,5,3,0,2,4,1,400,250.0,train,2,E+
127.199172974,5,600,1,1,5,3,0,2,4,1,400,250.0,train,5,E+
47.1529960632,1,600,4,1,5,3,0,2,4,1,400,250.0,train,1,E+
31.2719345093,0,600,3,1,5,3,0,2,4,1,400,250.0,train,0,E+
46.1399555206,0,600,3,1,5,3,0,2,4,1,400,250.0,train,0,E+
414.524793625,3,600,0,1,5,3,0,2,4,1,400,250.0,train,3,E+
206.839084625,4,600,5,1,5,3,0,2,4,1,400,250.0,train,4,E+
63.6301040649,4,600,5,1,5,3,0,2,4,1,400,250.0,train,4,E+
111.033916473,4,600,5,1,5,3,0,2,4,1,400,250.0,train,4,E+
15.6610012054,1,600,4,1,5,3,0,2,4,1,400,250.0,train,1,E+
175.576925278,5,600,1,1,5,3,0,2,4,1,400,250.0,train,5,E+
159.595012665,3,600,0,0,5,3,0,2,4,1,400,250.0,train,2,E+
31.6858291626,1,600,4,1,5,3,0,2,4,1,400,250.0,train,1,E+
366.289138794,1,600,4,1,5,3,0,2,4,1,400,250.0,train,1,E+
206.468105316,5,600,1,1,5,3,0,2,4,1,400,250.0,train,5,E+
191.627025604,3,600,0,1,5,3,0,2,4,1,400,250.0,train,3,E+
47.6889610291,0,600,3,1,5,3,0,2,4,1,400,250.0,train,0,E+
399.621009827,2,600,2,1,5,3,0,2,4,1,400,250.0,train,2,E+
46.5769767761,0,600,3,0,5,3,0,2,4,1,400,250.0,train,1,E+
0.0510215759277,1,600,4,1,5,3,0,2,4,1,400,250.0,train,1,E+
286.735057831,5,600,1,1,5,3,0,2,4,1,400,250.0,train,5,E+
366.940975189,3,600,0,1,5,3,0,2,4,1,400,250.0,train,3,E+
415.071964264,5,600,1,1,5,3,0,2,4,1,400,250.0,train,5,E+
47.679901123,0,600,3,1,5,3,0,2,4,1,400,250.0,train,0,E+
799.658060074,5,600,1,1,5,3,0,2,4,1,400,250.0,train,5,E+
111.296892166,1,600,4,1,5,3,0,2,4,1,400,250.0,train,1,E+
143.59998703,5,600,1,1,5,3,0,2,4,1,400,250.0,train,5,E+
303.025960922,3,600,0,1,5,3,0,2,4,1,400,250.0,train,3,E+
63.3029937744,0,600,3,1,5,3,0,2,4,1,400,250.0,train,0,E+
463.486909866,1,600,4,1,5,3,0,2,4,1,400,250.0,train,1,E+
62.9041194916,2,600,2,0,5,3,0,2,4,1,400,250.0,train,3,E+
63.1239414215,2,600,2,1,5,3,0,2,4,1,400,250.0,train,2,E+
302.444934845,2,600,2,1,5,3,0,2,4,1,400,250.0,train,2,E+
415.457963943,2,600,2,1,5,3,0,2,4,1,400,250.0,train,2,E+
191.547870636,5,600,1,1,5,3,0,2,4,1,400,250.0,train,5,E+
191.665887833,4,600,5,1,5,3,0,2,4,1,400,250.0,train,4,E+
383.551120758,3,600,0,1,5,3,0,2,4,1,400,250.0,train,3,E+
63.1268024445,2,600,2,1,5,3,0,2,4,1,400,250.0,train,2,E+
863.224029541,3,600,0,1,5,3,0,2,4,1,400,250.0,train,3,E+
270.864963531,5,600,1,1,5,3,0,2,4,1,400,250.0,train,5,E+
95.2498912811,4,600,5,1,5,3,0,2,4,1,400,250.0,train,4,E+
142.248868942,4,600,5,1,5,3,0,2,4,1,400,250.0,train,4,E+
126.487970352,3,600,0,1,5,3,0,2,4,1,400,250.0,train,3,E+
143.712997437,4,600,5,1,5,3,0,2,4,1,400,250.0,train,4,E+
95.7400798798,4,600,5,1,5,3,0,2,4,1,400,250.0,train,4,E+
207.603931427,1,600,4,1,5,3,0,2,4,1,400,250.0,train,1,E+
111.120939255,4,600,5,1,5,3,0,2,4,1,400,250.0,train,4,E+
223.610162735,3,600,0,1,5,3,0,2,4,1,400,250.0,train,3,E+
95.2398777008,0,600,3,1,5,3,0,2,4,1,400,250.0,train,0,E+
303.464889526,5,600,1,1,5,3,0,2,4,1,400,250.0,train,5,E+
30.7099819183,0,600,3,1,5,3,0,2,4,1,400,250.0,train,0,E+
111.732006073,0,600,3,1,5,3,0,2,4,1,400,250.0,train,0,E+
447.643041611,3,600,0,0,5,3,0,2,4,1,400,250.0,train,2,E+
159.621953964,5,600,1,1,5,3,0,2,4,1,400,250.0,train,5,E+
863.625049591,2,600,2,1,5,3,0,2,4,1,400,250.0,train,2,E+
383.579015732,3,600,0,1,5,3,0,2,4,1,400,250.0,train,3,E+
143.630027771,2,600,2,1,5,3,0,2,4,1,400,250.0,train,2,E+
95.7410335541,1,600,4,1,5,3,0,2,4,1,400,250.0,train,1,E+
63.6029243469,2,600,2,1,5,3,0,2,4,1,400,250.0,train,2,E+
239.563941956,5,600,1,1,5,3,0,2,4,1,400,250.0,train,5,E+
94.9261188507,1,600,4,1,5,3,0,2,4,1,400,250.0,train,1,E+
287.673950195,4,600,5,0,5,3,0,2,4,1,400,250.0,train,3,E+
159.6159935,4,600,5,1,5,3,0,2,4,1,400,250.0,train,4,E+
64.285993576,0,600,3,1,5,3,0,2,4,1,400,250.0,train,0,E+
143.727064133,2,600,2,1,5,3,0,2,4,1,400,250.0,train,2,E+
174.317121506,5,600,1,1,5,3,0,2,4,1,400,250.0,train,5,E+
111.054897308,2,600,2,0,5,3,0,2,4,1,400,250.0,train,1,E+
93.8768386841,0,600,3,1,5,3,0,2,4,1,400,250.0,train,0,E+
143.562078476,0,600,3,1,5,3,0,2,4,1,400,250.0,train,0,E+
351.669073105,3,600,0,1,5,3,0,2,4,1,400,250.0,train,3,E+
31.6960811615,2,600,2,1,5,3,0,2,4,1,400,250.0,train,2,E+
318.386077881,3,600,0,1,5,3,0,2,4,1,400,250.0,train,3,E+
382.972955704,4,600,5,1,5,3,0,2,4,1,400,250.0,train,4,E+
78.5720348358,4,600,5,1,5,3,0,2,4,1,400,250.0,train,4,E+
79.72407341,2,600,2,0,5,3,0,2,4,1,400,250.0,train,3,E+
782.870769501,3,600,0,1,5,3,0,2,4,1,400,250.0,train,3,E+
431.577920914,3,600,0,1,5,3,0,2,4,1,400,250.0,train,3,E+
270.912885666,1,600,4,1,5,3,0,2,4,1,400,250.0,train,1,E+
143.517971039,0,600,3,1,5,3,0,2,4,1,400,250.0,train,0,E+
415.128946304,3,600,0,1,5,3,0,2,4,1,400,250.0,train,3,E+
127.706050873,0,600,3,1,5,3,0,2,4,1,400,250.0,train,0,E+
143.585920334,1,600,4,1,5,3,0,2,4,1,400,250.0,train,1,E+
2319.37599182,2,600,2,1,5,3,0,2,4,1,400,250.0,train,2,E+
126.799106598,0,600,3,1,5,3,0,2,4,1,400,250.0,train,0,E+
319.67997551,3,600,0,1,5,3,0,2,4,1,400,250.0,train,3,E+
30.7309627533,4,600,5,1,5,3,0,2,4,1,400,250.0,train,4,E+
191.381931305,3,600,0,0,5,3,0,2,4,1,400,250.0,train,2,E+
95.7720279694,1,600,4,1,5,3,0,2,4,1,400,250.0,train,1,E+
79.6399116516,0,600,3,1,5,3,0,2,4,1,400,250.0,train,0,E+
223.625183105,3,600,0,1,5,3,0,2,4,1,400,250.0,train,3,E+
159.62100029,3,600,0,1,5,3,0,2,4,1,400,250.0,train,3,E+
30.4901599884,0,600,3,1,5,3,0,2,4,1,400,250.0,train,0,E+
575.535058975,1,600,4,1,5,3,0,2,4,1,400,250.0,train,1,E+
46.9989776611,1,600,4,1,5,3,0,2,4,1,400,250.0,train,1,E+
31.7471027374,0,600,3,1,5,3,0,2,4,1,400,250.0,train,0,E+
15.6450271606,0,600,3,1,5,3,0,2,4,1,400,250.0,train,0,E+
159.49678421,0,600,3,1,5,3,0,2,4,1,400,250.0,train,0,E+
175.60505867,3,600,0,1,5,3,0,2,4,1,400,250.0,train,3,E+
719.084978104,1,600,4,1,5,3,0,2,4,1,400,250.0,train,1,E+
575.58298111,4,600,5,1,5,3,0,2,4,1,400,250.0,train,4,E+
111.706018448,0,600,3,1,5,3,0,2,4,1,400,250.0,train,0,E+
430.88388443,1,600,4,1,5,3,0,2,4,1,400,250.0,train,1,E+
79.0560245514,1,600,4,1,5,3,0,2,4,1,400,250.0,train,1,E+
703.682899475,3,600,0,1,5,3,0,2,4,1,400,250.0,train,3,E+
239.120006561,5,600,1,1,5,3,0,2,4,1,400,250.0,train,5,E+
191.603899002,5,600,1,1,5,3,0,2,4,1,400,250.0,train,5,E+
79.5991420746,1,600,4,1,5,3,0,2,4,1,400,250.0,train,1,E+
399.615049362,5,600,1,1,5,3,0,2,4,1,400,250.0,train,5,E+
15.4819488525,0,600,3,1,5,3,0,2,4,1,400,250.0,train,0,E+
1646.71897888,0,1000,3,1,5,3,0,2,4,1,0,250.0,test,0,E+
1661.74602509,3,1000,0,1,5,3,0,2,4,1,0,250.0,test,3,E+
1134.84787941,5,1000,1,1,5,3,0,2,4,1,0,250.0,test,5,E+
1967.03314781,2,1000,2,1,5,3,0,2,4,1,0,250.0,test,2,E+
1278.95116806,4,1000,5,1,5,3,0,2,4,1,0,250.0,test,4,E+
1454.77414131,1,1000,4,1,5,3,0,2,4,1,0,250.0,test,1,E+
575.584173203,2,1000,2,1,5,3,0,2,4,1,0,250.0,test,2,E+
735.581874847,5,1000,1,1,5,3,0,2,4,1,0,250.0,test,5,E+
606.0359478,3,1000,0,1,5,3,0,2,4,1,0,250.0,test,3,E+
494.872808456,5,1000,1,1,5,3,0,2,4,1,0,250.0,test,5,E+
638.75579834,4,1000,5,0,5,3,0,2,4,1,0,250.0,test,3,E+
542.362213135,4,1000,5,1,5,3,0,2,4,1,0,250.0,test,4,E+
543.651103973,2,1000,2,1,5,3,0,2,4,1,0,250.0,test,2,E+
478.177070618,2,1000,2,1,5,3,0,2,4,1,0,250.0,test,2,E+
430.93585968,1,1000,4,1,5,3,0,2,4,1,0,250.0,test,1,E+
399.139881134,0,1000,3,1,5,3,0,2,4,1,0,250.0,test,0,E+
461.813926697,1,1000,4,1,5,3,0,2,4,1,0,250.0,test,1,E+
1262.37106323,5,1000,1,1,5,3,0,2,4,1,0,250.0,test,5,E+
510.624885559,5,1000,1,1,5,3,0,2,4,1,0,250.0,test,5,E+
958.709001541,3,1000,0,1,5,3,0,2,4,1,0,250.0,test,3,E+
495.140075684,0,1000,3,1,5,3,0,2,4,1,0,250.0,test,0,E+
383.139848709,1,1000,4,1,5,3,0,2,4,1,0,250.0,test,1,E+
751.093149185,4,1000,5,1,5,3,0,2,4,1,0,250.0,test,4,E+
574.594974518,5,1000,1,1,5,3,0,2,4,1,0,250.0,test,5,E+
447.567939758,5,1000,1,1,5,3,0,2,4,1,0,250.0,test,5,E+
446.707963943,1,1000,4,0,5,3,0,2,4,1,0,250.0,test,4,E+
526.666879654,2,1000,2,1,5,3,0,2,4,1,0,250.0,test,2,E+
510.995149612,2,1000,2,1,5,3,0,2,4,1,0,250.0,test,2,E+
526.355028152,4,1000,5,0,5,3,0,2,4,1,0,250.0,test,2,E+
1006.38890266,4,1000,5,1,5,3,0,2,4,1,0,250.0,test,4,E+
558.631896973,0,1000,3,1,5,3,0,2,4,1,0,250.0,test,0,E+
46.8900203705,5,1000,1,0,5,3,0,2,4,1,0,250.0,test,4,E+
543.59292984,2,1000,2,1,5,3,0,2,4,1,0,250.0,test,2,E+
495.026826859,5,1000,1,1,5,3,0,2,4,1,0,250.0,test,5,E+
383.596897125,4,1000,5,1,5,3,0,2,4,1,0,250.0,test,4,E+
478.960037231,5,1000,1,1,5,3,0,2,4,1,0,250.0,test,5,E+
479.627132416,5,1000,1,1,5,3,0,2,4,1,0,250.0,test,5,E+
478.96695137,0,1000,3,1,5,3,0,2,4,1,0,250.0,test,0,E+
414.505004883,0,1000,3,1,5,3,0,2,4,1,0,250.0,test,0,E+
670.124053955,2,1000,2,1,5,3,0,2,4,1,0,250.0,test,2,E+
991.101026535,3,1000,0,1,5,3,0,2,4,1,0,250.0,test,3,E+
478.601932526,0,1000,3,1,5,3,0,2,4,1,0,250.0,test,0,E+
1150.39110184,4,1000,5,1,5,3,0,2,4,1,0,250.0,test,4,E+
542.144060135,4,1000,5,1,5,3,0,2,4,1,0,250.0,test,4,E+
479.030847549,4,1000,5,1,5,3,0,2,4,1,0,250.0,test,4,E+
446.712970734,4,1000,5,1,5,3,0,2,4,1,0,250.0,test,4,E+
1151.56888962,3,1000,0,1,5,3,0,2,4,1,0,250.0,test,3,E+
687.007904053,4,1000,5,1,5,3,0,2,4,1,0,250.0,test,4,E+
623.126029968,5,1000,1,1,5,3,0,2,4,1,0,250.0,test,5,E+
751.143932343,4,1000,5,1,5,3,0,2,4,1,0,250.0,test,4,E+
702.950000763,2,1000,2,1,5,3,0,2,4,1,0,250.0,test,2,E+
639.569044113,1,1000,4,1,5,3,0,2,4,1,0,250.0,test,1,E+
5342.88787842,3,1000,0,1,5,3,0,2,4,1,0,250.0,test,3,E+
5486.57894135,2,1000,2,1,5,3,0,2,4,1,0,250.0,test,2,E+
1582.42487907,1,1000,4,1,5,3,0,2,4,1,0,250.0,test,1,E+
943.675994873,3,1000,0,1,5,3,0,2,4,1,0,250.0,test,3,E+
415.632963181,1,1000,4,1,5,3,0,2,4,1,0,250.0,test,1,E+
431.641817093,1,1000,4,1,5,3,0,2,4,1,0,250.0,test,1,E+
1006.56294823,4,1000,5,1,5,3,0,2,4,1,0,250.0,test,4,E+
462.065935135,1,1000,4,1,5,3,0,2,4,1,0,250.0,test,1,E+
590.579032898,5,1000,1,1,5,3,0,2,4,1,0,250.0,test,5,E+
637.712955475,4,1000,5,0,5,3,0,2,4,1,0,250.0,test,3,E+
766.235113144,5,1000,1,1,5,3,0,2,4,1,0,250.0,test,5,E+
686.763048172,5,1000,1,1,5,3,0,2,4,1,0,250.0,test,5,E+
558.025121689,1,1000,4,1,5,3,0,2,4,1,0,250.0,test,1,E+
510.082006454,1,1000,4,1,5,3,0,2,4,1,0,250.0,test,1,E+
638.276815414,5,1000,1,1,5,3,0,2,4,1,0,250.0,test,5,E+
623.066902161,4,1000,5,1,5,3,0,2,4,1,0,250.0,test,4,E+
669.981956482,3,1000,0,0,5,3,0,2,4,1,0,250.0,test,2,E+
479.055166245,0,1000,3,1,5,3,0,2,4,1,0,250.0,test,0,E+
783.542871475,4,1000,5,1,5,3,0,2,4,1,0,250.0,test,4,E+
479.57110405,0,1000,3,1,5,3,0,2,4,1,0,250.0,test,0,E+
574.438095093,3,1000,0,0,5,3,0,2,4,1,0,250.0,test,2,E+
605.46207428,4,1000,5,1,5,3,0,2,4,1,0,250.0,test,4,E+
972.759008408,5,1000,1,1,5,3,0,2,4,1,0,250.0,test,5,E+
558.465003967,5,1000,1,1,5,3,0,2,4,1,0,250.0,test,5,E+
543.550014496,2,1000,2,1,5,3,0,2,4,1,0,250.0,test,2,E+
479.671001434,0,1000,3,1,5,3,0,2,4,1,0,250.0,test,0,E+
478.606939316,0,1000,3,1,5,3,0,2,4,1,0,250.0,test,0,E+
591.546058655,2,1000,2,1,5,3,0,2,4,1,0,250.0,test,2,E+
542.747974396,1,1000,4,1,5,3,0,2,4,1,0,250.0,test,1,E+
511.617898941,2,1000,2,1,5,3,0,2,4,1,0,250.0,test,2,E+
574.8898983,0,1000,3,1,5,3,0,2,4,1,0,250.0,test,0,E+
910.567998886,5,1000,1,1,5,3,0,2,4,1,0,250.0,test,5,E+
926.553964615,4,1000,5,1,5,3,0,2,4,1,0,250.0,test,4,E+
463.574886322,0,1000,3,1,5,3,0,2,4,1,0,250.0,test,0,E+
478.312969208,1,1000,4,1,5,3,0,2,4,1,0,250.0,test,1,E+
463.613033295,2,1000,2,1,5,3,0,2,4,1,0,250.0,test,2,E+
383.656978607,2,1000,2,1,5,3,0,2,4,1,0,250.0,test,2,E+
367.080926895,2,1000,2,1,5,3,0,2,4,1,0,250.0,test,2,E+
717.372894287,3,1000,0,1,5,3,0,2,4,1,0,250.0,test,3,E+
430.316925049,2,1000,2,1,5,3,0,2,4,1,0,250.0,test,2,E+
590.593099594,3,1000,0,0,5,3,0,2,4,1,0,250.0,test,2,E+
685.286998749,4,1000,5,1,5,3,0,2,4,1,0,250.0,test,4,E+
478.589057922,0,1000,3,1,5,3,0,2,4,1,0,250.0,test,0,E+
606.804847717,2,1000,2,1,5,3,0,2,4,1,0,250.0,test,2,E+
606.322050095,4,1000,5,1,5,3,0,2,4,1,0,250.0,test,4,E+
990.0598526,3,1000,0,1,5,3,0,2,4,1,0,250.0,test,3,E+
591.69793129,4,1000,5,1,5,3,0,2,4,1,0,250.0,test,4,E+
766.645908356,5,1000,1,1,5,3,0,2,4,1,0,250.0,test,5,E+
431.632995605,0,1000,3,1,5,3,0,2,4,1,0,250.0,test,0,E+
654.914855957,0,1000,3,1,5,3,0,2,4,1,0,250.0,test,0,E+
799.600839615,3,1000,0,1,5,3,0,2,4,1,0,250.0,test,3,E+
1135.4868412,2,1000,2,1,5,3,0,2,4,1,0,250.0,test,2,E+
622.468948364,2,1000,2,1,5,3,0,2,4,1,0,250.0,test,2,E+
3311.48386002,1,1000,4,1,5,3,0,2,4,1,0,250.0,test,1,E+
543.030023575,0,1000,3,1,5,3,0,2,4,1,0,250.0,test,0,E+
350.783109665,1,1000,4,1,5,3,0,2,4,1,0,250.0,test,1,E+
334.415912628,4,1000,5,0,5,3,0,2,4,1,0,250.0,test,0,E+
462.572097778,0,1000,3,1,5,3,0,2,4,1,0,250.0,test,0,E+
687.654018402,2,1000,2,1,5,3,0,2,4,1,0,250.0,test,2,E+
799.216032028,3,1000,0,1,5,3,0,2,4,1,0,250.0,test,3,E+
605.923175812,3,1000,0,0,5,3,0,2,4,1,0,250.0,test,2,E+
655.092954636,2,1000,2,1,5,3,0,2,4,1,0,250.0,test,2,E+
447.499990463,2,1000,2,1,5,3,0,2,4,1,0,250.0,test,2,E+
479.669094086,2,1000,2,1,5,3,0,2,4,1,0,250.0,test,2,E+
637.392044067,3,1000,0,1,5,3,0,2,4,1,0,250.0,test,3,E+
494.756937027,2,1000,2,1,5,3,0,2,4,1,0,250.0,test,2,E+
687.649011612,5,1000,1,1,5,3,0,2,4,1,0,250.0,test,5,E+
605.939149857,5,1000,1,1,5,3,0,2,4,1,0,250.0,test,5,E+
670.95708847,1,1000,4,1,5,3,0,2,4,1,0,250.0,test,1,E+
510.407924652,1,1000,4,1,5,3,0,2,4,1,0,250.0,test,1,E+
463.567972183,0,1000,3,1,5,3,0,2,4,1,0,250.0,test,0,E+
541.486024857,2,1000,2,1,5,3,0,2,4,1,0,250.0,test,2,E+
1102.80799866,4,1000,5,1,5,3,0,2,4,1,0,250.0,test,4,E+
637.815952301,1,1000,4,1,5,3,0,2,4,1,0,250.0,test,1,E+
766.325950623,5,1000,1,1,5,3,0,2,4,1,0,250.0,test,5,E+
542.643070221,1,1000,4,1,5,3,0,2,4,1,0,250.0,test,1,E+
351.470947266,4,1000,5,0,5,3,0,2,4,1,0,250.0,test,0,E+
479.0558815,0,1000,3,1,5,3,0,2,4,1,0,250.0,test,0,E+
526.460886002,0,1000,3,1,5,3,0,2,4,1,0,250.0,test,0,E+
623.173952103,1,1000,4,1,5,3,0,2,4,1,0,250.0,test,1,E+
221.789836884,0,1000,3,0,5,3,0,2,4,1,0,250.0,test,4,E+
942.252874374,4,1000,5,1,5,3,0,2,4,1,0,250.0,test,4,E+
495.532035828,4,1000,5,1,5,3,0,2,4,1,0,250.0,test,4,E+
1149.20091629,5,1000,1,1,5,3,0,2,4,1,0,250.0,test,5,E+
526.323080063,2,1000,2,1,5,3,0,2,4,1,0,250.0,test,2,E+
494.49801445,1,1000,4,1,5,3,0,2,4,1,0,250.0,test,1,E+
862.711906433,3,1000,0,1,5,3,0,2,4,1,0,250.0,test,3,E+
542.392969131,3,1000,0,1,5,3,0,2,4,1,0,250.0,test,3,E+
478.597164154,4,1000,5,1,5,3,0,2,4,1,0,250.0,test,4,E+
558.82692337,2,1000,2,0,5,3,0,2,4,1,0,250.0,test,3,E+
622.85900116,5,1000,1,1,5,3,0,2,4,1,0,250.0,test,5,E+
478.633880615,0,1000,3,1,5,3,0,2,4,1,0,250.0,test,0,E+
623.034000397,5,1000,1,1,5,3,0,2,4,1,0,250.0,test,5,E+
479.246139526,4,1000,5,1,5,3,0,2,4,1,0,250.0,test,4,E+
542.222976685,2,1000,2,1,5,3,0,2,4,1,0,250.0,test,2,E+
431.253910065,2,1000,2,1,5,3,0,2,4,1,0,250.0,test,2,E+
463.199138641,1,1000,4,1,5,3,0,2,4,1,0,250.0,test,1,E+
382.97700882,1,1000,4,1,5,3,0,2,4,1,0,250.0,test,1,E+
735.594034195,5,1000,1,1,5,3,0,2,4,1,0,250.0,test,5,E+
494.747161865,1,1000,4,1,5,3,0,2,4,1,0,250.0,test,1,E+
751.678943634,4,1000,5,1,5,3,0,2,4,1,0,250.0,test,4,E+
973.956823349,3,1000,0,1,5,3,0,2,4,1,0,250.0,test,3,E+
542.376041412,2,1000,2,1,5,3,0,2,4,1,0,250.0,test,2,E+
574.405193329,2,1000,2,1,5,3,0,2,4,1,0,250.0,test,2,E+
574.281930923,0,1000,3,1,5,3,0,2,4,1,0,250.0,test,0,E+
639.611005783,4,1000,5,1,5,3,0,2,4,1,0,250.0,test,4,E+
493.391990662,2,1000,2,1,5,3,0,2,4,1,0,250.0,test,2,E+
671.120166779,5,1000,1,1,5,3,0,2,4,1,0,250.0,test,5,E+
542.398929596,5,1000,1,1,5,3,0,2,4,1,0,250.0,test,5,E+
654.986858368,1,1000,4,1,5,3,0,2,4,1,0,250.0,test,1,E+
557.388067245,2,1000,2,1,5,3,0,2,4,1,0,250.0,test,2,E+
815.189123154,3,1000,0,1,5,3,0,2,4,1,0,250.0,test,3,E+
638.574123383,5,1000,1,1,5,3,0,2,4,1,0,250.0,test,5,E+
461.891889572,1,1000,4,1,5,3,0,2,4,1,0,250.0,test,1,E+
1437.66713142,4,1000,5,1,5,3,0,2,4,1,0,250.0,test,4,E+
494.214057922,0,1000,3,1,5,3,0,2,4,1,0,250.0,test,0,E+
494.234800339,0,1000,3,1,5,3,0,2,4,1,0,250.0,test,0,E+
943.670988083,3,1000,0,1,5,3,0,2,4,1,0,250.0,test,3,E+
478.415966034,3,1000,0,1,5,3,0,2,4,1,0,250.0,test,3,E+
622.440099716,4,1000,5,1,5,3,0,2,4,1,0,250.0,test,4,E+
542.351007462,4,1000,5,1,5,3,0,2,4,1,0,250.0,test,4,E+
556.952953339,3,1000,0,1,5,3,0,2,4,1,0,250.0,test,3,E+
494.795084,1,1000,4,1,5,3,0,2,4,1,0,250.0,test,1,E+
462.517976761,1,1000,4,1,5,3,0,2,4,1,0,250.0,test,1,E+
478.327989578,1,1000,4,1,5,3,0,2,4,1,0,250.0,test,1,E+
702.752828598,5,1000,1,1,5,3,0,2,4,1,0,250.0,test,5,E+
1151.06487274,5,1000,1,1,5,3,0,2,4,1,0,250.0,test,5,E+
606.463909149,2,1000,2,1,5,3,0,2,4,1,0,250.0,test,2,E+
590.632915497,5,1000,1,1,5,3,0,2,4,1,0,250.0,test,5,E+
479.574918747,4,1000,5,1,5,3,0,2,4,1,0,250.0,test,4,E+
974.805116653,2,1000,2,1,5,3,0,2,4,1,0,250.0,test,2,E+
559.075117111,4,1000,5,1,5,3,0,2,4,1,0,250.0,test,4,E+
590.795040131,2,1000,2,1,5,3,0,2,4,1,0,250.0,test,2,E+
575.092077255,5,1000,1,1,5,3,0,2,4,1,0,250.0,test,5,E+
782.49502182,3,1000,0,1,5,3,0,2,4,1,0,250.0,test,3,E+
1055.00388145,3,1000,0,1,5,3,0,2,4,1,0,250.0,test,3,E+
495.484113693,1,1000,4,1,5,3,0,2,4,1,0,250.0,test,1,E+
589.736223221,4,1000,5,1,5,3,0,2,4,1,0,250.0,test,4,E+
974.735021591,2,1000,2,1,5,3,0,2,4,1,0,250.0,test,2,E+
574.802160263,1,1000,4,1,5,3,0,2,4,1,0,250.0,test,1,E+
589.277029037,1,1000,4,1,5,3,0,2,4,1,0,250.0,test,1,E+
766.433000565,5,1000,1,1,5,3,0,2,4,1,0,250.0,test,5,E+
509.171962738,5,1000,1,1,5,3,0,2,4,1,0,250.0,test,5,E+
686.723947525,2,1000,2,1,5,3,0,2,4,1,0,250.0,test,2,E+
446.532011032,1,1000,4,1,5,3,0,2,4,1,0,250.0,test,1,E+
526.404857635,0,1000,3,1,5,3,0,2,4,1,0,250.0,test,0,E+
1070.85704803,4,1000,5,1,5,3,0,2,4,1,0,250.0,test,4,E+
541.801929474,2,1000,2,1,5,3,0,2,4,1,0,250.0,test,2,E+
383.141994476,2,1000,2,1,5,3,0,2,4,1,0,250.0,test,2,E+
589.858055115,5,1000,1,1,5,3,0,2,4,1,0,250.0,test,5,E+
606.391906738,3,1000,0,1,5,3,0,2,4,1,0,250.0,test,3,E+
399.578094482,4,1000,5,1,5,3,0,2,4,1,0,250.0,test,4,E+
862.983942032,5,1000,1,1,5,3,0,2,4,1,0,250.0,test,5,E+
525.484085083,2,1000,2,1,5,3,0,2,4,1,0,250.0,test,2,E+
445.775032043,2,1000,2,1,5,3,0,2,4,1,0,250.0,test,2,E+
798.752069473,3,1000,0,1,5,3,0,2,4,1,0,250.0,test,3,E+
478.499889374,1,1000,4,1,5,3,0,2,4,1,0,250.0,test,1,E+
591.610908508,5,1000,1,1,5,3,0,2,4,1,0,250.0,test,5,E+
462.543964386,5,1000,1,1,5,3,0,2,4,1,0,250.0,test,5,E+
479.640007019,2,1000,2,1,5,3,0,2,4,1,0,250.0,test,2,E+
366.6639328,0,1000,3,1,5,3,0,2,4,1,0,250.0,test,0,E+
718.344211578,4,1000,5,1,5,3,0,2,4,1,0,250.0,test,4,E+
478.171110153,4,1000,5,1,5,3,0,2,4,1,0,250.0,test,4,E+
415.58599472,4,1000,5,1,5,3,0,2,4,1,0,250.0,test,4,E+
446.841955185,4,1000,5,1,5,3,0,2,4,1,0,250.0,test,4,E+
527.573823929,0,1000,3,1,5,3,0,2,4,1,0,250.0,test,0,E+
671.014070511,2,1000,2,1,5,3,0,2,4,1,0,250.0,test,2,E+
767.590999603,3,1000,0,1,5,3,0,2,4,1,0,250.0,test,3,E+
670.432806015,4,1000,5,1,5,3,0,2,4,1,0,250.0,test,4,E+
589.445114136,2,1000,2,1,5,3,0,2,4,1,0,250.0,test,2,E+
510.55598259,0,1000,3,1,5,3,0,2,4,1,0,250.0,test,0,E+
445.214033127,1,1000,4,1,5,3,0,2,4,1,0,250.0,test,1,E+
446.844100952,1,1000,4,1,5,3,0,2,4,1,0,250.0,test,1,E+
351.604938507,2,1000,2,0,5,3,0,2,4,1,0,250.0,test,1,E+
526.432991028,4,1000,5,1,5,3,0,2,4,1,0,250.0,test,4,E+
749.550819397,1,1000,4,1,5,3,0,2,4,1,0,250.0,test,1,E+
527.596950531,2,1000,2,1,5,3,0,2,4,1,0,250.0,test,2,E+
479.061126709,0,1000,3,1,5,3,0,2,4,1,0,250.0,test,0,E+
559.538841248,4,1000,5,1,5,3,0,2,4,1,0,250.0,test,4,E+
895.016908646,1,1000,4,1,5,3,0,2,4,1,0,250.0,test,1,E+
975.067138672,3,1000,0,1,5,3,0,2,4,1,0,250.0,test,3,E+
623.625993729,5,1000,1,1,5,3,0,2,4,1,0,250.0,test,5,E+
495.615005493,1,1000,4,1,5,3,0,2,4,1,0,250.0,test,1,E+
463.179111481,0,1000,3,1,5,3,0,2,4,1,0,250.0,test,0,E+
639.662027359,5,1000,1,1,5,3,0,2,4,1,0,250.0,test,5,E+
479.080915451,4,1000,5,1,5,3,0,2,4,1,0,250.0,test,4,E+
431.63895607,0,1000,3,1,5,3,0,2,4,1,0,250.0,test,0,E+
479.046106339,0,1000,3,1,5,3,0,2,4,1,0,250.0,test,0,E+
638.766050339,4,1000,5,1,5,3,0,2,4,1,0,250.0,test,4,E+
622.524023056,5,1000,1,1,5,3,0,2,4,1,0,250.0,test,5,E+
463.565826416,0,1000,3,1,5,3,0,2,4,1,0,250.0,test,0,E+
447.176933289,1,1000,4,1,5,3,0,2,4,1,0,250.0,test,1,E+
526.514053345,1,1000,4,1,5,3,0,2,4,1,0,250.0,test,1,E+
639.158010483,5,1000,1,1,5,3,0,2,4,1,0,250.0,test,5,E+
429.68583107,1,1000,4,1,5,3,0,2,4,1,0,250.0,test,1,E+
557.252883911,2,1000,2,1,5,3,0,2,4,1,0,250.0,test,2,E+
430.643081665,2,1000,2,1,5,3,0,2,4,1,0,250.0,test,2,E+
463.193178177,0,1000,3,1,5,3,0,2,4,1,0,250.0,test,0,E+
