RT,correct_response,ms-prestimblank,curstim,correct,SRmap_1,SRmap_0,SRmap_3,SRmap_2,SRmap_5,SRmap_4,ms-precue,ntrials,type,response,condition
4543.45703125,1,1000,2,1,0,4,5,1,2,3,0,250.0,train,1,H+
3424.44801331,5,1000,3,1,0,4,5,1,2,3,0,250.0,train,5,H+
1264.19210434,1,1000,2,1,0,4,5,1,2,3,0,250.0,train,1,H+
1536.32092476,5,1000,3,1,0,4,5,1,2,3,0,250.0,train,5,H+
1312.26801872,1,1000,2,1,0,4,5,1,2,3,0,250.0,train,1,H+
1184.3650341,2,1000,5,1,0,4,5,1,2,3,0,250.0,train,2,H+
1232.12718964,5,1000,3,1,0,4,5,1,2,3,0,250.0,train,5,H+
1088.31214905,5,1000,3,1,0,4,5,1,2,3,0,250.0,train,5,H+
752.291917801,2,1000,5,0,0,4,5,1,2,3,0,250.0,train,5,H+
2144.28305626,3,1000,4,1,0,4,5,1,2,3,0,250.0,train,3,H+
1312.2010231,4,1000,0,1,0,4,5,1,2,3,0,250.0,train,4,H+
1376.05881691,2,1000,5,1,0,4,5,1,2,3,0,250.0,train,2,H+
1168.29800606,2,1000,5,1,0,4,5,1,2,3,0,250.0,train,2,H+
1184.04483795,3,1000,4,0,0,4,5,1,2,3,0,250.0,train,4,H+
992.419958115,1,1000,2,1,0,4,5,1,2,3,0,250.0,train,1,H+
576.292037964,1,1000,2,1,0,4,5,1,2,3,0,250.0,train,1,H+
1456.11810684,0,1000,1,1,0,4,5,1,2,3,0,250.0,train,0,H+
768.393993378,1,1000,2,1,0,4,5,1,2,3,0,250.0,train,1,H+
1296.26393318,4,1000,0,1,0,4,5,1,2,3,0,250.0,train,4,H+
1344.19894218,5,1000,3,1,0,4,5,1,2,3,0,250.0,train,5,H+
736.302137375,1,1000,2,1,0,4,5,1,2,3,0,250.0,train,1,H+
1136.12008095,3,1000,4,0,0,4,5,1,2,3,0,250.0,train,4,H+
1056.26893044,0,1000,1,1,0,4,5,1,2,3,0,250.0,train,0,H+
1440.25492668,5,1000,3,1,0,4,5,1,2,3,0,250.0,train,5,H+
976.25207901,4,1000,0,1,0,4,5,1,2,3,0,250.0,train,4,H+
1072.46804237,3,1000,4,1,0,4,5,1,2,3,0,250.0,train,3,H+
832.344055176,0,1000,1,1,0,4,5,1,2,3,0,250.0,train,0,H+
1328.25112343,5,1000,3,1,0,4,5,1,2,3,0,250.0,train,5,H+
608.224153519,5,1000,3,1,0,4,5,1,2,3,0,250.0,train,5,H+
784.16800499,1,1000,2,1,0,4,5,1,2,3,0,250.0,train,1,H+
880.367040634,2,1000,5,1,0,4,5,1,2,3,0,250.0,train,2,H+
912.438869476,1,1000,2,1,0,4,5,1,2,3,0,250.0,train,1,H+
1232.17511177,3,1000,4,1,0,4,5,1,2,3,0,250.0,train,3,H+
1136.43813133,1,1000,2,1,0,4,5,1,2,3,0,250.0,train,1,H+
912.235975266,0,1000,1,1,0,4,5,1,2,3,0,250.0,train,0,H+
752.528190613,2,1000,5,1,0,4,5,1,2,3,0,250.0,train,2,H+
1168.50614548,5,1000,3,1,0,4,5,1,2,3,0,250.0,train,5,H+
1040.35902023,2,1000,5,1,0,4,5,1,2,3,0,250.0,train,2,H+
656.193971634,1,1000,2,1,0,4,5,1,2,3,0,250.0,train,1,H+
1216.34912491,2,1000,5,1,0,4,5,1,2,3,0,250.0,train,2,H+
704.32806015,2,1000,5,0,0,4,5,1,2,3,0,250.0,train,3,H+
1120.41378021,5,1000,3,1,0,4,5,1,2,3,0,250.0,train,5,H+
592.29016304,3,1000,4,1,0,4,5,1,2,3,0,250.0,train,3,H+
896.43406868,5,1000,3,1,0,4,5,1,2,3,0,250.0,train,5,H+
1295.22418976,2,1000,5,1,0,4,5,1,2,3,0,250.0,train,2,H+
1040.56501389,4,1000,0,1,0,4,5,1,2,3,0,250.0,train,4,H+
704.312086105,2,1000,5,1,0,4,5,1,2,3,0,250.0,train,2,H+
864.356040955,5,1000,3,1,0,4,5,1,2,3,0,250.0,train,5,H+
832.437038422,2,1000,5,1,0,4,5,1,2,3,0,250.0,train,2,H+
576.236009598,1,1000,2,0,0,4,5,1,2,3,0,250.0,train,0,H+
1040.34590721,2,1000,5,1,0,4,5,1,2,3,0,250.0,train,2,H+
640.295028687,1,1000,2,0,0,4,5,1,2,3,0,250.0,train,0,H+
512.407064438,1,1000,2,1,0,4,5,1,2,3,0,250.0,train,1,H+
1104.25496101,3,1000,4,1,0,4,5,1,2,3,0,250.0,train,3,H+
1056.29205704,3,1000,4,1,0,4,5,1,2,3,0,250.0,train,3,H+
720.380067825,1,1000,2,1,0,4,5,1,2,3,0,250.0,train,1,H+
1248.27504158,3,1000,4,1,0,4,5,1,2,3,0,250.0,train,3,H+
704.17881012,1,1000,2,1,0,4,5,1,2,3,0,250.0,train,1,H+
1040.36188126,4,1000,0,1,0,4,5,1,2,3,0,250.0,train,4,H+
1168.364048,5,1000,3,1,0,4,5,1,2,3,0,250.0,train,5,H+
624.477863312,1,1000,2,1,0,4,5,1,2,3,0,250.0,train,1,H+
512.456178665,0,1000,1,1,0,4,5,1,2,3,0,250.0,train,0,H+
656.342029572,2,1000,5,1,0,4,5,1,2,3,0,250.0,train,2,H+
1008.3398819,4,1000,0,1,0,4,5,1,2,3,0,250.0,train,4,H+
528.357028961,1,1000,2,1,0,4,5,1,2,3,0,250.0,train,1,H+
944.370031357,5,1000,3,1,0,4,5,1,2,3,0,250.0,train,5,H+
656.275033951,4,1000,0,1,0,4,5,1,2,3,0,250.0,train,4,H+
912.456989288,0,1000,1,1,0,4,5,1,2,3,0,250.0,train,0,H+
688.377141953,2,1000,5,1,0,4,5,1,2,3,0,250.0,train,2,H+
544.500112534,2,1000,5,1,0,4,5,1,2,3,0,250.0,train,2,H+
656.295061111,5,1000,3,1,0,4,5,1,2,3,0,250.0,train,5,H+
864.449977875,3,1000,4,1,0,4,5,1,2,3,0,250.0,train,3,H+
560.194015503,3,1000,4,1,0,4,5,1,2,3,0,250.0,train,3,H+
1072.44801521,4,1000,0,1,0,4,5,1,2,3,0,250.0,train,4,H+
608.348846436,3,1000,4,1,0,4,5,1,2,3,0,250.0,train,3,H+
672.132968903,5,1000,3,1,0,4,5,1,2,3,0,250.0,train,5,H+
688.449144363,4,1000,0,1,0,4,5,1,2,3,0,250.0,train,4,H+
561.069965363,4,1000,0,1,0,4,5,1,2,3,0,250.0,train,4,H+
768.372058868,2,1000,5,1,0,4,5,1,2,3,0,250.0,train,2,H+
912.403106689,3,1000,4,1,0,4,5,1,2,3,0,250.0,train,3,H+
688.147068024,4,1000,0,1,0,4,5,1,2,3,0,250.0,train,4,H+
672.329902649,1,1000,2,0,0,4,5,1,2,3,0,250.0,train,2,H+
1056.28108978,4,1000,0,1,0,4,5,1,2,3,0,250.0,train,4,H+
768.328905106,5,1000,3,1,0,4,5,1,2,3,0,250.0,train,5,H+
800.390958786,4,1000,0,1,0,4,5,1,2,3,0,250.0,train,4,H+
1104.37917709,3,1000,4,1,0,4,5,1,2,3,0,250.0,train,3,H+
800.431966782,0,1000,1,1,0,4,5,1,2,3,0,250.0,train,0,H+
1024.40690994,4,1000,0,1,0,4,5,1,2,3,0,250.0,train,4,H+
720.118999481,0,1000,1,1,0,4,5,1,2,3,0,250.0,train,0,H+
640.072822571,0,1000,1,1,0,4,5,1,2,3,0,250.0,train,0,H+
704.424858093,2,1000,5,1,0,4,5,1,2,3,0,250.0,train,2,H+
784.870147705,0,1000,1,1,0,4,5,1,2,3,0,250.0,train,0,H+
480.412006378,0,1000,1,1,0,4,5,1,2,3,0,250.0,train,0,H+
720.366954803,2,1000,5,0,0,4,5,1,2,3,0,250.0,train,3,H+
864.342927933,1,1000,2,1,0,4,5,1,2,3,0,250.0,train,1,H+
721.31896019,2,1000,5,1,0,4,5,1,2,3,0,250.0,train,2,H+
688.336849213,0,1000,1,1,0,4,5,1,2,3,0,250.0,train,0,H+
688.27009201,0,1000,1,1,0,4,5,1,2,3,0,250.0,train,0,H+
960.150003433,5,1000,3,1,0,4,5,1,2,3,0,250.0,train,5,H+
608.39009285,5,1000,3,1,0,4,5,1,2,3,0,250.0,train,5,H+
1072.24011421,1,1000,2,1,0,4,5,1,2,3,0,250.0,train,1,H+
624.381065369,1,1000,2,1,0,4,5,1,2,3,0,250.0,train,1,H+
928.488969803,3,1000,4,1,0,4,5,1,2,3,0,250.0,train,3,H+
672.399997711,3,1000,4,1,0,4,5,1,2,3,0,250.0,train,3,H+
736.491918564,0,1000,1,1,0,4,5,1,2,3,0,250.0,train,0,H+
1072.46088982,5,1000,3,1,0,4,5,1,2,3,0,250.0,train,5,H+
848.518848419,3,1000,4,1,0,4,5,1,2,3,0,250.0,train,3,H+
640.347003937,5,1000,3,1,0,4,5,1,2,3,0,250.0,train,5,H+
912.397861481,2,1000,5,1,0,4,5,1,2,3,0,250.0,train,2,H+
1008.39281082,3,1000,4,1,0,4,5,1,2,3,0,250.0,train,3,H+
656.233072281,2,1000,5,1,0,4,5,1,2,3,0,250.0,train,2,H+
528.285980225,0,1000,1,1,0,4,5,1,2,3,0,250.0,train,0,H+
528.234004974,0,1000,1,1,0,4,5,1,2,3,0,250.0,train,0,H+
656.339883804,2,1000,5,1,0,4,5,1,2,3,0,250.0,train,2,H+
624.473810196,2,1000,5,1,0,4,5,1,2,3,0,250.0,train,2,H+
624.522924423,3,1000,4,1,0,4,5,1,2,3,0,250.0,train,3,H+
448.367118835,4,1000,0,1,0,4,5,1,2,3,0,250.0,train,4,H+
640.455007553,1,1000,2,1,0,4,5,1,2,3,0,250.0,train,1,H+
896.506071091,3,1000,4,1,0,4,5,1,2,3,0,250.0,train,3,H+
704.273939133,5,1000,3,1,0,4,5,1,2,3,0,250.0,train,5,H+
704.468011856,0,1000,1,0,0,4,5,1,2,3,0,250.0,train,1,H+
960.035085678,2,1000,5,1,0,4,5,1,2,3,0,250.0,train,2,H+
1263.58103752,3,1000,4,1,0,4,5,1,2,3,0,250.0,train,3,H+
672.37496376,2,1000,5,1,0,4,5,1,2,3,0,250.0,train,2,H+
400.270938873,2,1000,5,1,0,4,5,1,2,3,0,250.0,train,2,H+
640.266895294,4,1000,0,1,0,4,5,1,2,3,0,250.0,train,4,H+
880.425930023,5,1000,3,1,0,4,5,1,2,3,0,250.0,train,5,H+
736.441135406,3,1000,4,1,0,4,5,1,2,3,0,250.0,train,3,H+
352.299213409,4,1000,0,1,0,4,5,1,2,3,0,250.0,train,4,H+
736.33313179,0,1000,1,0,0,4,5,1,2,3,0,250.0,train,1,H+
1152.3680687,4,1000,0,1,0,4,5,1,2,3,0,250.0,train,4,H+
1040.44103622,3,1000,4,1,0,4,5,1,2,3,0,250.0,train,3,H+
768.277168274,1,1000,2,1,0,4,5,1,2,3,0,250.0,train,1,H+
784.461021423,3,1000,4,1,0,4,5,1,2,3,0,250.0,train,3,H+
672.341108322,2,1000,5,1,0,4,5,1,2,3,0,250.0,train,2,H+
496.31690979,2,1000,5,1,0,4,5,1,2,3,0,250.0,train,2,H+
1088.35697174,0,1000,1,1,0,4,5,1,2,3,0,250.0,train,0,H+
656.296014786,1,1000,2,1,0,4,5,1,2,3,0,250.0,train,1,H+
1072.4260807,4,1000,0,1,0,4,5,1,2,3,0,250.0,train,4,H+
560.333013535,4,1000,0,1,0,4,5,1,2,3,0,250.0,train,4,H+
784.530162811,0,1000,1,1,0,4,5,1,2,3,0,250.0,train,0,H+
624.443054199,4,1000,0,0,0,4,5,1,2,3,0,250.0,train,3,H+
976.433992386,3,1000,4,1,0,4,5,1,2,3,0,250.0,train,3,H+
784.351825714,0,1000,1,1,0,4,5,1,2,3,0,250.0,train,0,H+
1024.33609962,4,1000,0,1,0,4,5,1,2,3,0,250.0,train,4,H+
672.36495018,1,1000,2,1,0,4,5,1,2,3,0,250.0,train,1,H+
576.460123062,0,1000,1,1,0,4,5,1,2,3,0,250.0,train,0,H+
608.404874802,4,1000,0,1,0,4,5,1,2,3,0,250.0,train,4,H+
800.122022629,5,1000,3,1,0,4,5,1,2,3,0,250.0,train,5,H+
640.4941082,0,1000,1,1,0,4,5,1,2,3,0,250.0,train,0,H+
976.022005081,3,1000,4,1,0,4,5,1,2,3,0,250.0,train,3,H+
608.314037323,3,1000,4,1,0,4,5,1,2,3,0,250.0,train,3,H+
480.455875397,3,1000,4,1,0,4,5,1,2,3,0,250.0,train,3,H+
544.111013412,4,1000,0,1,0,4,5,1,2,3,0,250.0,train,4,H+
400.43091774,5,1000,3,1,0,4,5,1,2,3,0,250.0,train,5,H+
1216.01700783,2,1000,5,1,0,4,5,1,2,3,0,250.0,train,2,H+
688.036203384,5,1000,3,1,0,4,5,1,2,3,0,250.0,train,5,H+
623.909950256,0,1000,1,1,0,4,5,1,2,3,0,250.0,train,0,H+
912.533998489,3,1000,4,1,0,4,5,1,2,3,0,250.0,train,3,H+
704.44393158,2,1000,5,1,0,4,5,1,2,3,0,250.0,train,2,H+
560.297012329,0,1000,1,1,0,4,5,1,2,3,0,250.0,train,0,H+
688.420057297,2,1000,5,1,0,4,5,1,2,3,0,250.0,train,2,H+
576.423883438,0,1000,1,1,0,4,5,1,2,3,0,250.0,train,0,H+
624.365091324,1,1000,2,1,0,4,5,1,2,3,0,250.0,train,1,H+
544.438123703,5,1000,3,1,0,4,5,1,2,3,0,250.0,train,5,H+
512.500047684,3,1000,4,1,0,4,5,1,2,3,0,250.0,train,3,H+
704.421043396,4,1000,0,1,0,4,5,1,2,3,0,250.0,train,4,H+
545.125961304,3,1000,4,0,0,4,5,1,2,3,0,250.0,train,4,H+
1327.38804817,4,1000,0,1,0,4,5,1,2,3,0,250.0,train,4,H+
656.303882599,2,1000,5,1,0,4,5,1,2,3,0,250.0,train,2,H+
512.304067612,2,1000,5,1,0,4,5,1,2,3,0,250.0,train,2,H+
800.414085388,4,1000,0,0,0,4,5,1,2,3,0,250.0,train,3,H+
912.327051163,3,1000,4,1,0,4,5,1,2,3,0,250.0,train,3,H+
768.321990967,4,1000,0,1,0,4,5,1,2,3,0,250.0,train,4,H+
816.555023193,3,1000,4,1,0,4,5,1,2,3,0,250.0,train,3,H+
512.420892715,1,1000,2,1,0,4,5,1,2,3,0,250.0,train,1,H+
592.355012894,1,1000,2,1,0,4,5,1,2,3,0,250.0,train,1,H+
704.45394516,2,1000,5,1,0,4,5,1,2,3,0,250.0,train,2,H+
576.454877853,0,1000,1,1,0,4,5,1,2,3,0,250.0,train,0,H+
592.315196991,2,1000,5,1,0,4,5,1,2,3,0,250.0,train,2,H+
960.358142853,4,1000,0,1,0,4,5,1,2,3,0,250.0,train,4,H+
352.449893951,5,1000,3,1,0,4,5,1,2,3,0,250.0,train,5,H+
576.436042786,3,1000,4,1,0,4,5,1,2,3,0,250.0,train,3,H+
816.489219666,4,1000,0,1,0,4,5,1,2,3,0,250.0,train,4,H+
656.454086304,4,1000,0,1,0,4,5,1,2,3,0,250.0,train,4,H+
576.195955276,4,1000,0,1,0,4,5,1,2,3,0,250.0,train,4,H+
720.420122147,2,1000,5,1,0,4,5,1,2,3,0,250.0,train,2,H+
960.469961166,4,1000,0,1,0,4,5,1,2,3,0,250.0,train,4,H+
688.387870789,2,1000,5,1,0,4,5,1,2,3,0,250.0,train,2,H+
1168.4319973,4,1000,0,1,0,4,5,1,2,3,0,250.0,train,4,H+
928.177118301,0,1000,1,1,0,4,5,1,2,3,0,250.0,train,0,H+
640.382051468,2,1000,5,1,0,4,5,1,2,3,0,250.0,train,2,H+
640.294075012,5,1000,3,1,0,4,5,1,2,3,0,250.0,train,5,H+
992.40899086,5,1000,3,0,0,4,5,1,2,3,0,250.0,train,2,H+
352.215051651,5,1000,3,1,0,4,5,1,2,3,0,250.0,train,5,H+
320.429086685,2,1000,5,0,0,4,5,1,2,3,0,250.0,train,5,H+
896.462917328,4,1000,0,1,0,4,5,1,2,3,0,250.0,train,4,H+
800.4591465,0,1000,1,1,0,4,5,1,2,3,0,250.0,train,0,H+
496.415138245,0,1000,1,1,0,4,5,1,2,3,0,250.0,train,0,H+
464.424133301,0,1000,1,1,0,4,5,1,2,3,0,250.0,train,0,H+
464.05506134,0,1000,1,1,0,4,5,1,2,3,0,250.0,train,0,H+
1200.42490959,3,1000,4,1,0,4,5,1,2,3,0,250.0,train,3,H+
880.464076996,4,1000,0,1,0,4,5,1,2,3,0,250.0,train,4,H+
784.320116043,1,1000,2,1,0,4,5,1,2,3,0,250.0,train,1,H+
1072.51787186,3,1000,4,1,0,4,5,1,2,3,0,250.0,train,3,H+
800.192117691,1,1000,2,1,0,4,5,1,2,3,0,250.0,train,1,H+
640.462875366,2,1000,5,1,0,4,5,1,2,3,0,250.0,train,2,H+
1088.44304085,4,1000,0,1,0,4,5,1,2,3,0,250.0,train,4,H+
1168.26081276,3,1000,4,1,0,4,5,1,2,3,0,250.0,train,3,H+
912.326812744,3,1000,4,1,0,4,5,1,2,3,0,250.0,train,3,H+
672.477960587,2,1000,5,1,0,4,5,1,2,3,0,250.0,train,2,H+
576.283931732,0,1000,1,1,0,4,5,1,2,3,0,250.0,train,0,H+
464.385986328,0,1000,1,1,0,4,5,1,2,3,0,250.0,train,0,H+
544.413089752,5,1000,3,1,0,4,5,1,2,3,0,250.0,train,5,H+
623.931884766,4,1000,0,1,0,4,5,1,2,3,0,250.0,train,4,H+
351.746797562,2,1000,5,1,0,4,5,1,2,3,0,250.0,train,2,H+
704.297065735,1,1000,2,1,0,4,5,1,2,3,0,250.0,train,1,H+
783.850908279,3,1000,4,1,0,4,5,1,2,3,0,250.0,train,3,H+
623.986959457,3,1000,4,1,0,4,5,1,2,3,0,250.0,train,3,H+
528.125047684,1,1000,2,1,0,4,5,1,2,3,0,250.0,train,1,H+
1295.94397545,4,1000,0,1,0,4,5,1,2,3,0,250.0,train,4,H+
687.560796738,2,1000,5,1,0,4,5,1,2,3,0,250.0,train,2,H+
1007.73620605,3,1000,4,1,0,4,5,1,2,3,0,250.0,train,3,H+
1215.87705612,4,1000,0,1,0,4,5,1,2,3,0,250.0,train,4,H+
575.870990753,3,1000,4,1,0,4,5,1,2,3,0,250.0,train,3,H+
575.898170471,5,1000,3,1,0,4,5,1,2,3,0,250.0,train,5,H+
367.90895462,5,1000,3,1,0,4,5,1,2,3,0,250.0,train,5,H+
975.455999374,4,1000,0,1,0,4,5,1,2,3,0,250.0,train,4,H+
560.333013535,1,1000,2,1,0,4,5,1,2,3,0,250.0,train,1,H+
511.914968491,1,1000,2,1,0,4,5,1,2,3,0,250.0,train,1,H+
800.185918808,4,1000,0,1,0,4,5,1,2,3,0,250.0,train,4,H+
576.878070831,5,1000,3,1,0,4,5,1,2,3,0,250.0,train,5,H+
928.333997726,3,1000,4,0,0,4,5,1,2,3,0,250.0,train,4,H+
864.398956299,0,1000,1,0,0,4,5,1,2,3,0,250.0,train,1,H+
1184.22603607,4,1000,0,1,0,4,5,1,2,3,0,250.0,train,4,H+
976.583003998,4,1000,0,1,0,4,5,1,2,3,0,250.0,train,4,H+
640.383005142,1,1000,2,1,0,4,5,1,2,3,0,250.0,train,1,H+
528.409004211,1,1000,2,1,0,4,5,1,2,3,0,250.0,train,1,H+
1008.57186317,4,1000,0,1,0,4,5,1,2,3,0,250.0,train,4,H+
1088.33885193,3,1000,4,1,0,4,5,1,2,3,0,250.0,train,3,H+
432.022809982,3,1000,4,1,0,4,5,1,2,3,0,250.0,train,3,H+
768.523931503,4,1000,0,0,0,4,5,1,2,3,0,250.0,train,5,H+
560.271978378,3,1000,4,1,0,4,5,1,2,3,0,250.0,train,3,H+
912.477016449,0,1000,1,1,0,4,5,1,2,3,0,250.0,train,0,H+
384.262084961,1,1000,2,1,0,4,5,1,2,3,0,250.0,train,1,H+
576.400995255,1,1000,2,1,0,4,5,1,2,3,0,250.0,train,1,H+
544.428110123,2,1000,5,1,0,4,5,1,2,3,0,250.0,train,2,H+
368.048191071,3,1000,4,1,0,4,5,1,2,3,0,250.0,train,3,H+
544.43192482,1,1000,2,1,0,4,5,1,2,3,0,250.0,train,1,H+
384.3998909,1,1000,2,1,0,4,5,1,2,3,0,250.0,train,1,H+
784.17801857,1,1000,2,1,0,4,5,1,2,3,0,250.0,test,1,H+
992.19918251,5,1000,3,1,0,4,5,1,2,3,0,250.0,test,5,H+
688.374996185,1,1000,2,1,0,4,5,1,2,3,0,250.0,test,1,H+
928.339004517,3,1000,4,1,0,4,5,1,2,3,0,250.0,test,3,H+
848.395109177,3,1000,4,1,0,4,5,1,2,3,0,250.0,test,3,H+
736.295938492,1,1000,2,1,0,4,5,1,2,3,0,250.0,test,1,H+
752.384185791,5,1000,3,1,0,4,5,1,2,3,0,250.0,test,5,H+
928.345918655,4,1000,0,1,0,4,5,1,2,3,0,250.0,test,4,H+
576.44701004,5,1000,3,1,0,4,5,1,2,3,0,250.0,test,5,H+
592.504024506,5,1000,3,1,0,4,5,1,2,3,0,250.0,test,5,H+
560.484170914,1,1000,2,1,0,4,5,1,2,3,0,250.0,test,1,H+
448.495864868,1,1000,2,1,0,4,5,1,2,3,0,250.0,test,1,H+
624.499082565,2,1000,5,1,0,4,5,1,2,3,0,250.0,test,2,H+
608.427047729,2,1000,5,1,0,4,5,1,2,3,0,250.0,test,2,H+
576.359033585,5,1000,3,1,0,4,5,1,2,3,0,250.0,test,5,H+
544.360160828,1,1000,2,1,0,4,5,1,2,3,0,250.0,test,1,H+
464.403867722,1,1000,2,1,0,4,5,1,2,3,0,250.0,test,1,H+
832.382917404,0,1000,1,1,0,4,5,1,2,3,0,250.0,test,0,H+
608.43205452,5,1000,3,1,0,4,5,1,2,3,0,250.0,test,5,H+
576.298952103,5,1000,3,1,0,4,5,1,2,3,0,250.0,test,5,H+
496.314048767,1,1000,2,1,0,4,5,1,2,3,0,250.0,test,1,H+
624.486923218,2,1000,5,1,0,4,5,1,2,3,0,250.0,test,2,H+
784.476995468,3,1000,4,1,0,4,5,1,2,3,0,250.0,test,3,H+
528.352022171,1,1000,2,1,0,4,5,1,2,3,0,250.0,test,1,H+
736.408948898,3,1000,4,1,0,4,5,1,2,3,0,250.0,test,3,H+
816.529989243,0,1000,1,1,0,4,5,1,2,3,0,250.0,test,0,H+
384.395837784,1,1000,2,1,0,4,5,1,2,3,0,250.0,test,1,H+
1040.38786888,4,1000,0,1,0,4,5,1,2,3,0,250.0,test,4,H+
544.445991516,5,1000,3,1,0,4,5,1,2,3,0,250.0,test,5,H+
656.283140182,3,1000,4,1,0,4,5,1,2,3,0,250.0,test,3,H+
512.322902679,2,1000,5,0,0,4,5,1,2,3,0,250.0,test,3,H+
624.340772629,1,1000,2,1,0,4,5,1,2,3,0,250.0,test,1,H+
480.437040329,1,1000,2,1,0,4,5,1,2,3,0,250.0,test,1,H+
752.472162247,3,1000,4,1,0,4,5,1,2,3,0,250.0,test,3,H+
992.228984833,4,1000,0,1,0,4,5,1,2,3,0,250.0,test,4,H+
752.350091934,3,1000,4,1,0,4,5,1,2,3,0,250.0,test,3,H+
560.321092606,1,1000,2,1,0,4,5,1,2,3,0,250.0,test,1,H+
960.402011871,5,1000,3,1,0,4,5,1,2,3,0,250.0,test,5,H+
928.488016129,4,1000,0,0,0,4,5,1,2,3,0,250.0,test,3,H+
928.751945496,3,1000,4,1,0,4,5,1,2,3,0,250.0,test,3,H+
447.770118713,2,1000,5,0,0,4,5,1,2,3,0,250.0,test,3,H+
319.885015488,5,1000,3,1,0,4,5,1,2,3,0,250.0,test,5,H+
591.031074524,0,1000,1,1,0,4,5,1,2,3,0,250.0,test,0,H+
832.03792572,2,1000,5,1,0,4,5,1,2,3,0,250.0,test,2,H+
1120.221138,4,1000,0,1,0,4,5,1,2,3,0,250.0,test,4,H+
927.790880203,3,1000,4,1,0,4,5,1,2,3,0,250.0,test,3,H+
561.202049255,2,1000,5,1,0,4,5,1,2,3,0,250.0,test,2,H+
512.476921082,2,1000,5,1,0,4,5,1,2,3,0,250.0,test,2,H+
576.488018036,2,1000,5,1,0,4,5,1,2,3,0,250.0,test,2,H+
544.424057007,1,1000,2,1,0,4,5,1,2,3,0,250.0,test,1,H+
1328.47499847,0,1000,1,1,0,4,5,1,2,3,0,250.0,test,0,H+
576.401948929,2,1000,5,0,0,4,5,1,2,3,0,250.0,test,1,H+
464.34211731,1,1000,2,0,0,4,5,1,2,3,0,250.0,test,0,H+
944.036006927,3,1000,4,1,0,4,5,1,2,3,0,250.0,test,3,H+
576.279878616,2,1000,5,1,0,4,5,1,2,3,0,250.0,test,2,H+
560.36400795,2,1000,5,1,0,4,5,1,2,3,0,250.0,test,2,H+
496.393918991,1,1000,2,1,0,4,5,1,2,3,0,250.0,test,1,H+
512.413978577,2,1000,5,1,0,4,5,1,2,3,0,250.0,test,2,H+
640.480041504,0,1000,1,1,0,4,5,1,2,3,0,250.0,test,0,H+
1152.49800682,4,1000,0,1,0,4,5,1,2,3,0,250.0,test,4,H+
624.330043793,3,1000,4,1,0,4,5,1,2,3,0,250.0,test,3,H+
801.279067993,0,1000,1,1,0,4,5,1,2,3,0,250.0,test,0,H+
641.093969345,1,1000,2,1,0,4,5,1,2,3,0,250.0,test,1,H+
1232.3539257,4,1000,0,1,0,4,5,1,2,3,0,250.0,test,4,H+
320.390939713,5,1000,3,1,0,4,5,1,2,3,0,250.0,test,5,H+
928.346157074,4,1000,0,1,0,4,5,1,2,3,0,250.0,test,4,H+
592.35906601,2,1000,5,1,0,4,5,1,2,3,0,250.0,test,2,H+
1264.32704926,3,1000,4,1,0,4,5,1,2,3,0,250.0,test,3,H+
656.517028809,0,1000,1,1,0,4,5,1,2,3,0,250.0,test,0,H+
448.187112808,0,1000,1,1,0,4,5,1,2,3,0,250.0,test,0,H+
560.463905334,5,1000,3,1,0,4,5,1,2,3,0,250.0,test,5,H+
896.137952805,3,1000,4,1,0,4,5,1,2,3,0,250.0,test,3,H+
560.476779938,2,1000,5,1,0,4,5,1,2,3,0,250.0,test,2,H+
752.381086349,2,1000,5,1,0,4,5,1,2,3,0,250.0,test,2,H+
560.329198837,1,1000,2,1,0,4,5,1,2,3,0,250.0,test,1,H+
592.320919037,5,1000,3,1,0,4,5,1,2,3,0,250.0,test,5,H+
512.47382164,2,1000,5,0,0,4,5,1,2,3,0,250.0,test,5,H+
816.39289856,3,1000,4,1,0,4,5,1,2,3,0,250.0,test,3,H+
1168.39909554,4,1000,0,1,0,4,5,1,2,3,0,250.0,test,4,H+
1184.30495262,4,1000,0,1,0,4,5,1,2,3,0,250.0,test,4,H+
304.058790207,5,1000,3,1,0,4,5,1,2,3,0,250.0,test,5,H+
960.438013077,4,1000,0,1,0,4,5,1,2,3,0,250.0,test,4,H+
544.400930405,3,1000,4,1,0,4,5,1,2,3,0,250.0,test,3,H+
320.337772369,5,1000,3,1,0,4,5,1,2,3,0,250.0,test,5,H+
336.436986923,2,1000,5,0,0,4,5,1,2,3,0,250.0,test,5,H+
544.428110123,5,1000,3,1,0,4,5,1,2,3,0,250.0,test,5,H+
624.321937561,0,1000,1,1,0,4,5,1,2,3,0,250.0,test,0,H+
736.320018768,3,1000,4,1,0,4,5,1,2,3,0,250.0,test,3,H+
560.424089432,2,1000,5,1,0,4,5,1,2,3,0,250.0,test,2,H+
352.069139481,1,1000,2,1,0,4,5,1,2,3,0,250.0,test,1,H+
640.457868576,0,1000,1,1,0,4,5,1,2,3,0,250.0,test,0,H+
608.157157898,5,1000,3,1,0,4,5,1,2,3,0,250.0,test,5,H+
512.408971786,1,1000,2,1,0,4,5,1,2,3,0,250.0,test,1,H+
448.398828506,5,1000,3,0,0,4,5,1,2,3,0,250.0,test,2,H+
448.215007782,1,1000,2,1,0,4,5,1,2,3,0,250.0,test,1,H+
512.361049652,1,1000,2,1,0,4,5,1,2,3,0,250.0,test,1,H+
624.537944794,0,1000,1,1,0,4,5,1,2,3,0,250.0,test,0,H+
816.45488739,4,1000,0,1,0,4,5,1,2,3,0,250.0,test,4,H+
496.13404274,1,1000,2,1,0,4,5,1,2,3,0,250.0,test,1,H+
801.189184189,2,1000,5,1,0,4,5,1,2,3,0,250.0,test,2,H+
608.278989792,2,1000,5,1,0,4,5,1,2,3,0,250.0,test,2,H+
992.447137833,4,1000,0,1,0,4,5,1,2,3,0,250.0,test,4,H+
528.355836868,1,1000,2,1,0,4,5,1,2,3,0,250.0,test,1,H+
528.511047363,1,1000,2,1,0,4,5,1,2,3,0,250.0,test,1,H+
416.396856308,1,1000,2,1,0,4,5,1,2,3,0,250.0,test,1,H+
1136.4710331,4,1000,0,1,0,4,5,1,2,3,0,250.0,test,4,H+
576.434135437,3,1000,4,1,0,4,5,1,2,3,0,250.0,test,3,H+
784.423828125,0,1000,1,0,0,4,5,1,2,3,0,250.0,test,1,H+
368.374824524,5,1000,3,1,0,4,5,1,2,3,0,250.0,test,5,H+
528.319120407,0,1000,1,1,0,4,5,1,2,3,0,250.0,test,0,H+
528.500080109,0,1000,1,1,0,4,5,1,2,3,0,250.0,test,0,H+
1104.57491875,4,1000,0,1,0,4,5,1,2,3,0,250.0,test,4,H+
336.457967758,5,1000,3,1,0,4,5,1,2,3,0,250.0,test,5,H+
576.051950455,0,1000,1,1,0,4,5,1,2,3,0,250.0,test,0,H+
736.419200897,4,1000,0,1,0,4,5,1,2,3,0,250.0,test,4,H+
640.416145325,4,1000,0,1,0,4,5,1,2,3,0,250.0,test,4,H+
512.5041008,4,1000,0,1,0,4,5,1,2,3,0,250.0,test,4,H+
752.529859543,0,1000,1,1,0,4,5,1,2,3,0,250.0,test,0,H+
416.426181793,1,1000,2,1,0,4,5,1,2,3,0,250.0,test,1,H+
576.391935349,2,1000,5,1,0,4,5,1,2,3,0,250.0,test,2,H+
624.401807785,2,1000,5,1,0,4,5,1,2,3,0,250.0,test,2,H+
400.43091774,3,1000,4,1,0,4,5,1,2,3,0,250.0,test,3,H+
608.518123627,4,1000,0,0,0,4,5,1,2,3,0,250.0,test,3,H+
464.284896851,4,1000,0,0,0,4,5,1,2,3,0,250.0,test,3,H+
576.31611824,5,1000,3,1,0,4,5,1,2,3,0,250.0,test,5,H+
640.233039856,3,1000,4,1,0,4,5,1,2,3,0,250.0,test,3,H+
560.353040695,1,1000,2,1,0,4,5,1,2,3,0,250.0,test,1,H+
576.489210129,0,1000,1,1,0,4,5,1,2,3,0,250.0,test,0,H+
512.47382164,5,1000,3,1,0,4,5,1,2,3,0,250.0,test,5,H+
848.54888916,4,1000,0,1,0,4,5,1,2,3,0,250.0,test,4,H+
592.163801193,0,1000,1,1,0,4,5,1,2,3,0,250.0,test,0,H+
384.257078171,5,1000,3,1,0,4,5,1,2,3,0,250.0,test,5,H+
320.07598877,5,1000,3,1,0,4,5,1,2,3,0,250.0,test,5,H+
320.266962051,5,1000,3,1,0,4,5,1,2,3,0,250.0,test,5,H+
512.099981308,1,1000,2,1,0,4,5,1,2,3,0,250.0,test,1,H+
576.454877853,5,1000,3,1,0,4,5,1,2,3,0,250.0,test,5,H+
480.084896088,1,1000,2,1,0,4,5,1,2,3,0,250.0,test,1,H+
336.316823959,2,1000,5,0,0,4,5,1,2,3,0,250.0,test,5,H+
624.315977097,2,1000,5,1,0,4,5,1,2,3,0,250.0,test,2,H+
576.54094696,2,1000,5,1,0,4,5,1,2,3,0,250.0,test,2,H+
528.441905975,1,1000,2,1,0,4,5,1,2,3,0,250.0,test,1,H+
768.467903137,3,1000,4,1,0,4,5,1,2,3,0,250.0,test,3,H+
512.141942978,5,1000,3,1,0,4,5,1,2,3,0,250.0,test,5,H+
400.409936905,5,1000,3,1,0,4,5,1,2,3,0,250.0,test,5,H+
496.417999268,1,1000,2,1,0,4,5,1,2,3,0,250.0,test,1,H+
528.391122818,5,1000,3,1,0,4,5,1,2,3,0,250.0,test,5,H+
464.442014694,1,1000,2,1,0,4,5,1,2,3,0,250.0,test,1,H+
864.541053772,3,1000,4,1,0,4,5,1,2,3,0,250.0,test,3,H+
528.374910355,0,1000,1,0,0,4,5,1,2,3,0,250.0,test,1,H+
624.315023422,2,1000,5,1,0,4,5,1,2,3,0,250.0,test,2,H+
496.493816376,5,1000,3,1,0,4,5,1,2,3,0,250.0,test,5,H+
560.898065567,2,1000,5,1,0,4,5,1,2,3,0,250.0,test,2,H+
447.96204567,2,1000,5,1,0,4,5,1,2,3,0,250.0,test,2,H+
752.4061203,3,1000,4,1,0,4,5,1,2,3,0,250.0,test,3,H+
704.295873642,1,1000,2,1,0,4,5,1,2,3,0,250.0,test,1,H+
592.463970184,2,1000,5,1,0,4,5,1,2,3,0,250.0,test,2,H+
544.437885284,1,1000,2,1,0,4,5,1,2,3,0,250.0,test,1,H+
496.438980103,1,1000,2,1,0,4,5,1,2,3,0,250.0,test,1,H+
624.336957932,3,1000,4,1,0,4,5,1,2,3,0,250.0,test,3,H+
752.376079559,0,1000,1,1,0,4,5,1,2,3,0,250.0,test,0,H+
400.422096252,1,1000,2,1,0,4,5,1,2,3,0,250.0,test,1,H+
624.487876892,3,1000,4,1,0,4,5,1,2,3,0,250.0,test,3,H+
624.409914017,3,1000,4,1,0,4,5,1,2,3,0,250.0,test,3,H+
528.164148331,5,1000,3,1,0,4,5,1,2,3,0,250.0,test,5,H+
816.513061523,0,1000,1,1,0,4,5,1,2,3,0,250.0,test,0,H+
720.412969589,3,1000,4,1,0,4,5,1,2,3,0,250.0,test,3,H+
512.516975403,5,1000,3,1,0,4,5,1,2,3,0,250.0,test,5,H+
544.16513443,1,1000,2,1,0,4,5,1,2,3,0,250.0,test,1,H+
736.434936523,3,1000,4,1,0,4,5,1,2,3,0,250.0,test,3,H+
800.502061844,5,1000,3,1,0,4,5,1,2,3,0,250.0,test,5,H+
560.380935669,2,1000,5,1,0,4,5,1,2,3,0,250.0,test,2,H+
448.409080505,1,1000,2,1,0,4,5,1,2,3,0,250.0,test,1,H+
464.188098907,1,1000,2,1,0,4,5,1,2,3,0,250.0,test,1,H+
656.158924103,2,1000,5,1,0,4,5,1,2,3,0,250.0,test,2,H+
656.270027161,0,1000,1,1,0,4,5,1,2,3,0,250.0,test,0,H+
480.746030807,1,1000,2,1,0,4,5,1,2,3,0,250.0,test,1,H+
1088.00506592,4,1000,0,1,0,4,5,1,2,3,0,250.0,test,4,H+
655.690908432,4,1000,0,1,0,4,5,1,2,3,0,250.0,test,4,H+
464.394807816,4,1000,0,1,0,4,5,1,2,3,0,250.0,test,4,H+
544.429063797,0,1000,1,1,0,4,5,1,2,3,0,250.0,test,0,H+
816.442966461,3,1000,4,0,0,4,5,1,2,3,0,250.0,test,4,H+
480.292797089,1,1000,2,1,0,4,5,1,2,3,0,250.0,test,1,H+
928.397893906,3,1000,4,0,0,4,5,1,2,3,0,250.0,test,4,H+
816.339015961,0,1000,1,1,0,4,5,1,2,3,0,250.0,test,0,H+
640.476942062,2,1000,5,1,0,4,5,1,2,3,0,250.0,test,2,H+
560.120105743,0,1000,1,1,0,4,5,1,2,3,0,250.0,test,0,H+
592.181921005,0,1000,1,1,0,4,5,1,2,3,0,250.0,test,0,H+
640.482902527,2,1000,5,1,0,4,5,1,2,3,0,250.0,test,2,H+
944.392204285,3,1000,4,1,0,4,5,1,2,3,0,250.0,test,3,H+
640.432834625,2,1000,5,1,0,4,5,1,2,3,0,250.0,test,2,H+
864.114999771,3,1000,4,1,0,4,5,1,2,3,0,250.0,test,3,H+
480.416059494,2,1000,5,1,0,4,5,1,2,3,0,250.0,test,2,H+
608.321905136,3,1000,4,1,0,4,5,1,2,3,0,250.0,test,3,H+
560.344934464,0,1000,1,1,0,4,5,1,2,3,0,250.0,test,0,H+
496.337890625,1,1000,2,1,0,4,5,1,2,3,0,250.0,test,1,H+
928.421020508,4,1000,0,1,0,4,5,1,2,3,0,250.0,test,4,H+
768.41211319,3,1000,4,1,0,4,5,1,2,3,0,250.0,test,3,H+
639.802932739,3,1000,4,1,0,4,5,1,2,3,0,250.0,test,3,H+
415.939092636,5,1000,3,1,0,4,5,1,2,3,0,250.0,test,5,H+
575.911998749,1,1000,2,1,0,4,5,1,2,3,0,250.0,test,1,H+
351.922988892,1,1000,2,1,0,4,5,1,2,3,0,250.0,test,1,H+
575.927019119,0,1000,1,1,0,4,5,1,2,3,0,250.0,test,0,H+
543.864965439,0,1000,1,1,0,4,5,1,2,3,0,250.0,test,0,H+
400.899887085,0,1000,1,1,0,4,5,1,2,3,0,250.0,test,0,H+
592.558145523,2,1000,5,1,0,4,5,1,2,3,0,250.0,test,2,H+
560.369968414,5,1000,3,1,0,4,5,1,2,3,0,250.0,test,5,H+
672.1971035,2,1000,5,1,0,4,5,1,2,3,0,250.0,test,2,H+
528.40089798,5,1000,3,1,0,4,5,1,2,3,0,250.0,test,5,H+
352.18501091,5,1000,3,1,0,4,5,1,2,3,0,250.0,test,5,H+
496.260881424,2,1000,5,1,0,4,5,1,2,3,0,250.0,test,2,H+
576.346874237,4,1000,0,1,0,4,5,1,2,3,0,250.0,test,4,H+
560.3120327,0,1000,1,0,0,4,5,1,2,3,0,250.0,test,1,H+
512.209177017,1,1000,2,1,0,4,5,1,2,3,0,250.0,test,1,H+
640.352010727,5,1000,3,1,0,4,5,1,2,3,0,250.0,test,5,H+
1104.43782806,3,1000,4,1,0,4,5,1,2,3,0,250.0,test,3,H+
496.326208115,3,1000,4,1,0,4,5,1,2,3,0,250.0,test,3,H+
528.234004974,5,1000,3,1,0,4,5,1,2,3,0,250.0,test,5,H+
592.436075211,1,1000,2,1,0,4,5,1,2,3,0,250.0,test,1,H+
1631.92296028,4,1000,0,1,0,4,5,1,2,3,0,250.0,test,4,H+
512.266159058,1,1000,2,1,0,4,5,1,2,3,0,250.0,test,1,H+
672.457933426,3,1000,4,1,0,4,5,1,2,3,0,250.0,test,3,H+
576.446056366,2,1000,5,1,0,4,5,1,2,3,0,250.0,test,2,H+
479.908943176,2,1000,5,1,0,4,5,1,2,3,0,250.0,test,2,H+
416.317939758,5,1000,3,1,0,4,5,1,2,3,0,250.0,test,5,H+
528.751850128,2,1000,5,1,0,4,5,1,2,3,0,250.0,test,2,H+
558.943033218,2,1000,5,1,0,4,5,1,2,3,0,250.0,test,2,H+
576.34806633,1,1000,2,1,0,4,5,1,2,3,0,250.0,test,1,H+
352.214813232,1,1000,2,1,0,4,5,1,2,3,0,250.0,test,1,H+
832.417011261,3,1000,4,1,0,4,5,1,2,3,0,250.0,test,3,H+
895.832061768,3,1000,4,1,0,4,5,1,2,3,0,250.0,test,3,H+
512.239933014,1,1000,2,1,0,4,5,1,2,3,0,250.0,test,1,H+
975.982904434,4,1000,0,1,0,4,5,1,2,3,0,250.0,test,4,H+
464.695930481,1,1000,2,0,0,4,5,1,2,3,0,250.0,test,2,H+
431.840896606,1,1000,2,1,0,4,5,1,2,3,0,250.0,test,1,H+
384.392023087,1,1000,2,1,0,4,5,1,2,3,0,250.0,test,1,H+
592.42606163,2,1000,5,1,0,4,5,1,2,3,0,250.0,test,2,H+
672.435998917,3,1000,4,1,0,4,5,1,2,3,0,250.0,test,3,H+
432.312011719,1,1000,2,1,0,4,5,1,2,3,0,250.0,test,1,H+
768.73922348,0,1000,1,1,0,4,5,1,2,3,0,250.0,test,0,H+
496.748924255,1,1000,2,1,0,4,5,1,2,3,0,250.0,test,1,H+
608.812093735,5,1000,3,1,0,4,5,1,2,3,0,250.0,test,5,H+
432.001829147,1,1000,2,1,0,4,5,1,2,3,0,250.0,test,1,H+
463.979005814,1,1000,2,1,0,4,5,1,2,3,0,250.0,test,1,H+
1136.06286049,4,1000,0,1,0,4,5,1,2,3,0,250.0,test,4,H+
591.872215271,5,1000,3,1,0,4,5,1,2,3,0,250.0,test,5,H+
1391.88599586,0,1000,1,1,0,4,5,1,2,3,0,250.0,test,0,H+
575.970888138,2,1000,5,1,0,4,5,1,2,3,0,250.0,test,2,H+
1007.93385506,3,1000,4,1,0,4,5,1,2,3,0,250.0,test,3,H+
784.132957458,4,1000,0,1,0,4,5,1,2,3,0,250.0,test,4,H+
1120.04113197,0,1000,1,1,0,4,5,1,2,3,0,250.0,test,0,H+
