RT,correct_response,ms-prestimblank,curstim,correct,SRmap_1,SRmap_0,SRmap_3,SRmap_2,SRmap_5,SRmap_4,ms-precue,ntrials,type,response,condition
1919.88492012,4,1000,2,1,0,3,1,4,2,5,0,250.0,train,4,M
960.295200348,2,1000,5,1,0,3,1,4,2,5,0,250.0,train,2,M
544.399023056,4,1000,2,1,0,3,1,4,2,5,0,250.0,train,4,M
624.274015427,3,1000,0,1,0,3,1,4,2,5,0,250.0,train,3,M
528.244972229,0,1000,1,1,0,3,1,4,2,5,0,250.0,train,0,M
494.531869888,0,1000,1,1,0,3,1,4,2,5,0,250.0,train,0,M
304.563999176,1,1000,3,1,0,3,1,4,2,5,0,250.0,train,1,M
480.52406311,2,1000,5,1,0,3,1,4,2,5,0,250.0,train,2,M
399.000883102,5,1000,4,0,0,3,1,4,2,5,0,250.0,train,3,M
654.661178589,4,1000,2,1,0,3,1,4,2,5,0,250.0,train,4,M
511.339902878,3,1000,0,1,0,3,1,4,2,5,0,250.0,train,3,M
623.814105988,5,1000,4,0,0,3,1,4,2,5,0,250.0,train,4,M
351.223945618,5,1000,4,1,0,3,1,4,2,5,0,250.0,train,5,M
463.404893875,1,1000,3,1,0,3,1,4,2,5,0,250.0,train,1,M
431.431055069,1,1000,3,1,0,3,1,4,2,5,0,250.0,train,1,M
511.805057526,1,1000,3,1,0,3,1,4,2,5,0,250.0,train,1,M
416.41998291,3,1000,0,0,0,3,1,4,2,5,0,250.0,train,2,M
479.484081268,0,1000,1,1,0,3,1,4,2,5,0,250.0,train,0,M
368.278980255,1,1000,3,1,0,3,1,4,2,5,0,250.0,train,1,M
479.432821274,4,1000,2,1,0,3,1,4,2,5,0,250.0,train,4,M
304.275035858,5,1000,4,1,0,3,1,4,2,5,0,250.0,train,5,M
368.459939957,2,1000,5,1,0,3,1,4,2,5,0,250.0,train,2,M
447.654008865,0,1000,1,1,0,3,1,4,2,5,0,250.0,train,0,M
479.342937469,3,1000,0,1,0,3,1,4,2,5,0,250.0,train,3,M
464.40410614,0,1000,1,1,0,3,1,4,2,5,0,250.0,train,0,M
416.86797142,1,1000,3,1,0,3,1,4,2,5,0,250.0,train,1,M
400.487184525,2,1000,5,1,0,3,1,4,2,5,0,250.0,train,2,M
495.95785141,5,1000,4,1,0,3,1,4,2,5,0,250.0,train,5,M
319.437980652,4,1000,2,1,0,3,1,4,2,5,0,250.0,train,4,M
495.851039886,5,1000,4,1,0,3,1,4,2,5,0,250.0,train,5,M
351.677894592,2,1000,5,1,0,3,1,4,2,5,0,250.0,train,2,M
447.806119919,4,1000,2,1,0,3,1,4,2,5,0,250.0,train,4,M
447.62301445,1,1000,3,1,0,3,1,4,2,5,0,250.0,train,1,M
527.479171753,3,1000,0,1,0,3,1,4,2,5,0,250.0,train,3,M
399.814128876,5,1000,4,1,0,3,1,4,2,5,0,250.0,train,5,M
480.314970016,5,1000,4,0,0,3,1,4,2,5,0,250.0,train,3,M
480.616092682,4,1000,2,1,0,3,1,4,2,5,0,250.0,train,4,M
351.409912109,2,1000,5,1,0,3,1,4,2,5,0,250.0,train,2,M
383.919000626,2,1000,5,0,0,3,1,4,2,5,0,250.0,train,1,M
511.511802673,1,1000,3,0,0,3,1,4,2,5,0,250.0,train,2,M
463.497877121,5,1000,4,1,0,3,1,4,2,5,0,250.0,train,5,M
399.564027786,1,1000,3,1,0,3,1,4,2,5,0,250.0,train,1,M
543.565988541,3,1000,0,1,0,3,1,4,2,5,0,250.0,train,3,M
511.970043182,3,1000,0,1,0,3,1,4,2,5,0,250.0,train,3,M
447.439908981,0,1000,1,1,0,3,1,4,2,5,0,250.0,train,0,M
415.879964828,5,1000,4,1,0,3,1,4,2,5,0,250.0,train,5,M
561.281204224,1,1000,3,1,0,3,1,4,2,5,0,250.0,train,1,M
576.096057892,2,1000,5,1,0,3,1,4,2,5,0,250.0,train,2,M
495.66411972,3,1000,0,0,0,3,1,4,2,5,0,250.0,train,2,M
479.359865189,0,1000,1,1,0,3,1,4,2,5,0,250.0,train,0,M
479.341030121,4,1000,2,1,0,3,1,4,2,5,0,250.0,train,4,M
527.484178543,3,1000,0,1,0,3,1,4,2,5,0,250.0,train,3,M
384.289979935,2,1000,5,1,0,3,1,4,2,5,0,250.0,train,2,M
480.022907257,0,1000,1,1,0,3,1,4,2,5,0,250.0,train,0,M
415.96698761,0,1000,1,1,0,3,1,4,2,5,0,250.0,train,0,M
432.399988174,5,1000,4,1,0,3,1,4,2,5,0,250.0,train,5,M
496.401071548,1,1000,3,1,0,3,1,4,2,5,0,250.0,train,1,M
384.401082993,2,1000,5,0,0,3,1,4,2,5,0,250.0,train,4,M
559.543132782,1,1000,3,1,0,3,1,4,2,5,0,250.0,train,1,M
879.966020584,2,1000,5,0,0,3,1,4,2,5,0,250.0,train,1,M
543.758153915,1,1000,3,1,0,3,1,4,2,5,0,250.0,train,1,M
463.317871094,1,1000,3,1,0,3,1,4,2,5,0,250.0,train,1,M
559.87405777,3,1000,0,1,0,3,1,4,2,5,0,250.0,train,3,M
528.105974197,3,1000,0,1,0,3,1,4,2,5,0,250.0,train,3,M
448.744058609,0,1000,1,1,0,3,1,4,2,5,0,250.0,train,0,M
350.876808167,2,1000,5,1,0,3,1,4,2,5,0,250.0,train,2,M
399.96099472,2,1000,5,1,0,3,1,4,2,5,0,250.0,train,2,M
495.633125305,3,1000,0,1,0,3,1,4,2,5,0,250.0,train,3,M
384.073972702,4,1000,2,1,0,3,1,4,2,5,0,250.0,train,4,M
431.898832321,2,1000,5,1,0,3,1,4,2,5,0,250.0,train,2,M
367.384910583,4,1000,2,1,0,3,1,4,2,5,0,250.0,train,4,M
479.841947556,2,1000,5,1,0,3,1,4,2,5,0,250.0,train,2,M
479.505062103,0,1000,1,1,0,3,1,4,2,5,0,250.0,train,0,M
463.550806046,1,1000,3,1,0,3,1,4,2,5,0,250.0,train,1,M
463.87887001,2,1000,5,1,0,3,1,4,2,5,0,250.0,train,2,M
463.490962982,4,1000,2,1,0,3,1,4,2,5,0,250.0,train,4,M
639.667987823,0,1000,1,1,0,3,1,4,2,5,0,250.0,train,0,M
480.202198029,4,1000,2,1,0,3,1,4,2,5,0,250.0,train,4,M
559.231996536,3,1000,0,1,0,3,1,4,2,5,0,250.0,train,3,M
576.297044754,3,1000,0,1,0,3,1,4,2,5,0,250.0,train,3,M
320.420026779,4,1000,2,1,0,3,1,4,2,5,0,250.0,train,4,M
592.767953873,3,1000,0,1,0,3,1,4,2,5,0,250.0,train,3,M
495.490074158,4,1000,2,1,0,3,1,4,2,5,0,250.0,train,4,M
608.338117599,2,1000,5,0,0,3,1,4,2,5,0,250.0,train,1,M
511.573076248,1,1000,3,1,0,3,1,4,2,5,0,250.0,train,1,M
560.296058655,4,1000,2,1,0,3,1,4,2,5,0,250.0,train,4,M
944.487094879,2,1000,5,1,0,3,1,4,2,5,0,250.0,train,2,M
495.702028275,2,1000,5,1,0,3,1,4,2,5,0,250.0,train,2,M
351.60112381,5,1000,4,1,0,3,1,4,2,5,0,250.0,train,5,M
544.357776642,4,1000,2,1,0,3,1,4,2,5,0,250.0,train,4,M
400.457859039,4,1000,2,1,0,3,1,4,2,5,0,250.0,train,4,M
431.648015976,5,1000,4,1,0,3,1,4,2,5,0,250.0,train,5,M
591.644048691,1,1000,3,1,0,3,1,4,2,5,0,250.0,train,1,M
415.615081787,4,1000,2,1,0,3,1,4,2,5,0,250.0,train,4,M
399.525165558,4,1000,2,1,0,3,1,4,2,5,0,250.0,train,4,M
479.953050613,1,1000,3,1,0,3,1,4,2,5,0,250.0,train,1,M
383.554935455,2,1000,5,1,0,3,1,4,2,5,0,250.0,train,2,M
431.638002396,0,1000,1,1,0,3,1,4,2,5,0,250.0,train,0,M
400.650024414,4,1000,2,1,0,3,1,4,2,5,0,250.0,train,4,M
495.321989059,3,1000,0,0,0,3,1,4,2,5,0,250.0,train,4,M
591.995954514,0,1000,1,1,0,3,1,4,2,5,0,250.0,train,0,M
527.52494812,3,1000,0,1,0,3,1,4,2,5,0,250.0,train,3,M
528.054952621,3,1000,0,1,0,3,1,4,2,5,0,250.0,train,3,M
431.633234024,5,1000,4,1,0,3,1,4,2,5,0,250.0,train,5,M
512.177944183,4,1000,2,1,0,3,1,4,2,5,0,250.0,train,4,M
544.098854065,5,1000,4,1,0,3,1,4,2,5,0,250.0,train,5,M
719.591140747,1,1000,3,0,0,3,1,4,2,5,0,250.0,train,2,M
448.299884796,5,1000,4,1,0,3,1,4,2,5,0,250.0,train,5,M
448.335886002,0,1000,1,1,0,3,1,4,2,5,0,250.0,train,0,M
464.35713768,0,1000,1,1,0,3,1,4,2,5,0,250.0,train,0,M
528.831958771,2,1000,5,1,0,3,1,4,2,5,0,250.0,train,2,M
592.40603447,3,1000,0,1,0,3,1,4,2,5,0,250.0,train,3,M
415.573835373,0,1000,1,1,0,3,1,4,2,5,0,250.0,train,0,M
351.713895798,1,1000,3,1,0,3,1,4,2,5,0,250.0,train,1,M
543.879985809,1,1000,3,1,0,3,1,4,2,5,0,250.0,train,1,M
447.643995285,3,1000,0,0,0,3,1,4,2,5,0,250.0,train,2,M
608.920097351,5,1000,4,1,0,3,1,4,2,5,0,250.0,train,5,M
400.152921677,5,1000,4,1,0,3,1,4,2,5,0,250.0,train,5,M
560.410022736,2,1000,5,1,0,3,1,4,2,5,0,250.0,train,2,M
528.426170349,2,1000,5,1,0,3,1,4,2,5,0,250.0,train,2,M
416.454076767,5,1000,4,1,0,3,1,4,2,5,0,250.0,train,5,M
496.088027954,3,1000,0,0,0,3,1,4,2,5,0,250.0,train,4,M
463.937997818,0,1000,1,1,0,3,1,4,2,5,0,250.0,train,0,M
416.254997253,1,1000,3,1,0,3,1,4,2,5,0,250.0,train,1,M
415.889024734,4,1000,2,1,0,3,1,4,2,5,0,250.0,train,4,M
464.172124863,4,1000,2,1,0,3,1,4,2,5,0,250.0,train,4,M
431.487083435,5,1000,4,1,0,3,1,4,2,5,0,250.0,train,5,M
431.644916534,1,1000,3,1,0,3,1,4,2,5,0,250.0,train,1,M
496.283054352,4,1000,2,1,0,3,1,4,2,5,0,250.0,train,4,M
496.17099762,5,1000,4,1,0,3,1,4,2,5,0,250.0,train,5,M
479.490995407,4,1000,2,1,0,3,1,4,2,5,0,250.0,train,4,M
512.278079987,0,1000,1,1,0,3,1,4,2,5,0,250.0,train,0,M
447.505950928,0,1000,1,1,0,3,1,4,2,5,0,250.0,train,0,M
463.515996933,4,1000,2,1,0,3,1,4,2,5,0,250.0,train,4,M
480.815887451,2,1000,5,1,0,3,1,4,2,5,0,250.0,train,2,M
463.967084885,5,1000,4,1,0,3,1,4,2,5,0,250.0,train,5,M
447.657108307,1,1000,3,0,0,3,1,4,2,5,0,250.0,train,0,M
608.12497139,2,1000,5,1,0,3,1,4,2,5,0,250.0,train,2,M
591.893911362,4,1000,2,1,0,3,1,4,2,5,0,250.0,train,4,M
624.146938324,3,1000,0,1,0,3,1,4,2,5,0,250.0,train,3,M
528.172969818,2,1000,5,1,0,3,1,4,2,5,0,250.0,train,2,M
495.692014694,5,1000,4,1,0,3,1,4,2,5,0,250.0,train,5,M
592.218160629,2,1000,5,1,0,3,1,4,2,5,0,250.0,train,2,M
544.782876968,2,1000,5,1,0,3,1,4,2,5,0,250.0,train,2,M
560.281038284,5,1000,4,1,0,3,1,4,2,5,0,250.0,train,5,M
448.194026947,0,1000,1,1,0,3,1,4,2,5,0,250.0,train,0,M
511.598110199,0,1000,1,1,0,3,1,4,2,5,0,250.0,train,0,M
639.610052109,3,1000,0,1,0,3,1,4,2,5,0,250.0,train,3,M
559.653997421,3,1000,0,1,0,3,1,4,2,5,0,250.0,train,3,M
1135.88500023,2,1000,5,1,0,3,1,4,2,5,0,250.0,train,2,M
720.252990723,3,1000,0,0,0,3,1,4,2,5,0,250.0,train,2,M
560.096025467,2,1000,5,1,0,3,1,4,2,5,0,250.0,train,2,M
432.270050049,2,1000,5,1,0,3,1,4,2,5,0,250.0,train,2,M
496.949911118,1,1000,3,1,0,3,1,4,2,5,0,250.0,train,1,M
528.493881226,0,1000,1,1,0,3,1,4,2,5,0,250.0,train,0,M
496.30188942,3,1000,0,1,0,3,1,4,2,5,0,250.0,train,3,M
463.775157928,2,1000,5,1,0,3,1,4,2,5,0,250.0,train,2,M
607.722997665,0,1000,1,1,0,3,1,4,2,5,0,250.0,train,0,M
399.568080902,1,1000,3,1,0,3,1,4,2,5,0,250.0,train,1,M
416.028022766,5,1000,4,1,0,3,1,4,2,5,0,250.0,train,5,M
527.713060379,3,1000,0,1,0,3,1,4,2,5,0,250.0,train,3,M
447.953939438,3,1000,0,1,0,3,1,4,2,5,0,250.0,train,3,M
591.69793129,1,1000,3,1,0,3,1,4,2,5,0,250.0,train,1,M
447.642087936,1,1000,3,1,0,3,1,4,2,5,0,250.0,train,1,M
463.344097137,1,1000,3,1,0,3,1,4,2,5,0,250.0,train,1,M
480.040073395,3,1000,0,1,0,3,1,4,2,5,0,250.0,train,3,M
544.766902924,5,1000,4,1,0,3,1,4,2,5,0,250.0,train,5,M
431.489944458,5,1000,4,1,0,3,1,4,2,5,0,250.0,train,5,M
575.990915298,2,1000,5,0,0,3,1,4,2,5,0,250.0,train,1,M
623.347997665,1,1000,3,1,0,3,1,4,2,5,0,250.0,train,1,M
447.510957718,2,1000,5,1,0,3,1,4,2,5,0,250.0,train,2,M
656.049966812,4,1000,2,1,0,3,1,4,2,5,0,250.0,train,4,M
608.549833298,3,1000,0,0,0,3,1,4,2,5,0,250.0,train,2,M
624.355077744,4,1000,2,1,0,3,1,4,2,5,0,250.0,train,4,M
400.436878204,5,1000,4,1,0,3,1,4,2,5,0,250.0,train,5,M
608.402013779,3,1000,0,1,0,3,1,4,2,5,0,250.0,train,3,M
543.495178223,2,1000,5,1,0,3,1,4,2,5,0,250.0,train,2,M
463.950872421,4,1000,2,1,0,3,1,4,2,5,0,250.0,train,4,M
703.495025635,2,1000,5,1,0,3,1,4,2,5,0,250.0,train,2,M
655.672073364,2,1000,5,1,0,3,1,4,2,5,0,250.0,train,2,M
496.463775635,2,1000,5,1,0,3,1,4,2,5,0,250.0,train,2,M
528.367996216,5,1000,4,1,0,3,1,4,2,5,0,250.0,train,5,M
543.699026108,3,1000,0,1,0,3,1,4,2,5,0,250.0,train,3,M
576.379060745,1,1000,3,1,0,3,1,4,2,5,0,250.0,train,1,M
720.396995544,2,1000,5,1,0,3,1,4,2,5,0,250.0,train,2,M
479.454994202,0,1000,1,1,0,3,1,4,2,5,0,250.0,train,0,M
560.351848602,3,1000,0,1,0,3,1,4,2,5,0,250.0,train,3,M
864.008903503,3,1000,0,1,0,3,1,4,2,5,0,250.0,train,3,M
479.737043381,5,1000,4,1,0,3,1,4,2,5,0,250.0,train,5,M
432.240009308,4,1000,2,1,0,3,1,4,2,5,0,250.0,train,4,M
960.218191147,5,1000,4,1,0,3,1,4,2,5,0,250.0,train,5,M
1200.18696785,2,1000,5,1,0,3,1,4,2,5,0,250.0,train,2,M
512.274026871,5,1000,4,1,0,3,1,4,2,5,0,250.0,train,5,M
592.246055603,5,1000,4,1,0,3,1,4,2,5,0,250.0,train,5,M
448.089122772,0,1000,1,1,0,3,1,4,2,5,0,250.0,train,0,M
544.228076935,2,1000,5,1,0,3,1,4,2,5,0,250.0,train,2,M
448.004007339,2,1000,5,1,0,3,1,4,2,5,0,250.0,train,2,M
543.586969376,4,1000,2,1,0,3,1,4,2,5,0,250.0,train,4,M
464.062929153,1,1000,3,1,0,3,1,4,2,5,0,250.0,train,1,M
512.809991837,0,1000,1,1,0,3,1,4,2,5,0,250.0,train,0,M
479.721069336,1,1000,3,1,0,3,1,4,2,5,0,250.0,train,1,M
639.657020569,4,1000,2,1,0,3,1,4,2,5,0,250.0,train,4,M
512.043952942,1,1000,3,1,0,3,1,4,2,5,0,250.0,train,1,M
447.501897812,0,1000,1,1,0,3,1,4,2,5,0,250.0,train,0,M
511.403083801,1,1000,3,1,0,3,1,4,2,5,0,250.0,train,1,M
415.871143341,5,1000,4,1,0,3,1,4,2,5,0,250.0,train,5,M
479.621887207,5,1000,4,1,0,3,1,4,2,5,0,250.0,train,5,M
431.545972824,1,1000,3,1,0,3,1,4,2,5,0,250.0,train,1,M
415.918827057,5,1000,4,1,0,3,1,4,2,5,0,250.0,train,5,M
655.955076218,2,1000,5,1,0,3,1,4,2,5,0,250.0,train,2,M
415.563106537,2,1000,5,1,0,3,1,4,2,5,0,250.0,train,2,M
399.682044983,5,1000,4,1,0,3,1,4,2,5,0,250.0,train,5,M
480.47709465,0,1000,1,1,0,3,1,4,2,5,0,250.0,train,0,M
512.314081192,2,1000,5,1,0,3,1,4,2,5,0,250.0,train,2,M
495.693922043,0,1000,1,1,0,3,1,4,2,5,0,250.0,train,0,M
510.88809967,1,1000,3,1,0,3,1,4,2,5,0,250.0,train,1,M
479.38990593,1,1000,3,1,0,3,1,4,2,5,0,250.0,train,1,M
384.231090546,2,1000,5,1,0,3,1,4,2,5,0,250.0,train,2,M
512.146949768,0,1000,1,1,0,3,1,4,2,5,0,250.0,train,0,M
560.407876968,3,1000,0,1,0,3,1,4,2,5,0,250.0,train,3,M
495.527982712,2,1000,5,0,0,3,1,4,2,5,0,250.0,train,4,M
608.359098434,3,1000,0,1,0,3,1,4,2,5,0,250.0,train,3,M
560.378074646,4,1000,2,1,0,3,1,4,2,5,0,250.0,train,4,M
479.612112045,1,1000,3,1,0,3,1,4,2,5,0,250.0,train,1,M
479.467153549,5,1000,4,1,0,3,1,4,2,5,0,250.0,train,5,M
975.813865662,4,1000,2,1,0,3,1,4,2,5,0,250.0,train,4,M
464.103937149,2,1000,5,1,0,3,1,4,2,5,0,250.0,train,2,M
432.038068771,5,1000,4,1,0,3,1,4,2,5,0,250.0,train,5,M
431.694030762,2,1000,5,1,0,3,1,4,2,5,0,250.0,train,2,M
480.036973953,3,1000,0,0,0,3,1,4,2,5,0,250.0,train,2,M
447.213172913,3,1000,0,1,0,3,1,4,2,5,0,250.0,train,3,M
527.707099915,3,1000,0,1,0,3,1,4,2,5,0,250.0,train,3,M
432.67416954,0,1000,1,1,0,3,1,4,2,5,0,250.0,train,0,M
1359.9050045,3,1000,0,1,0,3,1,4,2,5,0,250.0,train,3,M
543.838977814,5,1000,4,1,0,3,1,4,2,5,0,250.0,train,5,M
576.16686821,5,1000,4,1,0,3,1,4,2,5,0,250.0,train,5,M
479.921102524,3,1000,0,0,0,3,1,4,2,5,0,250.0,train,2,M
447.53408432,0,1000,1,1,0,3,1,4,2,5,0,250.0,train,0,M
511.751174927,0,1000,1,1,0,3,1,4,2,5,0,250.0,train,0,M
1151.73101425,3,1000,0,1,0,3,1,4,2,5,0,250.0,train,3,M
527.439832687,4,1000,2,1,0,3,1,4,2,5,0,250.0,train,4,M
751.549005508,4,1000,2,1,0,3,1,4,2,5,0,250.0,train,4,M
864.852905273,1,1000,3,1,0,3,1,4,2,5,0,250.0,train,1,M
576.038122177,2,1000,5,1,0,3,1,4,2,5,0,250.0,train,2,M
512.768030167,1,1000,3,1,0,3,1,4,2,5,0,250.0,train,1,M
576.70211792,2,1000,5,1,0,3,1,4,2,5,0,250.0,train,2,M
848.886966705,3,1000,0,1,0,3,1,4,2,5,0,250.0,train,3,M
703.691959381,3,1000,0,1,0,3,1,4,2,5,0,250.0,train,3,M
878.319978714,5,1000,4,1,0,3,1,4,2,5,0,250.0,train,5,M
463.645935059,5,1000,4,1,0,3,1,4,2,5,0,250.0,train,5,M
20271.2340355,4,1000,2,1,0,3,1,4,2,5,0,250.0,test,4,M
1039.6399498,4,1000,2,1,0,3,1,4,2,5,0,250.0,test,4,M
1744.15397644,5,1000,4,1,0,3,1,4,2,5,0,250.0,test,5,M
928.097963333,0,1000,1,1,0,3,1,4,2,5,0,250.0,test,0,M
1423.64597321,3,1000,0,0,0,3,1,4,2,5,0,250.0,test,4,M
783.099889755,0,1000,1,1,0,3,1,4,2,5,0,250.0,test,0,M
880.705118179,1,1000,3,1,0,3,1,4,2,5,0,250.0,test,1,M
431.905984879,2,1000,5,1,0,3,1,4,2,5,0,250.0,test,2,M
624.776124954,2,1000,5,1,0,3,1,4,2,5,0,250.0,test,2,M
607.73396492,2,1000,5,1,0,3,1,4,2,5,0,250.0,test,2,M
847.99695015,3,1000,0,1,0,3,1,4,2,5,0,250.0,test,3,M
703.832864761,3,1000,0,1,0,3,1,4,2,5,0,250.0,test,3,M
479.825019836,0,1000,1,1,0,3,1,4,2,5,0,250.0,test,0,M
847.651004791,4,1000,2,1,0,3,1,4,2,5,0,250.0,test,4,M
943.735122681,4,1000,2,1,0,3,1,4,2,5,0,250.0,test,4,M
607.849121094,4,1000,2,1,0,3,1,4,2,5,0,250.0,test,4,M
496.242046356,4,1000,2,1,0,3,1,4,2,5,0,250.0,test,4,M
608.431100845,4,1000,2,1,0,3,1,4,2,5,0,250.0,test,4,M
688.436985016,5,1000,4,1,0,3,1,4,2,5,0,250.0,test,5,M
720.510959625,5,1000,4,1,0,3,1,4,2,5,0,250.0,test,5,M
688.441038132,3,1000,0,1,0,3,1,4,2,5,0,250.0,test,3,M
575.914859772,5,1000,4,1,0,3,1,4,2,5,0,250.0,test,5,M
880.398035049,3,1000,0,1,0,3,1,4,2,5,0,250.0,test,3,M
480.375051498,3,1000,0,1,0,3,1,4,2,5,0,250.0,test,3,M
480.412006378,4,1000,2,1,0,3,1,4,2,5,0,250.0,test,4,M
624.382972717,4,1000,2,1,0,3,1,4,2,5,0,250.0,test,4,M
512.548208237,5,1000,4,1,0,3,1,4,2,5,0,250.0,test,5,M
592.381000519,2,1000,5,1,0,3,1,4,2,5,0,250.0,test,2,M
928.547143936,1,1000,3,1,0,3,1,4,2,5,0,250.0,test,1,M
1120.25904655,3,1000,0,1,0,3,1,4,2,5,0,250.0,test,3,M
528.401136398,4,1000,2,1,0,3,1,4,2,5,0,250.0,test,4,M
912.425994873,2,1000,5,1,0,3,1,4,2,5,0,250.0,test,2,M
448.282003403,2,1000,5,1,0,3,1,4,2,5,0,250.0,test,2,M
496.367931366,3,1000,0,0,0,3,1,4,2,5,0,250.0,test,2,M
624.166965485,4,1000,2,1,0,3,1,4,2,5,0,250.0,test,4,M
544.464111328,0,1000,1,1,0,3,1,4,2,5,0,250.0,test,0,M
657.272100449,2,1000,5,1,0,3,1,4,2,5,0,250.0,test,2,M
528.391838074,5,1000,4,1,0,3,1,4,2,5,0,250.0,test,5,M
624.454021454,4,1000,2,1,0,3,1,4,2,5,0,250.0,test,4,M
864.328145981,3,1000,0,1,0,3,1,4,2,5,0,250.0,test,3,M
816.549062729,4,1000,2,1,0,3,1,4,2,5,0,250.0,test,4,M
496.403932571,5,1000,4,1,0,3,1,4,2,5,0,250.0,test,5,M
1184.16404724,1,1000,3,1,0,3,1,4,2,5,0,250.0,test,1,M
512.473106384,0,1000,1,1,0,3,1,4,2,5,0,250.0,test,0,M
480.299949646,4,1000,2,1,0,3,1,4,2,5,0,250.0,test,4,M
528.42092514,0,1000,1,1,0,3,1,4,2,5,0,250.0,test,0,M
288.39802742,1,1000,3,1,0,3,1,4,2,5,0,250.0,test,1,M
608.441114426,2,1000,5,1,0,3,1,4,2,5,0,250.0,test,2,M
576.745033264,5,1000,4,1,0,3,1,4,2,5,0,250.0,test,5,M
704.368114471,3,1000,0,1,0,3,1,4,2,5,0,250.0,test,3,M
432.749032974,2,1000,5,1,0,3,1,4,2,5,0,250.0,test,2,M
464.27488327,0,1000,1,1,0,3,1,4,2,5,0,250.0,test,0,M
528.718948364,0,1000,1,1,0,3,1,4,2,5,0,250.0,test,0,M
832.018852234,1,1000,3,1,0,3,1,4,2,5,0,250.0,test,1,M
591.850042343,5,1000,4,1,0,3,1,4,2,5,0,250.0,test,5,M
831.942081451,3,1000,0,1,0,3,1,4,2,5,0,250.0,test,3,M
831.845998764,2,1000,5,1,0,3,1,4,2,5,0,250.0,test,2,M
464.723825455,0,1000,1,1,0,3,1,4,2,5,0,250.0,test,0,M
496.384859085,1,1000,3,1,0,3,1,4,2,5,0,250.0,test,1,M
575.928926468,3,1000,0,1,0,3,1,4,2,5,0,250.0,test,3,M
608.784198761,1,1000,3,1,0,3,1,4,2,5,0,250.0,test,1,M
431.886911392,2,1000,5,0,0,3,1,4,2,5,0,250.0,test,1,M
512.68696785,3,1000,0,1,0,3,1,4,2,5,0,250.0,test,3,M
656.768798828,1,1000,3,1,0,3,1,4,2,5,0,250.0,test,1,M
495.73302269,5,1000,4,1,0,3,1,4,2,5,0,250.0,test,5,M
399.920940399,0,1000,1,1,0,3,1,4,2,5,0,250.0,test,0,M
271.79312706,1,1000,3,1,0,3,1,4,2,5,0,250.0,test,1,M
560.729980469,4,1000,2,0,0,3,1,4,2,5,0,250.0,test,5,M
607.892990112,2,1000,5,0,0,3,1,4,2,5,0,250.0,test,1,M
576.282978058,3,1000,0,1,0,3,1,4,2,5,0,250.0,test,3,M
416.491985321,5,1000,4,1,0,3,1,4,2,5,0,250.0,test,5,M
640.43211937,1,1000,3,1,0,3,1,4,2,5,0,250.0,test,1,M
528.100967407,2,1000,5,0,0,3,1,4,2,5,0,250.0,test,1,M
688.673019409,2,1000,5,1,0,3,1,4,2,5,0,250.0,test,2,M
608.685016632,1,1000,3,1,0,3,1,4,2,5,0,250.0,test,1,M
672.662973404,3,1000,0,1,0,3,1,4,2,5,0,250.0,test,3,M
591.63403511,5,1000,4,1,0,3,1,4,2,5,0,250.0,test,5,M
944.25702095,1,1000,3,1,0,3,1,4,2,5,0,250.0,test,1,M
1119.97509003,2,1000,5,1,0,3,1,4,2,5,0,250.0,test,2,M
943.889141083,2,1000,5,1,0,3,1,4,2,5,0,250.0,test,2,M
479.720115662,1,1000,3,1,0,3,1,4,2,5,0,250.0,test,1,M
784.751176834,2,1000,5,1,0,3,1,4,2,5,0,250.0,test,2,M
496.67096138,1,1000,3,1,0,3,1,4,2,5,0,250.0,test,1,M
544.868946075,5,1000,4,1,0,3,1,4,2,5,0,250.0,test,5,M
576.729059219,5,1000,4,1,0,3,1,4,2,5,0,250.0,test,5,M
720.485925674,3,1000,0,1,0,3,1,4,2,5,0,250.0,test,3,M
640.396118164,1,1000,3,1,0,3,1,4,2,5,0,250.0,test,1,M
560.379981995,1,1000,3,1,0,3,1,4,2,5,0,250.0,test,1,M
864.164829254,3,1000,0,1,0,3,1,4,2,5,0,250.0,test,3,M
608.153820038,1,1000,3,1,0,3,1,4,2,5,0,250.0,test,1,M
544.462919235,4,1000,2,1,0,3,1,4,2,5,0,250.0,test,4,M
720.381975174,1,1000,3,1,0,3,1,4,2,5,0,250.0,test,1,M
592.381000519,2,1000,5,0,0,3,1,4,2,5,0,250.0,test,1,M
512.387990952,2,1000,5,1,0,3,1,4,2,5,0,250.0,test,2,M
496.440887451,0,1000,1,0,0,3,1,4,2,5,0,250.0,test,5,M
704.273939133,5,1000,4,1,0,3,1,4,2,5,0,250.0,test,5,M
592.422008514,1,1000,3,1,0,3,1,4,2,5,0,250.0,test,1,M
560.420036316,1,1000,3,1,0,3,1,4,2,5,0,250.0,test,1,M
528.303146362,1,1000,3,1,0,3,1,4,2,5,0,250.0,test,1,M
512.451171875,0,1000,1,1,0,3,1,4,2,5,0,250.0,test,0,M
688.411951065,1,1000,3,1,0,3,1,4,2,5,0,250.0,test,1,M
416.465044022,3,1000,0,0,0,3,1,4,2,5,0,250.0,test,2,M
1600.2907753,3,1000,0,1,0,3,1,4,2,5,0,250.0,test,3,M
544.293880463,0,1000,1,1,0,3,1,4,2,5,0,250.0,test,0,M
575.862884521,0,1000,1,1,0,3,1,4,2,5,0,250.0,test,0,M
976.487874985,2,1000,5,1,0,3,1,4,2,5,0,250.0,test,2,M
544.287919998,2,1000,5,1,0,3,1,4,2,5,0,250.0,test,2,M
624.397039413,0,1000,1,1,0,3,1,4,2,5,0,250.0,test,0,M
592.3640728,5,1000,4,1,0,3,1,4,2,5,0,250.0,test,5,M
544.42191124,0,1000,1,1,0,3,1,4,2,5,0,250.0,test,0,M
608.494997025,4,1000,2,1,0,3,1,4,2,5,0,250.0,test,4,M
640.393018723,4,1000,2,1,0,3,1,4,2,5,0,250.0,test,4,M
544.448852539,3,1000,0,1,0,3,1,4,2,5,0,250.0,test,3,M
528.383016586,5,1000,4,1,0,3,1,4,2,5,0,250.0,test,5,M
688.380002975,2,1000,5,1,0,3,1,4,2,5,0,250.0,test,2,M
576.47895813,2,1000,5,1,0,3,1,4,2,5,0,250.0,test,2,M
528.316020966,0,1000,1,1,0,3,1,4,2,5,0,250.0,test,0,M
656.466007233,4,1000,2,1,0,3,1,4,2,5,0,250.0,test,4,M
576.360940933,0,1000,1,1,0,3,1,4,2,5,0,250.0,test,0,M
544.48390007,5,1000,4,1,0,3,1,4,2,5,0,250.0,test,5,M
576.256036758,2,1000,5,1,0,3,1,4,2,5,0,250.0,test,2,M
736.706018448,4,1000,2,1,0,3,1,4,2,5,0,250.0,test,4,M
528.41091156,5,1000,4,1,0,3,1,4,2,5,0,250.0,test,5,M
608.417034149,2,1000,5,1,0,3,1,4,2,5,0,250.0,test,2,M
544.381856918,1,1000,3,1,0,3,1,4,2,5,0,250.0,test,1,M
512.425899506,2,1000,5,1,0,3,1,4,2,5,0,250.0,test,2,M
576.442956924,5,1000,4,0,0,3,1,4,2,5,0,250.0,test,3,M
912.245988846,0,1000,1,1,0,3,1,4,2,5,0,250.0,test,0,M
495.978116989,5,1000,4,1,0,3,1,4,2,5,0,250.0,test,5,M
560.31703949,4,1000,2,1,0,3,1,4,2,5,0,250.0,test,4,M
656.088829041,3,1000,0,1,0,3,1,4,2,5,0,250.0,test,3,M
607.933998108,1,1000,3,1,0,3,1,4,2,5,0,250.0,test,1,M
575.793981552,0,1000,1,1,0,3,1,4,2,5,0,250.0,test,0,M
687.94798851,1,1000,3,1,0,3,1,4,2,5,0,250.0,test,1,M
623.901128769,2,1000,5,0,0,3,1,4,2,5,0,250.0,test,1,M
687.736988068,1,1000,3,1,0,3,1,4,2,5,0,250.0,test,1,M
1631.86502457,2,1000,5,1,0,3,1,4,2,5,0,250.0,test,2,M
592.327833176,0,1000,1,1,0,3,1,4,2,5,0,250.0,test,0,M
576.344013214,5,1000,4,1,0,3,1,4,2,5,0,250.0,test,5,M
751.658916473,3,1000,0,1,0,3,1,4,2,5,0,250.0,test,3,M
591.841936111,4,1000,2,1,0,3,1,4,2,5,0,250.0,test,4,M
591.799974442,0,1000,1,1,0,3,1,4,2,5,0,250.0,test,0,M
751.930952072,1,1000,3,1,0,3,1,4,2,5,0,250.0,test,1,M
527.843952179,0,1000,1,1,0,3,1,4,2,5,0,250.0,test,0,M
528.672933578,1,1000,3,1,0,3,1,4,2,5,0,250.0,test,1,M
1023.66185188,2,1000,5,1,0,3,1,4,2,5,0,250.0,test,2,M
2031.84700012,0,1000,1,1,0,3,1,4,2,5,0,250.0,test,0,M
976.155996323,1,1000,3,1,0,3,1,4,2,5,0,250.0,test,1,M
783.592224121,3,1000,0,1,0,3,1,4,2,5,0,250.0,test,3,M
703.803062439,2,1000,5,1,0,3,1,4,2,5,0,250.0,test,2,M
1055.69505692,3,1000,0,1,0,3,1,4,2,5,0,250.0,test,3,M
527.147054672,4,1000,2,1,0,3,1,4,2,5,0,250.0,test,4,M
1151.98898315,0,1000,1,1,0,3,1,4,2,5,0,250.0,test,0,M
815.829992294,5,1000,4,1,0,3,1,4,2,5,0,250.0,test,5,M
496.016025543,5,1000,4,1,0,3,1,4,2,5,0,250.0,test,5,M
1232.71799088,4,1000,2,1,0,3,1,4,2,5,0,250.0,test,4,M
608.253002167,2,1000,5,1,0,3,1,4,2,5,0,250.0,test,2,M
608.26420784,1,1000,3,1,0,3,1,4,2,5,0,250.0,test,1,M
640.309095383,2,1000,5,0,0,3,1,4,2,5,0,250.0,test,1,M
607.975959778,0,1000,1,1,0,3,1,4,2,5,0,250.0,test,0,M
607.783794403,2,1000,5,0,0,3,1,4,2,5,0,250.0,test,1,M
592.700958252,2,1000,5,1,0,3,1,4,2,5,0,250.0,test,2,M
559.879779816,0,1000,1,1,0,3,1,4,2,5,0,250.0,test,0,M
799.741029739,4,1000,2,1,0,3,1,4,2,5,0,250.0,test,4,M
1455.73282242,1,1000,3,1,0,3,1,4,2,5,0,250.0,test,1,M
607.623100281,3,1000,0,1,0,3,1,4,2,5,0,250.0,test,3,M
560.351848602,4,1000,2,1,0,3,1,4,2,5,0,250.0,test,4,M
496.288061142,4,1000,2,1,0,3,1,4,2,5,0,250.0,test,4,M
511.897802353,1,1000,3,1,0,3,1,4,2,5,0,250.0,test,1,M
752.545833588,0,1000,1,1,0,3,1,4,2,5,0,250.0,test,0,M
624.376058578,0,1000,1,1,0,3,1,4,2,5,0,250.0,test,0,M
511.554002762,0,1000,1,1,0,3,1,4,2,5,0,250.0,test,0,M
832.498073578,3,1000,0,1,0,3,1,4,2,5,0,250.0,test,3,M
607.907056808,4,1000,2,1,0,3,1,4,2,5,0,250.0,test,4,M
591.619968414,0,1000,1,1,0,3,1,4,2,5,0,250.0,test,0,M
735.980033875,3,1000,0,1,0,3,1,4,2,5,0,250.0,test,3,M
863.950014114,1,1000,3,1,0,3,1,4,2,5,0,250.0,test,1,M
559.758901596,0,1000,1,1,0,3,1,4,2,5,0,250.0,test,0,M
1007.98797607,2,1000,5,1,0,3,1,4,2,5,0,250.0,test,2,M
623.876094818,5,1000,4,1,0,3,1,4,2,5,0,250.0,test,5,M
832.725048065,4,1000,2,1,0,3,1,4,2,5,0,250.0,test,4,M
1247.67613411,3,1000,0,1,0,3,1,4,2,5,0,250.0,test,3,M
815.830945969,5,1000,4,1,0,3,1,4,2,5,0,250.0,test,5,M
799.824953079,5,1000,4,1,0,3,1,4,2,5,0,250.0,test,5,M
543.854951859,0,1000,1,1,0,3,1,4,2,5,0,250.0,test,0,M
528.663158417,1,1000,3,1,0,3,1,4,2,5,0,250.0,test,1,M
528.659105301,5,1000,4,1,0,3,1,4,2,5,0,250.0,test,5,M
655.832052231,4,1000,2,1,0,3,1,4,2,5,0,250.0,test,4,M
495.906114578,2,1000,5,0,0,3,1,4,2,5,0,250.0,test,1,M
560.619831085,4,1000,2,1,0,3,1,4,2,5,0,250.0,test,4,M
543.767929077,5,1000,4,1,0,3,1,4,2,5,0,250.0,test,5,M
656.706094742,4,1000,2,1,0,3,1,4,2,5,0,250.0,test,4,M
672.755002975,3,1000,0,1,0,3,1,4,2,5,0,250.0,test,3,M
464.705944061,2,1000,5,1,0,3,1,4,2,5,0,250.0,test,2,M
656.793117523,3,1000,0,1,0,3,1,4,2,5,0,250.0,test,3,M
527.462005615,4,1000,2,1,0,3,1,4,2,5,0,250.0,test,4,M
848.187923431,1,1000,3,1,0,3,1,4,2,5,0,250.0,test,1,M
559.809207916,0,1000,1,1,0,3,1,4,2,5,0,250.0,test,0,M
767.899990082,4,1000,2,1,0,3,1,4,2,5,0,250.0,test,4,M
783.87093544,0,1000,1,1,0,3,1,4,2,5,0,250.0,test,0,M
576.272010803,5,1000,4,1,0,3,1,4,2,5,0,250.0,test,5,M
608.745098114,3,1000,0,1,0,3,1,4,2,5,0,250.0,test,3,M
527.722120285,5,1000,4,1,0,3,1,4,2,5,0,250.0,test,5,M
624.466180801,2,1000,5,1,0,3,1,4,2,5,0,250.0,test,2,M
479.953050613,2,1000,5,1,0,3,1,4,2,5,0,250.0,test,2,M
528.402805328,4,1000,2,1,0,3,1,4,2,5,0,250.0,test,4,M
559.947013855,4,1000,2,1,0,3,1,4,2,5,0,250.0,test,4,M
608.367204666,4,1000,2,1,0,3,1,4,2,5,0,250.0,test,4,M
1071.87700272,3,1000,0,1,0,3,1,4,2,5,0,250.0,test,3,M
1008.26597214,1,1000,3,0,0,3,1,4,2,5,0,250.0,test,3,M
607.68699646,5,1000,4,1,0,3,1,4,2,5,0,250.0,test,5,M
1472.25499153,3,1000,0,1,0,3,1,4,2,5,0,250.0,test,3,M
544.752120972,5,1000,4,1,0,3,1,4,2,5,0,250.0,test,5,M
800.504207611,2,1000,5,1,0,3,1,4,2,5,0,250.0,test,2,M
528.409957886,2,1000,5,1,0,3,1,4,2,5,0,250.0,test,2,M
1087.88704872,3,1000,0,1,0,3,1,4,2,5,0,250.0,test,3,M
623.820066452,1,1000,3,1,0,3,1,4,2,5,0,250.0,test,1,M
559.921979904,0,1000,1,1,0,3,1,4,2,5,0,250.0,test,0,M
575.834035873,2,1000,5,1,0,3,1,4,2,5,0,250.0,test,2,M
495.756149292,2,1000,5,1,0,3,1,4,2,5,0,250.0,test,2,M
559.898138046,5,1000,4,1,0,3,1,4,2,5,0,250.0,test,5,M
591.876983643,2,1000,5,1,0,3,1,4,2,5,0,250.0,test,2,M
991.791009903,4,1000,2,1,0,3,1,4,2,5,0,250.0,test,4,M
463.842153549,5,1000,4,1,0,3,1,4,2,5,0,250.0,test,5,M
799.814939499,3,1000,0,1,0,3,1,4,2,5,0,250.0,test,3,M
554.703950882,5,1000,4,1,0,3,1,4,2,5,0,250.0,test,5,M
527.732133865,5,1000,4,1,0,3,1,4,2,5,0,250.0,test,5,M
575.905799866,5,1000,4,1,0,3,1,4,2,5,0,250.0,test,5,M
1199.93305206,0,1000,1,1,0,3,1,4,2,5,0,250.0,test,0,M
576.140880585,4,1000,2,1,0,3,1,4,2,5,0,250.0,test,4,M
576.355934143,3,1000,0,1,0,3,1,4,2,5,0,250.0,test,3,M
704.238176346,3,1000,0,1,0,3,1,4,2,5,0,250.0,test,3,M
368.09015274,2,1000,5,1,0,3,1,4,2,5,0,250.0,test,2,M
575.769901276,5,1000,4,1,0,3,1,4,2,5,0,250.0,test,5,M
752.091169357,3,1000,0,1,0,3,1,4,2,5,0,250.0,test,3,M
799.636125565,3,1000,0,1,0,3,1,4,2,5,0,250.0,test,3,M
576.036214828,2,1000,5,1,0,3,1,4,2,5,0,250.0,test,2,M
591.781139374,1,1000,3,1,0,3,1,4,2,5,0,250.0,test,1,M
575.99401474,4,1000,2,1,0,3,1,4,2,5,0,250.0,test,4,M
575.921058655,4,1000,2,1,0,3,1,4,2,5,0,250.0,test,4,M
543.528079987,0,1000,1,1,0,3,1,4,2,5,0,250.0,test,0,M
336.241006851,1,1000,3,1,0,3,1,4,2,5,0,250.0,test,1,M
464.776039124,1,1000,3,1,0,3,1,4,2,5,0,250.0,test,1,M
527.727127075,0,1000,1,1,0,3,1,4,2,5,0,250.0,test,0,M
639.778137207,3,1000,0,1,0,3,1,4,2,5,0,250.0,test,3,M
543.967008591,5,1000,4,1,0,3,1,4,2,5,0,250.0,test,5,M
752.314090729,3,1000,0,1,0,3,1,4,2,5,0,250.0,test,3,M
640.229940414,1,1000,3,1,0,3,1,4,2,5,0,250.0,test,1,M
704.451799393,3,1000,0,1,0,3,1,4,2,5,0,250.0,test,3,M
591.803073883,5,1000,4,1,0,3,1,4,2,5,0,250.0,test,5,M
