RT,correct_response,ms-prestimblank,curstim,correct,SRmap_1,SRmap_0,SRmap_3,SRmap_2,SRmap_5,SRmap_4,ms-precue,ntrials,type,response,condition
2635.1749897,0,1000,4,1,2,1,5,4,3,0,0,250.0,train,0,H+
3306.45418167,1,1000,0,1,2,1,5,4,3,0,0,250.0,train,1,H+
1242.35606194,0,1000,4,1,2,1,5,4,3,0,0,250.0,train,0,H+
2362.46204376,5,1000,3,1,2,1,5,4,3,0,0,250.0,train,5,H+
2106.33087158,4,1000,2,1,2,1,5,4,3,0,0,250.0,train,4,H+
1082.21888542,0,1000,4,1,2,1,5,4,3,0,0,250.0,train,0,H+
1898.42796326,5,1000,3,1,2,1,5,4,3,0,0,250.0,train,5,H+
1082.23795891,2,1000,1,1,2,1,5,4,3,0,0,250.0,train,2,H+
506.295919418,1,1000,0,0,2,1,5,4,3,0,0,250.0,train,0,H+
2139.69516754,3,1000,5,1,2,1,5,4,3,0,0,250.0,train,3,H+
3258.43501091,4,1000,2,1,2,1,5,4,3,0,0,250.0,train,4,H+
2218.50395203,3,1000,5,1,2,1,5,4,3,0,0,250.0,train,3,H+
1292.83499718,3,1000,5,1,2,1,5,4,3,0,0,250.0,train,3,H+
1306.20098114,5,1000,3,1,2,1,5,4,3,0,0,250.0,train,5,H+
490.298032761,5,1000,3,1,2,1,5,4,3,0,0,250.0,train,5,H+
394.261837006,1,1000,0,0,2,1,5,4,3,0,0,250.0,train,0,H+
1467.04101562,4,1000,2,1,2,1,5,4,3,0,0,250.0,train,4,H+
938.303947449,5,1000,3,1,2,1,5,4,3,0,0,250.0,train,5,H+
1307.17420578,1,1000,0,1,2,1,5,4,3,0,0,250.0,train,1,H+
1098.24085236,4,1000,2,1,2,1,5,4,3,0,0,250.0,train,4,H+
634.23204422,5,1000,3,1,2,1,5,4,3,0,0,250.0,train,5,H+
954.41198349,4,1000,2,1,2,1,5,4,3,0,0,250.0,train,4,H+
490.328073502,2,1000,1,1,2,1,5,4,3,0,0,250.0,train,2,H+
602.276086807,5,1000,3,1,2,1,5,4,3,0,0,250.0,train,5,H+
1131.89697266,4,1000,2,1,2,1,5,4,3,0,0,250.0,train,4,H+
682.245016098,4,1000,2,1,2,1,5,4,3,0,0,250.0,train,4,H+
1034.28602219,3,1000,5,0,2,1,5,4,3,0,0,250.0,train,1,H+
699.895143509,3,1000,5,1,2,1,5,4,3,0,0,250.0,train,3,H+
571.099996567,3,1000,5,1,2,1,5,4,3,0,0,250.0,train,3,H+
1370.45311928,2,1000,1,1,2,1,5,4,3,0,0,250.0,train,2,H+
634.308099747,1,1000,0,1,2,1,5,4,3,0,0,250.0,train,1,H+
570.283889771,1,1000,0,1,2,1,5,4,3,0,0,250.0,train,1,H+
650.278806686,5,1000,3,1,2,1,5,4,3,0,0,250.0,train,5,H+
714.355945587,0,1000,4,1,2,1,5,4,3,0,0,250.0,train,0,H+
490.339040756,1,1000,0,1,2,1,5,4,3,0,0,250.0,train,1,H+
1866.43004417,4,1000,2,1,2,1,5,4,3,0,0,250.0,train,4,H+
1098.32811356,4,1000,2,1,2,1,5,4,3,0,0,250.0,train,4,H+
730.185031891,3,1000,5,1,2,1,5,4,3,0,0,250.0,train,3,H+
506.159067154,0,1000,4,0,2,1,5,4,3,0,0,250.0,train,1,H+
826.349020004,2,1000,1,1,2,1,5,4,3,0,0,250.0,train,2,H+
1035.9249115,4,1000,2,1,2,1,5,4,3,0,0,250.0,train,4,H+
795.871019363,4,1000,2,1,2,1,5,4,3,0,0,250.0,train,4,H+
858.346939087,2,1000,1,1,2,1,5,4,3,0,0,250.0,train,2,H+
890.367031097,3,1000,5,0,2,1,5,4,3,0,0,250.0,train,5,H+
794.337034225,3,1000,5,1,2,1,5,4,3,0,0,250.0,train,3,H+
698.340892792,3,1000,5,1,2,1,5,4,3,0,0,250.0,train,3,H+
699.069023132,5,1000,3,1,2,1,5,4,3,0,0,250.0,train,5,H+
555.65404892,1,1000,0,0,2,1,5,4,3,0,0,250.0,train,0,H+
667.140960693,2,1000,1,1,2,1,5,4,3,0,0,250.0,train,2,H+
683.816194534,1,1000,0,0,2,1,5,4,3,0,0,250.0,train,0,H+
586.384057999,0,1000,4,1,2,1,5,4,3,0,0,250.0,train,0,H+
778.3639431,5,1000,3,1,2,1,5,4,3,0,0,250.0,train,5,H+
634.226799011,0,1000,4,1,2,1,5,4,3,0,0,250.0,train,0,H+
763.797998428,5,1000,3,1,2,1,5,4,3,0,0,250.0,train,5,H+
682.311058044,2,1000,1,1,2,1,5,4,3,0,0,250.0,train,2,H+
650.237083435,5,1000,3,1,2,1,5,4,3,0,0,250.0,train,5,H+
538.285970688,3,1000,5,1,2,1,5,4,3,0,0,250.0,train,3,H+
683.162927628,3,1000,5,1,2,1,5,4,3,0,0,250.0,train,3,H+
586.384057999,1,1000,0,0,2,1,5,4,3,0,0,250.0,train,0,H+
874.294042587,1,1000,0,1,2,1,5,4,3,0,0,250.0,train,1,H+
1146.36015892,4,1000,2,1,2,1,5,4,3,0,0,250.0,train,4,H+
538.273096085,5,1000,3,1,2,1,5,4,3,0,0,250.0,train,5,H+
602.368116379,1,1000,0,0,2,1,5,4,3,0,0,250.0,train,0,H+
586.058139801,1,1000,0,1,2,1,5,4,3,0,0,250.0,train,1,H+
1226.30190849,4,1000,2,1,2,1,5,4,3,0,0,250.0,train,4,H+
874.377012253,1,1000,0,1,2,1,5,4,3,0,0,250.0,train,1,H+
1098.88005257,2,1000,1,1,2,1,5,4,3,0,0,250.0,train,2,H+
2218.37806702,4,1000,2,1,2,1,5,4,3,0,0,250.0,train,4,H+
874.333143234,0,1000,4,1,2,1,5,4,3,0,0,250.0,train,0,H+
698.305130005,1,1000,0,1,2,1,5,4,3,0,0,250.0,train,1,H+
699.846029282,2,1000,1,1,2,1,5,4,3,0,0,250.0,train,2,H+
587.129116058,2,1000,1,0,2,1,5,4,3,0,0,250.0,train,1,H+
875.211000443,5,1000,3,1,2,1,5,4,3,0,0,250.0,train,5,H+
794.18182373,3,1000,5,1,2,1,5,4,3,0,0,250.0,train,3,H+
1130.33390045,1,1000,0,1,2,1,5,4,3,0,0,250.0,train,1,H+
890.357017517,5,1000,3,1,2,1,5,4,3,0,0,250.0,train,5,H+
955.864906311,3,1000,5,1,2,1,5,4,3,0,0,250.0,train,3,H+
890.342950821,4,1000,2,1,2,1,5,4,3,0,0,250.0,train,4,H+
875.170946121,5,1000,3,1,2,1,5,4,3,0,0,250.0,train,5,H+
1035.13002396,1,1000,0,1,2,1,5,4,3,0,0,250.0,train,1,H+
523.842096329,1,1000,0,1,2,1,5,4,3,0,0,250.0,train,1,H+
650.334119797,0,1000,4,1,2,1,5,4,3,0,0,250.0,train,0,H+
1067.87204742,3,1000,5,0,2,1,5,4,3,0,0,250.0,train,4,H+
730.2942276,2,1000,1,1,2,1,5,4,3,0,0,250.0,train,2,H+
506.016016006,2,1000,1,1,2,1,5,4,3,0,0,250.0,train,2,H+
555.778980255,2,1000,1,1,2,1,5,4,3,0,0,250.0,train,2,H+
1034.3310833,0,1000,4,1,2,1,5,4,3,0,0,250.0,train,0,H+
1035.68100929,3,1000,5,1,2,1,5,4,3,0,0,250.0,train,3,H+
730.343103409,1,1000,0,1,2,1,5,4,3,0,0,250.0,train,1,H+
1018.44382286,0,1000,4,1,2,1,5,4,3,0,0,250.0,train,0,H+
827.836036682,5,1000,3,1,2,1,5,4,3,0,0,250.0,train,5,H+
794.378042221,3,1000,5,1,2,1,5,4,3,0,0,250.0,train,3,H+
730.302095413,0,1000,4,1,2,1,5,4,3,0,0,250.0,train,0,H+
506.291151047,1,1000,0,1,2,1,5,4,3,0,0,250.0,train,1,H+
458.23597908,2,1000,1,1,2,1,5,4,3,0,0,250.0,train,2,H+
568.963050842,3,1000,5,1,2,1,5,4,3,0,0,250.0,train,3,H+
651.949882507,0,1000,4,1,2,1,5,4,3,0,0,250.0,train,0,H+
683.773994446,2,1000,1,0,2,1,5,4,3,0,0,250.0,train,1,H+
1114.04204369,5,1000,3,1,2,1,5,4,3,0,0,250.0,train,5,H+
522.081851959,5,1000,3,1,2,1,5,4,3,0,0,250.0,train,5,H+
522.996902466,4,1000,2,1,2,1,5,4,3,0,0,250.0,train,4,H+
699.892997742,3,1000,5,1,2,1,5,4,3,0,0,250.0,train,3,H+
1162.45698929,4,1000,2,1,2,1,5,4,3,0,0,250.0,train,4,H+
507.918119431,4,1000,2,1,2,1,5,4,3,0,0,250.0,train,4,H+
603.87301445,5,1000,3,1,2,1,5,4,3,0,0,250.0,train,5,H+
2459.19704437,0,1000,4,1,2,1,5,4,3,0,0,250.0,train,0,H+
762.346982956,2,1000,1,1,2,1,5,4,3,0,0,250.0,train,2,H+
728.996992111,3,1000,5,0,2,1,5,4,3,0,0,250.0,train,4,H+
570.287942886,3,1000,5,1,2,1,5,4,3,0,0,250.0,train,3,H+
1179.20303345,1,1000,0,1,2,1,5,4,3,0,0,250.0,train,1,H+
731.062173843,0,1000,4,1,2,1,5,4,3,0,0,250.0,train,0,H+
1258.37182999,4,1000,2,1,2,1,5,4,3,0,0,250.0,train,4,H+
522.445201874,5,1000,3,1,2,1,5,4,3,0,0,250.0,train,5,H+
682.321071625,1,1000,0,0,2,1,5,4,3,0,0,250.0,train,0,H+
1610.45503616,4,1000,2,1,2,1,5,4,3,0,0,250.0,train,4,H+
602.257966995,5,1000,3,1,2,1,5,4,3,0,0,250.0,train,5,H+
730.329990387,4,1000,2,1,2,1,5,4,3,0,0,250.0,train,4,H+
763.885974884,1,1000,0,1,2,1,5,4,3,0,0,250.0,train,1,H+
651.906013489,4,1000,2,1,2,1,5,4,3,0,0,250.0,train,4,H+
1996.06204033,5,1000,3,1,2,1,5,4,3,0,0,250.0,train,5,H+
810.33205986,3,1000,5,0,2,1,5,4,3,0,0,250.0,train,4,H+
875.236034393,2,1000,1,1,2,1,5,4,3,0,0,250.0,train,2,H+
554.270982742,2,1000,1,1,2,1,5,4,3,0,0,250.0,train,2,H+
746.22797966,1,1000,0,1,2,1,5,4,3,0,0,250.0,train,1,H+
506.381988525,1,1000,0,1,2,1,5,4,3,0,0,250.0,train,1,H+
442.37780571,0,1000,4,1,2,1,5,4,3,0,0,250.0,train,0,H+
635.19692421,2,1000,1,1,2,1,5,4,3,0,0,250.0,train,2,H+
682.351827621,4,1000,2,0,2,1,5,4,3,0,0,250.0,train,3,H+
714.413881302,2,1000,1,1,2,1,5,4,3,0,0,250.0,train,2,H+
731.168031693,3,1000,5,1,2,1,5,4,3,0,0,250.0,train,3,H+
666.37301445,5,1000,3,1,2,1,5,4,3,0,0,250.0,train,5,H+
954.386949539,3,1000,5,1,2,1,5,4,3,0,0,250.0,train,3,H+
459.871053696,4,1000,2,1,2,1,5,4,3,0,0,250.0,train,4,H+
730.195045471,3,1000,5,1,2,1,5,4,3,0,0,250.0,train,3,H+
666.275978088,0,1000,4,1,2,1,5,4,3,0,0,250.0,train,0,H+
1098.13594818,3,1000,5,1,2,1,5,4,3,0,0,250.0,train,3,H+
634.326934814,5,1000,3,1,2,1,5,4,3,0,0,250.0,train,5,H+
570.318937302,1,1000,0,1,2,1,5,4,3,0,0,250.0,train,1,H+
843.987941742,5,1000,3,1,2,1,5,4,3,0,0,250.0,train,5,H+
555.938959122,0,1000,4,1,2,1,5,4,3,0,0,250.0,train,0,H+
426.27286911,2,1000,1,1,2,1,5,4,3,0,0,250.0,train,2,H+
488.978147507,2,1000,1,1,2,1,5,4,3,0,0,250.0,train,2,H+
698.226928711,0,1000,4,1,2,1,5,4,3,0,0,250.0,train,0,H+
618.225812912,5,1000,3,1,2,1,5,4,3,0,0,250.0,train,5,H+
794.330835342,3,1000,5,1,2,1,5,4,3,0,0,250.0,train,3,H+
859.095811844,3,1000,5,1,2,1,5,4,3,0,0,250.0,train,3,H+
618.354082108,5,1000,3,1,2,1,5,4,3,0,0,250.0,train,5,H+
648.898839951,5,1000,3,1,2,1,5,4,3,0,0,250.0,train,5,H+
954.372167587,1,1000,0,1,2,1,5,4,3,0,0,250.0,train,1,H+
954.415082932,0,1000,4,1,2,1,5,4,3,0,0,250.0,train,0,H+
730.345010757,4,1000,2,1,2,1,5,4,3,0,0,250.0,train,4,H+
538.330078125,2,1000,1,1,2,1,5,4,3,0,0,250.0,train,2,H+
619.84705925,4,1000,2,1,2,1,5,4,3,0,0,250.0,train,4,H+
587.869882584,1,1000,0,1,2,1,5,4,3,0,0,250.0,train,1,H+
587.899923325,5,1000,3,1,2,1,5,4,3,0,0,250.0,train,5,H+
602.32591629,0,1000,4,1,2,1,5,4,3,0,0,250.0,train,0,H+
586.266994476,5,1000,3,1,2,1,5,4,3,0,0,250.0,train,5,H+
602.354049683,0,1000,4,1,2,1,5,4,3,0,0,250.0,train,0,H+
458.290100098,1,1000,0,1,2,1,5,4,3,0,0,250.0,train,1,H+
826.377153397,3,1000,5,1,2,1,5,4,3,0,0,250.0,train,3,H+
730.323076248,0,1000,4,1,2,1,5,4,3,0,0,250.0,train,0,H+
1178.35307121,3,1000,5,0,2,1,5,4,3,0,0,250.0,train,4,H+
602.281808853,5,1000,3,1,2,1,5,4,3,0,0,250.0,train,5,H+
651.091814041,3,1000,5,0,2,1,5,4,3,0,0,250.0,train,5,H+
603.212118149,0,1000,4,1,2,1,5,4,3,0,0,250.0,train,0,H+
698.297023773,1,1000,0,1,2,1,5,4,3,0,0,250.0,train,1,H+
1050.19807816,4,1000,2,1,2,1,5,4,3,0,0,250.0,train,4,H+
634.296894073,4,1000,2,1,2,1,5,4,3,0,0,250.0,train,4,H+
699.88489151,1,1000,0,1,2,1,5,4,3,0,0,250.0,train,1,H+
634.350061417,2,1000,1,1,2,1,5,4,3,0,0,250.0,train,2,H+
907.180070877,5,1000,3,1,2,1,5,4,3,0,0,250.0,train,5,H+
618.258953094,5,1000,3,1,2,1,5,4,3,0,0,250.0,train,5,H+
938.352108002,0,1000,4,1,2,1,5,4,3,0,0,250.0,train,0,H+
1450.35505295,3,1000,5,0,2,1,5,4,3,0,0,250.0,train,4,H+
826.341152191,0,1000,4,1,2,1,5,4,3,0,0,250.0,train,0,H+
762.284994125,2,1000,1,1,2,1,5,4,3,0,0,250.0,train,2,H+
619.894981384,2,1000,1,1,2,1,5,4,3,0,0,250.0,train,2,H+
1707.20601082,5,1000,3,1,2,1,5,4,3,0,0,250.0,train,5,H+
826.344966888,4,1000,2,1,2,1,5,4,3,0,0,250.0,train,4,H+
698.453903198,4,1000,2,1,2,1,5,4,3,0,0,250.0,train,4,H+
618.324041367,5,1000,3,1,2,1,5,4,3,0,0,250.0,train,5,H+
554.258108139,5,1000,3,1,2,1,5,4,3,0,0,250.0,train,5,H+
826.032161713,2,1000,1,1,2,1,5,4,3,0,0,250.0,train,2,H+
538.167953491,2,1000,1,1,2,1,5,4,3,0,0,250.0,train,2,H+
713.965892792,5,1000,3,1,2,1,5,4,3,0,0,250.0,train,5,H+
555.891036987,5,1000,3,1,2,1,5,4,3,0,0,250.0,train,5,H+
1002.27499008,1,1000,0,1,2,1,5,4,3,0,0,250.0,train,1,H+
602.262020111,1,1000,0,1,2,1,5,4,3,0,0,250.0,train,1,H+
682.183980942,2,1000,1,1,2,1,5,4,3,0,0,250.0,train,2,H+
971.966981888,3,1000,5,1,2,1,5,4,3,0,0,250.0,train,3,H+
523.880958557,3,1000,5,1,2,1,5,4,3,0,0,250.0,train,3,H+
682.363986969,4,1000,2,1,2,1,5,4,3,0,0,250.0,train,4,H+
651.88908577,0,1000,4,1,2,1,5,4,3,0,0,250.0,train,0,H+
618.290185928,1,1000,0,1,2,1,5,4,3,0,0,250.0,train,1,H+
505.781173706,2,1000,1,1,2,1,5,4,3,0,0,250.0,train,2,H+
1082.30113983,1,1000,0,1,2,1,5,4,3,0,0,250.0,train,1,H+
922.313928604,3,1000,5,1,2,1,5,4,3,0,0,250.0,train,3,H+
890.344142914,5,1000,3,1,2,1,5,4,3,0,0,250.0,train,5,H+
666.329860687,0,1000,4,1,2,1,5,4,3,0,0,250.0,train,0,H+
714.351892471,0,1000,4,1,2,1,5,4,3,0,0,250.0,train,0,H+
826.287984848,2,1000,1,1,2,1,5,4,3,0,0,250.0,train,2,H+
762.375116348,3,1000,5,1,2,1,5,4,3,0,0,250.0,train,3,H+
682.354927063,5,1000,3,1,2,1,5,4,3,0,0,250.0,train,5,H+
730.356931686,4,1000,2,1,2,1,5,4,3,0,0,250.0,train,4,H+
635.945081711,4,1000,2,1,2,1,5,4,3,0,0,250.0,train,4,H+
634.199142456,0,1000,4,1,2,1,5,4,3,0,0,250.0,train,0,H+
859.880924225,0,1000,4,1,2,1,5,4,3,0,0,250.0,train,0,H+
1050.29797554,4,1000,2,1,2,1,5,4,3,0,0,250.0,train,4,H+
682.370185852,0,1000,4,1,2,1,5,4,3,0,0,250.0,train,0,H+
698.421001434,5,1000,3,1,2,1,5,4,3,0,0,250.0,train,5,H+
970.296859741,3,1000,5,1,2,1,5,4,3,0,0,250.0,train,3,H+
858.408927917,1,1000,0,1,2,1,5,4,3,0,0,250.0,train,1,H+
602.307081223,1,1000,0,1,2,1,5,4,3,0,0,250.0,train,1,H+
472.935914993,2,1000,1,1,2,1,5,4,3,0,0,250.0,train,2,H+
698.222875595,1,1000,0,0,2,1,5,4,3,0,0,250.0,train,0,H+
602.30588913,5,1000,3,1,2,1,5,4,3,0,0,250.0,train,5,H+
763.085842133,1,1000,0,1,2,1,5,4,3,0,0,250.0,train,1,H+
731.043100357,4,1000,2,1,2,1,5,4,3,0,0,250.0,train,4,H+
651.937007904,0,1000,4,1,2,1,5,4,3,0,0,250.0,train,0,H+
666.208982468,0,1000,4,1,2,1,5,4,3,0,0,250.0,train,0,H+
1226.39393806,3,1000,5,1,2,1,5,4,3,0,0,250.0,train,3,H+
987.850904465,1,1000,0,0,2,1,5,4,3,0,0,250.0,train,0,H+
426.270008087,1,1000,0,1,2,1,5,4,3,0,0,250.0,train,1,H+
715.579986572,5,1000,3,1,2,1,5,4,3,0,0,250.0,train,5,H+
939.786911011,3,1000,5,1,2,1,5,4,3,0,0,250.0,train,3,H+
634.360074997,3,1000,5,1,2,1,5,4,3,0,0,250.0,train,3,H+
507.88807869,3,1000,5,1,2,1,5,4,3,0,0,250.0,train,3,H+
714.287996292,1,1000,0,1,2,1,5,4,3,0,0,250.0,train,1,H+
747.873067856,0,1000,4,1,2,1,5,4,3,0,0,250.0,train,0,H+
1546.45609856,5,1000,3,1,2,1,5,4,3,0,0,250.0,train,5,H+
586.261987686,2,1000,1,0,2,1,5,4,3,0,0,250.0,train,1,H+
1099.24697876,4,1000,2,1,2,1,5,4,3,0,0,250.0,train,4,H+
459.084033966,3,1000,5,0,2,1,5,4,3,0,0,250.0,train,5,H+
698.291063309,1,1000,0,1,2,1,5,4,3,0,0,250.0,train,1,H+
1226.26590729,3,1000,5,1,2,1,5,4,3,0,0,250.0,train,3,H+
586.17401123,3,1000,5,1,2,1,5,4,3,0,0,250.0,train,3,H+
522.305965424,5,1000,3,1,2,1,5,4,3,0,0,250.0,train,5,H+
714.334964752,0,1000,4,1,2,1,5,4,3,0,0,250.0,train,0,H+
730.236053467,1,1000,0,1,2,1,5,4,3,0,0,250.0,train,1,H+
699.920892715,1,1000,0,1,2,1,5,4,3,0,0,250.0,train,1,H+
587.804079056,0,1000,4,1,2,1,5,4,3,0,0,250.0,train,0,H+
426.32818222,2,1000,1,1,2,1,5,4,3,0,0,250.0,train,2,H+
666.298151016,5,1000,3,1,2,1,5,4,3,0,0,250.0,train,5,H+
554.313898087,4,1000,2,1,2,1,5,4,3,0,0,250.0,train,4,H+
971.224069595,1,1000,0,1,2,1,5,4,3,0,0,250.0,train,1,H+
762.351989746,2,1000,1,1,2,1,5,4,3,0,0,250.0,train,2,H+
650.30002594,1,1000,0,1,2,1,5,4,3,0,0,250.0,train,1,H+
874.3019104,2,1000,1,1,2,1,5,4,3,0,0,250.0,train,2,H+
682.336091995,1,1000,0,1,2,1,5,4,3,0,0,250.0,train,1,H+
522.156953812,1,1000,0,1,2,1,5,4,3,0,0,250.0,train,1,H+
1835.78491211,2,1000,1,1,2,1,5,4,3,0,0,250.0,test,2,H+
938.325881958,0,1000,4,1,2,1,5,4,3,0,0,250.0,test,0,H+
730.219125748,0,1000,4,1,2,1,5,4,3,0,0,250.0,test,0,H+
666.439056396,1,1000,0,1,2,1,5,4,3,0,0,250.0,test,1,H+
698.38809967,2,1000,1,1,2,1,5,4,3,0,0,250.0,test,2,H+
712.978124619,3,1000,5,1,2,1,5,4,3,0,0,250.0,test,3,H+
426.290035248,4,1000,2,1,2,1,5,4,3,0,0,250.0,test,4,H+
458.235025406,5,1000,3,1,2,1,5,4,3,0,0,250.0,test,5,H+
650.337934494,1,1000,0,1,2,1,5,4,3,0,0,250.0,test,1,H+
634.169816971,2,1000,1,1,2,1,5,4,3,0,0,250.0,test,2,H+
586.347103119,4,1000,2,1,2,1,5,4,3,0,0,250.0,test,4,H+
860.954046249,2,1000,1,0,2,1,5,4,3,0,0,250.0,test,1,H+
826.284885406,1,1000,0,1,2,1,5,4,3,0,0,250.0,test,1,H+
699.845790863,4,1000,2,1,2,1,5,4,3,0,0,250.0,test,4,H+
762.37821579,2,1000,1,1,2,1,5,4,3,0,0,250.0,test,2,H+
634.310007095,5,1000,3,1,2,1,5,4,3,0,0,250.0,test,5,H+
827.95214653,4,1000,2,1,2,1,5,4,3,0,0,250.0,test,4,H+
650.213003159,5,1000,3,1,2,1,5,4,3,0,0,250.0,test,5,H+
635.171890259,2,1000,1,0,2,1,5,4,3,0,0,250.0,test,5,H+
586.380958557,2,1000,1,1,2,1,5,4,3,0,0,250.0,test,2,H+
1227.69999504,3,1000,5,1,2,1,5,4,3,0,0,250.0,test,3,H+
666.416883469,0,1000,4,1,2,1,5,4,3,0,0,250.0,test,0,H+
970.336914062,4,1000,2,1,2,1,5,4,3,0,0,250.0,test,4,H+
826.287984848,4,1000,2,1,2,1,5,4,3,0,0,250.0,test,4,H+
635.17999649,1,1000,0,1,2,1,5,4,3,0,0,250.0,test,1,H+
682.361841202,1,1000,0,1,2,1,5,4,3,0,0,250.0,test,1,H+
618.389844894,0,1000,4,1,2,1,5,4,3,0,0,250.0,test,0,H+
490.26799202,0,1000,4,1,2,1,5,4,3,0,0,250.0,test,0,H+
571.176052094,0,1000,4,1,2,1,5,4,3,0,0,250.0,test,0,H+
1243.92580986,3,1000,5,1,2,1,5,4,3,0,0,250.0,test,3,H+
666.319847107,4,1000,2,1,2,1,5,4,3,0,0,250.0,test,4,H+
682.363986969,0,1000,4,1,2,1,5,4,3,0,0,250.0,test,0,H+
792.932987213,5,1000,3,1,2,1,5,4,3,0,0,250.0,test,5,H+
634.363174438,5,1000,3,1,2,1,5,4,3,0,0,250.0,test,5,H+
842.331886292,2,1000,1,1,2,1,5,4,3,0,0,250.0,test,2,H+
971.775054932,0,1000,4,1,2,1,5,4,3,0,0,250.0,test,0,H+
570.279121399,1,1000,0,1,2,1,5,4,3,0,0,250.0,test,1,H+
1082.30090141,3,1000,5,1,2,1,5,4,3,0,0,250.0,test,3,H+
539.895057678,5,1000,3,1,2,1,5,4,3,0,0,250.0,test,5,H+
619.183063507,3,1000,5,1,2,1,5,4,3,0,0,250.0,test,3,H+
1163.93709183,1,1000,0,1,2,1,5,4,3,0,0,250.0,test,1,H+
986.429929733,1,1000,0,1,2,1,5,4,3,0,0,250.0,test,1,H+
538.396120071,3,1000,5,0,2,1,5,4,3,0,0,250.0,test,1,H+
810.389041901,4,1000,2,1,2,1,5,4,3,0,0,250.0,test,4,H+
842.367887497,2,1000,1,1,2,1,5,4,3,0,0,250.0,test,2,H+
442.396879196,2,1000,1,1,2,1,5,4,3,0,0,250.0,test,2,H+
635.905981064,0,1000,4,1,2,1,5,4,3,0,0,250.0,test,0,H+
682.312965393,1,1000,0,1,2,1,5,4,3,0,0,250.0,test,1,H+
442.346096039,0,1000,4,1,2,1,5,4,3,0,0,250.0,test,0,H+
90.2690887451,0,1000,4,1,2,1,5,4,3,0,0,250.0,test,0,H+
426.259040833,1,1000,0,1,2,1,5,4,3,0,0,250.0,test,1,H+
842.336893082,3,1000,5,1,2,1,5,4,3,0,0,250.0,test,3,H+
218.259096146,4,1000,2,1,2,1,5,4,3,0,0,250.0,test,4,H+
411.947965622,5,1000,3,1,2,1,5,4,3,0,0,250.0,test,5,H+
523.835897446,1,1000,0,1,2,1,5,4,3,0,0,250.0,test,1,H+
587.889909744,5,1000,3,1,2,1,5,4,3,0,0,250.0,test,5,H+
587.868928909,1,1000,0,1,2,1,5,4,3,0,0,250.0,test,1,H+
523.889064789,1,1000,0,1,2,1,5,4,3,0,0,250.0,test,1,H+
634.356021881,0,1000,4,1,2,1,5,4,3,0,0,250.0,test,0,H+
554.332971573,5,1000,3,1,2,1,5,4,3,0,0,250.0,test,5,H+
554.321050644,4,1000,2,1,2,1,5,4,3,0,0,250.0,test,4,H+
426.337003708,2,1000,1,1,2,1,5,4,3,0,0,250.0,test,2,H+
538.377046585,4,1000,2,1,2,1,5,4,3,0,0,250.0,test,4,H+
522.20416069,2,1000,1,1,2,1,5,4,3,0,0,250.0,test,2,H+
520.972967148,5,1000,3,1,2,1,5,4,3,0,0,250.0,test,5,H+
363.703012466,3,1000,5,1,2,1,5,4,3,0,0,250.0,test,3,H+
442.306041718,3,1000,5,1,2,1,5,4,3,0,0,250.0,test,3,H+
538.29407692,0,1000,4,1,2,1,5,4,3,0,0,250.0,test,0,H+
506.36100769,1,1000,0,1,2,1,5,4,3,0,0,250.0,test,1,H+
699.964046478,3,1000,5,1,2,1,5,4,3,0,0,250.0,test,3,H+
604.011058807,2,1000,1,1,2,1,5,4,3,0,0,250.0,test,2,H+
618.391990662,1,1000,0,1,2,1,5,4,3,0,0,250.0,test,1,H+
746.303081512,3,1000,5,1,2,1,5,4,3,0,0,250.0,test,3,H+
587.869882584,5,1000,3,1,2,1,5,4,3,0,0,250.0,test,5,H+
858.311891556,4,1000,2,1,2,1,5,4,3,0,0,250.0,test,4,H+
634.382963181,0,1000,4,1,2,1,5,4,3,0,0,250.0,test,0,H+
1003.24678421,5,1000,3,1,2,1,5,4,3,0,0,250.0,test,5,H+
906.351089478,4,1000,2,1,2,1,5,4,3,0,0,250.0,test,4,H+
811.905145645,2,1000,1,1,2,1,5,4,3,0,0,250.0,test,2,H+
683.104038239,2,1000,1,1,2,1,5,4,3,0,0,250.0,test,2,H+
506.266832352,2,1000,1,1,2,1,5,4,3,0,0,250.0,test,2,H+
570.219993591,1,1000,0,1,2,1,5,4,3,0,0,250.0,test,1,H+
490.27299881,1,1000,0,1,2,1,5,4,3,0,0,250.0,test,1,H+
426.352024078,3,1000,5,1,2,1,5,4,3,0,0,250.0,test,3,H+
603.903055191,0,1000,4,1,2,1,5,4,3,0,0,250.0,test,0,H+
587.934017181,1,1000,0,1,2,1,5,4,3,0,0,250.0,test,1,H+
440.906047821,0,1000,4,0,2,1,5,4,3,0,0,250.0,test,1,H+
443.874835968,1,1000,0,1,2,1,5,4,3,0,0,250.0,test,1,H+
570.322990417,5,1000,3,1,2,1,5,4,3,0,0,250.0,test,5,H+
395.783901215,3,1000,5,1,2,1,5,4,3,0,0,250.0,test,3,H+
586.376905441,3,1000,5,1,2,1,5,4,3,0,0,250.0,test,3,H+
666.271924973,2,1000,1,1,2,1,5,4,3,0,0,250.0,test,2,H+
633.02397728,5,1000,3,1,2,1,5,4,3,0,0,250.0,test,5,H+
394.263029099,4,1000,2,1,2,1,5,4,3,0,0,250.0,test,4,H+
699.141979218,5,1000,3,1,2,1,5,4,3,0,0,250.0,test,5,H+
586.333036423,5,1000,3,1,2,1,5,4,3,0,0,250.0,test,5,H+
794.352054596,3,1000,5,1,2,1,5,4,3,0,0,250.0,test,3,H+
683.6810112,4,1000,2,1,2,1,5,4,3,0,0,250.0,test,4,H+
634.341955185,0,1000,4,1,2,1,5,4,3,0,0,250.0,test,0,H+
491.84179306,1,1000,0,1,2,1,5,4,3,0,0,250.0,test,1,H+
539.912939072,1,1000,0,1,2,1,5,4,3,0,0,250.0,test,1,H+
683.886051178,0,1000,4,1,2,1,5,4,3,0,0,250.0,test,0,H+
538.306951523,5,1000,3,1,2,1,5,4,3,0,0,250.0,test,5,H+
1226.32884979,5,1000,3,1,2,1,5,4,3,0,0,250.0,test,5,H+
666.352987289,2,1000,1,1,2,1,5,4,3,0,0,250.0,test,2,H+
681.014060974,1,1000,0,1,2,1,5,4,3,0,0,250.0,test,1,H+
746.355056763,4,1000,2,1,2,1,5,4,3,0,0,250.0,test,4,H+
970.357894897,0,1000,4,1,2,1,5,4,3,0,0,250.0,test,0,H+
538.281917572,5,1000,3,1,2,1,5,4,3,0,0,250.0,test,5,H+
874.356985092,0,1000,4,1,2,1,5,4,3,0,0,250.0,test,0,H+
666.160821915,4,1000,2,0,2,1,5,4,3,0,0,250.0,test,5,H+
666.399002075,1,1000,0,1,2,1,5,4,3,0,0,250.0,test,1,H+
618.341207504,3,1000,5,1,2,1,5,4,3,0,0,250.0,test,3,H+
379.897117615,4,1000,2,1,2,1,5,4,3,0,0,250.0,test,4,H+
491.885900497,2,1000,1,1,2,1,5,4,3,0,0,250.0,test,2,H+
619.894981384,0,1000,4,1,2,1,5,4,3,0,0,250.0,test,0,H+
570.250988007,2,1000,1,1,2,1,5,4,3,0,0,250.0,test,2,H+
587.872028351,1,1000,0,1,2,1,5,4,3,0,0,250.0,test,1,H+
586.265087128,0,1000,4,1,2,1,5,4,3,0,0,250.0,test,0,H+
714.369058609,3,1000,5,1,2,1,5,4,3,0,0,250.0,test,3,H+
554.285049438,4,1000,2,1,2,1,5,4,3,0,0,250.0,test,4,H+
570.354938507,3,1000,5,1,2,1,5,4,3,0,0,250.0,test,3,H+
250.236034393,3,1000,5,0,2,1,5,4,3,0,0,250.0,test,5,H+
522.291898727,5,1000,3,1,2,1,5,4,3,0,0,250.0,test,5,H+
506.307125092,0,1000,4,1,2,1,5,4,3,0,0,250.0,test,0,H+
667.752027512,3,1000,5,1,2,1,5,4,3,0,0,250.0,test,3,H+
794.316053391,0,1000,4,1,2,1,5,4,3,0,0,250.0,test,0,H+
795.166015625,3,1000,5,1,2,1,5,4,3,0,0,250.0,test,3,H+
699.902057648,1,1000,0,1,2,1,5,4,3,0,0,250.0,test,1,H+
698.364973068,3,1000,5,1,2,1,5,4,3,0,0,250.0,test,3,H+
731.914043427,2,1000,1,1,2,1,5,4,3,0,0,250.0,test,2,H+
794.385910034,1,1000,0,1,2,1,5,4,3,0,0,250.0,test,1,H+
426.217079163,1,1000,0,1,2,1,5,4,3,0,0,250.0,test,1,H+
522.40395546,2,1000,1,1,2,1,5,4,3,0,0,250.0,test,2,H+
618.129968643,4,1000,2,1,2,1,5,4,3,0,0,250.0,test,4,H+
507.915019989,5,1000,3,1,2,1,5,4,3,0,0,250.0,test,5,H+
538.257837296,1,1000,0,1,2,1,5,4,3,0,0,250.0,test,1,H+
683.065891266,3,1000,5,1,2,1,5,4,3,0,0,250.0,test,3,H+
859.946966171,5,1000,3,1,2,1,5,4,3,0,0,250.0,test,5,H+
522.373914719,0,1000,4,1,2,1,5,4,3,0,0,250.0,test,0,H+
554.322004318,2,1000,1,1,2,1,5,4,3,0,0,250.0,test,2,H+
618.371009827,5,1000,3,1,2,1,5,4,3,0,0,250.0,test,5,H+
635.02407074,4,1000,2,1,2,1,5,4,3,0,0,250.0,test,4,H+
508.853912354,5,1000,3,1,2,1,5,4,3,0,0,250.0,test,5,H+
523.798942566,3,1000,5,0,2,1,5,4,3,0,0,250.0,test,4,H+
618.276119232,1,1000,0,1,2,1,5,4,3,0,0,250.0,test,1,H+
858.250141144,3,1000,5,1,2,1,5,4,3,0,0,250.0,test,3,H+
570.379018784,4,1000,2,1,2,1,5,4,3,0,0,250.0,test,4,H+
554.356098175,1,1000,0,1,2,1,5,4,3,0,0,250.0,test,1,H+
586.380958557,5,1000,3,1,2,1,5,4,3,0,0,250.0,test,5,H+
635.971069336,4,1000,2,1,2,1,5,4,3,0,0,250.0,test,4,H+
570.294141769,2,1000,1,1,2,1,5,4,3,0,0,250.0,test,2,H+
1546.44989967,1,1000,0,1,2,1,5,4,3,0,0,250.0,test,1,H+
475.651025772,1,1000,0,1,2,1,5,4,3,0,0,250.0,test,1,H+
474.250793457,2,1000,1,1,2,1,5,4,3,0,0,250.0,test,2,H+
522.331953049,4,1000,2,0,2,1,5,4,3,0,0,250.0,test,2,H+
554.333925247,5,1000,3,1,2,1,5,4,3,0,0,250.0,test,5,H+
987.892866135,1,1000,0,1,2,1,5,4,3,0,0,250.0,test,1,H+
650.349855423,2,1000,1,1,2,1,5,4,3,0,0,250.0,test,2,H+
1066.34902954,4,1000,2,1,2,1,5,4,3,0,0,250.0,test,4,H+
170.047998428,0,1000,4,0,2,1,5,4,3,0,0,250.0,test,4,H+
875.154018402,3,1000,5,1,2,1,5,4,3,0,0,250.0,test,3,H+
682.203054428,1,1000,0,1,2,1,5,4,3,0,0,250.0,test,1,H+
698.309183121,3,1000,5,1,2,1,5,4,3,0,0,250.0,test,3,H+
794.30103302,5,1000,3,1,2,1,5,4,3,0,0,250.0,test,5,H+
938.230037689,5,1000,3,0,2,1,5,4,3,0,0,250.0,test,0,H+
682.244062424,1,1000,0,1,2,1,5,4,3,0,0,250.0,test,1,H+
554.316043854,4,1000,2,1,2,1,5,4,3,0,0,250.0,test,4,H+
635.948896408,2,1000,1,1,2,1,5,4,3,0,0,250.0,test,2,H+
602.234125137,4,1000,2,1,2,1,5,4,3,0,0,250.0,test,4,H+
554.369211197,0,1000,4,1,2,1,5,4,3,0,0,250.0,test,0,H+
410.301923752,1,1000,0,1,2,1,5,4,3,0,0,250.0,test,1,H+
890.351057053,3,1000,5,1,2,1,5,4,3,0,0,250.0,test,3,H+
490.314006805,4,1000,2,1,2,1,5,4,3,0,0,250.0,test,4,H+
602.374076843,0,1000,4,1,2,1,5,4,3,0,0,250.0,test,0,H+
426.289081573,0,1000,4,0,2,1,5,4,3,0,0,250.0,test,1,H+
682.265996933,3,1000,5,1,2,1,5,4,3,0,0,250.0,test,3,H+
506.308078766,5,1000,3,1,2,1,5,4,3,0,0,250.0,test,5,H+
634.136915207,1,1000,0,1,2,1,5,4,3,0,0,250.0,test,1,H+
683.85386467,5,1000,3,1,2,1,5,4,3,0,0,250.0,test,5,H+
586.23790741,1,1000,0,1,2,1,5,4,3,0,0,250.0,test,1,H+
618.34692955,2,1000,1,1,2,1,5,4,3,0,0,250.0,test,2,H+
602.27894783,0,1000,4,1,2,1,5,4,3,0,0,250.0,test,0,H+
522.310018539,5,1000,3,1,2,1,5,4,3,0,0,250.0,test,5,H+
602.112054825,5,1000,3,1,2,1,5,4,3,0,0,250.0,test,5,H+
683.919906616,3,1000,5,1,2,1,5,4,3,0,0,250.0,test,3,H+
538.359165192,3,1000,5,1,2,1,5,4,3,0,0,250.0,test,3,H+
762.33291626,1,1000,0,1,2,1,5,4,3,0,0,250.0,test,1,H+
618.208885193,1,1000,0,1,2,1,5,4,3,0,0,250.0,test,1,H+
570.228099823,1,1000,0,1,2,1,5,4,3,0,0,250.0,test,1,H+
731.586933136,2,1000,1,1,2,1,5,4,3,0,0,250.0,test,2,H+
763.88502121,3,1000,5,1,2,1,5,4,3,0,0,250.0,test,3,H+
907.030105591,0,1000,4,1,2,1,5,4,3,0,0,250.0,test,0,H+
586.318016052,0,1000,4,1,2,1,5,4,3,0,0,250.0,test,0,H+
618.247032166,3,1000,5,1,2,1,5,4,3,0,0,250.0,test,3,H+
619.732141495,1,1000,0,1,2,1,5,4,3,0,0,250.0,test,1,H+
650.270938873,4,1000,2,0,2,1,5,4,3,0,0,250.0,test,5,H+
666.282892227,2,1000,1,1,2,1,5,4,3,0,0,250.0,test,2,H+
618.357896805,1,1000,0,1,2,1,5,4,3,0,0,250.0,test,1,H+
618.458986282,0,1000,4,0,2,1,5,4,3,0,0,250.0,test,1,H+
906.297922134,3,1000,5,1,2,1,5,4,3,0,0,250.0,test,3,H+
698.254823685,1,1000,0,1,2,1,5,4,3,0,0,250.0,test,1,H+
570.407867432,1,1000,0,1,2,1,5,4,3,0,0,250.0,test,1,H+
746.32692337,0,1000,4,1,2,1,5,4,3,0,0,250.0,test,0,H+
634.312152863,0,1000,4,1,2,1,5,4,3,0,0,250.0,test,0,H+
490.180969238,5,1000,3,1,2,1,5,4,3,0,0,250.0,test,5,H+
554.253101349,5,1000,3,1,2,1,5,4,3,0,0,250.0,test,5,H+
634.260177612,0,1000,4,1,2,1,5,4,3,0,0,250.0,test,0,H+
538.375139236,1,1000,0,1,2,1,5,4,3,0,0,250.0,test,1,H+
538.347005844,1,1000,0,1,2,1,5,4,3,0,0,250.0,test,1,H+
650.406837463,5,1000,3,1,2,1,5,4,3,0,0,250.0,test,5,H+
795.816898346,2,1000,1,1,2,1,5,4,3,0,0,250.0,test,2,H+
760.987043381,3,1000,5,1,2,1,5,4,3,0,0,250.0,test,3,H+
394.32311058,4,1000,2,1,2,1,5,4,3,0,0,250.0,test,4,H+
634.305953979,2,1000,1,1,2,1,5,4,3,0,0,250.0,test,2,H+
650.367021561,0,1000,4,1,2,1,5,4,3,0,0,250.0,test,0,H+
746.332883835,3,1000,5,1,2,1,5,4,3,0,0,250.0,test,3,H+
586.333990097,0,1000,4,1,2,1,5,4,3,0,0,250.0,test,0,H+
650.296211243,2,1000,1,1,2,1,5,4,3,0,0,250.0,test,2,H+
779.933929443,3,1000,5,1,2,1,5,4,3,0,0,250.0,test,3,H+
634.233951569,0,1000,4,1,2,1,5,4,3,0,0,250.0,test,0,H+
1259.93800163,5,1000,3,1,2,1,5,4,3,0,0,250.0,test,5,H+
651.173830032,1,1000,0,1,2,1,5,4,3,0,0,250.0,test,1,H+
715.767860413,0,1000,4,1,2,1,5,4,3,0,0,250.0,test,0,H+
1018.34201813,1,1000,0,1,2,1,5,4,3,0,0,250.0,test,1,H+
523.912906647,2,1000,1,1,2,1,5,4,3,0,0,250.0,test,2,H+
762.435913086,2,1000,1,1,2,1,5,4,3,0,0,250.0,test,2,H+
1643.99600029,1,1000,0,1,2,1,5,4,3,0,0,250.0,test,1,H+
283.817052841,1,1000,0,1,2,1,5,4,3,0,0,250.0,test,1,H+
538.263082504,2,1000,1,0,2,1,5,4,3,0,0,250.0,test,4,H+
537.917137146,1,1000,0,1,2,1,5,4,3,0,0,250.0,test,1,H+
842.388153076,3,1000,5,1,2,1,5,4,3,0,0,250.0,test,3,H+
570.230007172,2,1000,1,1,2,1,5,4,3,0,0,250.0,test,2,H+
682.358980179,1,1000,0,1,2,1,5,4,3,0,0,250.0,test,1,H+
714.271068573,0,1000,4,1,2,1,5,4,3,0,0,250.0,test,0,H+
587.807893753,5,1000,3,1,2,1,5,4,3,0,0,250.0,test,5,H+
602.320194244,0,1000,4,1,2,1,5,4,3,0,0,250.0,test,0,H+
666.280984879,0,1000,4,1,2,1,5,4,3,0,0,250.0,test,0,H+
538.306951523,1,1000,0,1,2,1,5,4,3,0,0,250.0,test,1,H+
843.959093094,4,1000,2,1,2,1,5,4,3,0,0,250.0,test,4,H+
507.910013199,2,1000,1,1,2,1,5,4,3,0,0,250.0,test,2,H+
699.897050858,5,1000,3,1,2,1,5,4,3,0,0,250.0,test,5,H+
586.357116699,1,1000,0,1,2,1,5,4,3,0,0,250.0,test,1,H+
474.337100983,1,1000,0,1,2,1,5,4,3,0,0,250.0,test,1,H+
683.140993118,4,1000,2,1,2,1,5,4,3,0,0,250.0,test,4,H+
794.390916824,2,1000,1,1,2,1,5,4,3,0,0,250.0,test,2,H+
522.305965424,5,1000,3,1,2,1,5,4,3,0,0,250.0,test,5,H+
522.364139557,5,1000,3,1,2,1,5,4,3,0,0,250.0,test,5,H+
810.394048691,4,1000,2,1,2,1,5,4,3,0,0,250.0,test,4,H+
1610.36992073,2,1000,1,1,2,1,5,4,3,0,0,250.0,test,2,H+
