RT,correct_response,ms-prestimblank,curstim,correct,SRmap_1,SRmap_0,SRmap_3,SRmap_2,SRmap_5,SRmap_4,ms-precue,ntrials,type,response,condition
2671.76985741,5,1000,3,0,4,0,5,1,3,2,0,250.0,train,4,H+
1376.07097626,0,1000,0,1,4,0,5,1,3,2,0,250.0,train,0,H+
1136.23905182,1,1000,2,1,4,0,5,1,3,2,0,250.0,train,1,H+
1712.25190163,3,1000,5,1,4,0,5,1,3,2,0,250.0,train,3,H+
912.294149399,2,1000,4,1,4,0,5,1,3,2,0,250.0,train,2,H+
1376.20186806,0,1000,0,1,4,0,5,1,3,2,0,250.0,train,0,H+
1072.17502594,5,1000,3,1,4,0,5,1,3,2,0,250.0,train,5,H+
912.021160126,1,1000,2,1,4,0,5,1,3,2,0,250.0,train,1,H+
896.209955215,0,1000,0,1,4,0,5,1,3,2,0,250.0,train,0,H+
719.756126404,3,1000,5,0,4,0,5,1,3,2,0,250.0,train,0,H+
1040.26007652,5,1000,3,1,4,0,5,1,3,2,0,250.0,train,5,H+
848.303079605,2,1000,4,1,4,0,5,1,3,2,0,250.0,train,2,H+
912.113904953,5,1000,3,1,4,0,5,1,3,2,0,250.0,train,5,H+
1024.18422699,1,1000,2,1,4,0,5,1,3,2,0,250.0,train,1,H+
1200.36792755,4,1000,1,1,4,0,5,1,3,2,0,250.0,train,4,H+
688.348054886,2,1000,4,1,4,0,5,1,3,2,0,250.0,train,2,H+
831.759929657,2,1000,4,1,4,0,5,1,3,2,0,250.0,train,2,H+
927.939891815,1,1000,2,1,4,0,5,1,3,2,0,250.0,train,1,H+
623.492002487,2,1000,4,1,4,0,5,1,3,2,0,250.0,train,2,H+
688.068151474,2,1000,4,1,4,0,5,1,3,2,0,250.0,train,2,H+
448.248147964,2,1000,4,1,4,0,5,1,3,2,0,250.0,train,2,H+
528.034925461,0,1000,0,1,4,0,5,1,3,2,0,250.0,train,0,H+
496.048927307,5,1000,3,1,4,0,5,1,3,2,0,250.0,train,5,H+
608.116865158,2,1000,4,1,4,0,5,1,3,2,0,250.0,train,2,H+
511.807918549,0,1000,0,1,4,0,5,1,3,2,0,250.0,train,0,H+
1040.97390175,4,1000,1,1,4,0,5,1,3,2,0,250.0,train,4,H+
528.172016144,5,1000,3,1,4,0,5,1,3,2,0,250.0,train,5,H+
592.14091301,3,1000,5,0,4,0,5,1,3,2,0,250.0,train,0,H+
1087.82196045,0,1000,0,1,4,0,5,1,3,2,0,250.0,train,0,H+
2304.19301987,3,1000,5,1,4,0,5,1,3,2,0,250.0,train,3,H+
688.344955444,4,1000,1,1,4,0,5,1,3,2,0,250.0,train,4,H+
1120.17393112,5,1000,3,1,4,0,5,1,3,2,0,250.0,train,5,H+
687.839984894,2,1000,4,1,4,0,5,1,3,2,0,250.0,train,2,H+
639.940977097,2,1000,4,1,4,0,5,1,3,2,0,250.0,train,2,H+
592.113018036,1,1000,2,1,4,0,5,1,3,2,0,250.0,train,1,H+
1072.10683823,5,1000,3,1,4,0,5,1,3,2,0,250.0,train,5,H+
1184.01193619,4,1000,1,1,4,0,5,1,3,2,0,250.0,train,4,H+
640.233039856,0,1000,0,1,4,0,5,1,3,2,0,250.0,train,0,H+
623.842000961,0,1000,0,1,4,0,5,1,3,2,0,250.0,train,0,H+
911.725997925,3,1000,5,0,4,0,5,1,3,2,0,250.0,train,5,H+
1008.17513466,5,1000,3,1,4,0,5,1,3,2,0,250.0,train,5,H+
832.052946091,5,1000,3,1,4,0,5,1,3,2,0,250.0,train,5,H+
880.184173584,1,1000,2,1,4,0,5,1,3,2,0,250.0,train,1,H+
1424.18003082,5,1000,3,1,4,0,5,1,3,2,0,250.0,train,5,H+
688.098907471,0,1000,0,1,4,0,5,1,3,2,0,250.0,train,0,H+
960.283994675,3,1000,5,1,4,0,5,1,3,2,0,250.0,train,3,H+
752.325057983,5,1000,3,1,4,0,5,1,3,2,0,250.0,train,5,H+
880.414009094,0,1000,0,1,4,0,5,1,3,2,0,250.0,train,0,H+
799.951076508,5,1000,3,1,4,0,5,1,3,2,0,250.0,train,5,H+
656.432151794,0,1000,0,1,4,0,5,1,3,2,0,250.0,train,0,H+
624.042987823,0,1000,0,1,4,0,5,1,3,2,0,250.0,train,0,H+
688.456058502,4,1000,1,1,4,0,5,1,3,2,0,250.0,train,4,H+
560.426950455,2,1000,4,1,4,0,5,1,3,2,0,250.0,train,2,H+
768.01609993,4,1000,1,1,4,0,5,1,3,2,0,250.0,train,4,H+
1567.81387329,5,1000,3,1,4,0,5,1,3,2,0,250.0,train,5,H+
704.440832138,5,1000,3,1,4,0,5,1,3,2,0,250.0,train,5,H+
624.039888382,0,1000,0,1,4,0,5,1,3,2,0,250.0,train,0,H+
560.408830643,2,1000,4,1,4,0,5,1,3,2,0,250.0,train,2,H+
895.89381218,5,1000,3,1,4,0,5,1,3,2,0,250.0,train,5,H+
1152.31585503,3,1000,5,1,4,0,5,1,3,2,0,250.0,train,3,H+
768.229961395,5,1000,3,0,4,0,5,1,3,2,0,250.0,train,0,H+
767.72403717,3,1000,5,1,4,0,5,1,3,2,0,250.0,train,3,H+
527.894973755,5,1000,3,1,4,0,5,1,3,2,0,250.0,train,5,H+
671.900033951,4,1000,1,1,4,0,5,1,3,2,0,250.0,train,4,H+
944.869995117,3,1000,5,1,4,0,5,1,3,2,0,250.0,train,3,H+
592.292070389,4,1000,1,1,4,0,5,1,3,2,0,250.0,train,4,H+
847.759962082,2,1000,4,1,4,0,5,1,3,2,0,250.0,train,2,H+
767.836093903,0,1000,0,1,4,0,5,1,3,2,0,250.0,train,0,H+
543.809175491,5,1000,3,1,4,0,5,1,3,2,0,250.0,train,5,H+
943.847179413,1,1000,2,1,4,0,5,1,3,2,0,250.0,train,1,H+
639.278173447,5,1000,3,1,4,0,5,1,3,2,0,250.0,train,5,H+
767.813920975,2,1000,4,1,4,0,5,1,3,2,0,250.0,train,2,H+
767.89689064,2,1000,4,1,4,0,5,1,3,2,0,250.0,train,2,H+
719.920873642,4,1000,1,1,4,0,5,1,3,2,0,250.0,train,4,H+
799.768924713,5,1000,3,1,4,0,5,1,3,2,0,250.0,train,5,H+
576.090097427,5,1000,3,1,4,0,5,1,3,2,0,250.0,train,5,H+
639.665126801,2,1000,4,1,4,0,5,1,3,2,0,250.0,train,2,H+
687.796831131,2,1000,4,1,4,0,5,1,3,2,0,250.0,train,2,H+
751.863002777,1,1000,2,1,4,0,5,1,3,2,0,250.0,train,1,H+
671.374082565,5,1000,3,1,4,0,5,1,3,2,0,250.0,train,5,H+
703.958034515,5,1000,3,1,4,0,5,1,3,2,0,250.0,train,5,H+
591.946125031,2,1000,4,1,4,0,5,1,3,2,0,250.0,train,2,H+
623.300075531,0,1000,0,1,4,0,5,1,3,2,0,250.0,train,0,H+
560.401916504,5,1000,3,1,4,0,5,1,3,2,0,250.0,train,5,H+
783.83398056,0,1000,0,1,4,0,5,1,3,2,0,250.0,train,0,H+
975.560188293,1,1000,2,1,4,0,5,1,3,2,0,250.0,train,1,H+
527.647018433,5,1000,3,1,4,0,5,1,3,2,0,250.0,train,5,H+
767.623901367,3,1000,5,1,4,0,5,1,3,2,0,250.0,train,3,H+
639.979839325,5,1000,3,1,4,0,5,1,3,2,0,250.0,train,5,H+
831.779956818,3,1000,5,1,4,0,5,1,3,2,0,250.0,train,3,H+
384.466171265,2,1000,4,1,4,0,5,1,3,2,0,250.0,train,2,H+
704.205036163,0,1000,0,1,4,0,5,1,3,2,0,250.0,train,0,H+
480.269908905,1,1000,2,1,4,0,5,1,3,2,0,250.0,train,1,H+
592.830181122,0,1000,0,1,4,0,5,1,3,2,0,250.0,train,0,H+
592.752933502,5,1000,3,0,4,0,5,1,3,2,0,250.0,train,4,H+
928.271055222,3,1000,5,1,4,0,5,1,3,2,0,250.0,train,3,H+
544.460058212,0,1000,0,1,4,0,5,1,3,2,0,250.0,train,0,H+
527.883052826,5,1000,3,1,4,0,5,1,3,2,0,250.0,train,5,H+
624.472141266,0,1000,0,1,4,0,5,1,3,2,0,250.0,train,0,H+
559.807062149,2,1000,4,1,4,0,5,1,3,2,0,250.0,train,2,H+
768.113851547,3,1000,5,0,4,0,5,1,3,2,0,250.0,train,0,H+
688.688993454,2,1000,4,1,4,0,5,1,3,2,0,250.0,train,2,H+
1423.94900322,3,1000,5,1,4,0,5,1,3,2,0,250.0,train,3,H+
671.913862228,5,1000,3,1,4,0,5,1,3,2,0,250.0,train,5,H+
639.882087708,5,1000,3,1,4,0,5,1,3,2,0,250.0,train,5,H+
607.892036438,5,1000,3,1,4,0,5,1,3,2,0,250.0,train,5,H+
687.931060791,0,1000,0,1,4,0,5,1,3,2,0,250.0,train,0,H+
655.819177628,5,1000,3,1,4,0,5,1,3,2,0,250.0,train,5,H+
736.315011978,1,1000,2,1,4,0,5,1,3,2,0,250.0,train,1,H+
576.43198967,2,1000,4,1,4,0,5,1,3,2,0,250.0,train,2,H+
799.965143204,3,1000,5,1,4,0,5,1,3,2,0,250.0,train,3,H+
527.87899971,0,1000,0,1,4,0,5,1,3,2,0,250.0,train,0,H+
1007.87878036,3,1000,5,1,4,0,5,1,3,2,0,250.0,train,3,H+
527.909040451,5,1000,3,1,4,0,5,1,3,2,0,250.0,train,5,H+
592.217922211,2,1000,4,1,4,0,5,1,3,2,0,250.0,train,2,H+
911.979913712,3,1000,5,1,4,0,5,1,3,2,0,250.0,train,3,H+
607.869148254,5,1000,3,1,4,0,5,1,3,2,0,250.0,train,5,H+
751.900911331,0,1000,0,1,4,0,5,1,3,2,0,250.0,train,0,H+
543.873071671,2,1000,4,1,4,0,5,1,3,2,0,250.0,train,2,H+
992.193937302,0,1000,0,1,4,0,5,1,3,2,0,250.0,train,0,H+
800.410985947,3,1000,5,1,4,0,5,1,3,2,0,250.0,train,3,H+
704.446077347,4,1000,1,0,4,0,5,1,3,2,0,250.0,train,1,H+
623.867988586,2,1000,4,1,4,0,5,1,3,2,0,250.0,train,2,H+
496.047973633,5,1000,3,1,4,0,5,1,3,2,0,250.0,train,5,H+
1199.41592216,3,1000,5,1,4,0,5,1,3,2,0,250.0,train,3,H+
736.414909363,5,1000,3,1,4,0,5,1,3,2,0,250.0,train,5,H+
416.411161423,2,1000,4,1,4,0,5,1,3,2,0,250.0,train,2,H+
592.252016068,5,1000,3,1,4,0,5,1,3,2,0,250.0,train,5,H+
656.069993973,3,1000,5,0,4,0,5,1,3,2,0,250.0,train,5,H+
415.719985962,3,1000,5,1,4,0,5,1,3,2,0,250.0,train,3,H+
415.848016739,3,1000,5,1,4,0,5,1,3,2,0,250.0,train,3,H+
527.903795242,5,1000,3,1,4,0,5,1,3,2,0,250.0,train,5,H+
687.921047211,3,1000,5,1,4,0,5,1,3,2,0,250.0,train,3,H+
479.885101318,5,1000,3,1,4,0,5,1,3,2,0,250.0,train,5,H+
591.924190521,5,1000,3,1,4,0,5,1,3,2,0,250.0,train,5,H+
415.953874588,3,1000,5,1,4,0,5,1,3,2,0,250.0,train,3,H+
687.856912613,4,1000,1,1,4,0,5,1,3,2,0,250.0,train,4,H+
447.871923447,1,1000,2,1,4,0,5,1,3,2,0,250.0,train,1,H+
720.201015472,3,1000,5,1,4,0,5,1,3,2,0,250.0,train,3,H+
752.239942551,3,1000,5,1,4,0,5,1,3,2,0,250.0,train,3,H+
591.833114624,2,1000,4,1,4,0,5,1,3,2,0,250.0,train,2,H+
624.493122101,4,1000,1,0,4,0,5,1,3,2,0,250.0,train,1,H+
624.336004257,3,1000,5,1,4,0,5,1,3,2,0,250.0,train,3,H+
944.306850433,0,1000,0,1,4,0,5,1,3,2,0,250.0,train,0,H+
559.607982635,2,1000,4,1,4,0,5,1,3,2,0,250.0,train,2,H+
687.827110291,3,1000,5,1,4,0,5,1,3,2,0,250.0,train,3,H+
592.178106308,0,1000,0,1,4,0,5,1,3,2,0,250.0,train,0,H+
560.28008461,2,1000,4,1,4,0,5,1,3,2,0,250.0,train,2,H+
463.274002075,2,1000,4,1,4,0,5,1,3,2,0,250.0,train,2,H+
400.313138962,2,1000,4,1,4,0,5,1,3,2,0,250.0,train,2,H+
576.255083084,5,1000,3,1,4,0,5,1,3,2,0,250.0,train,5,H+
719.820022583,4,1000,1,0,4,0,5,1,3,2,0,250.0,train,1,H+
623.701095581,2,1000,4,0,4,0,5,1,3,2,0,250.0,train,3,H+
368.259906769,2,1000,4,1,4,0,5,1,3,2,0,250.0,train,2,H+
655.7970047,4,1000,1,1,4,0,5,1,3,2,0,250.0,train,4,H+
736.704826355,0,1000,0,1,4,0,5,1,3,2,0,250.0,train,0,H+
799.780130386,5,1000,3,1,4,0,5,1,3,2,0,250.0,train,5,H+
2559.59010124,5,1000,3,1,4,0,5,1,3,2,0,250.0,train,5,H+
703.701019287,2,1000,4,1,4,0,5,1,3,2,0,250.0,train,2,H+
815.965175629,1,1000,2,1,4,0,5,1,3,2,0,250.0,train,1,H+
591.848134995,1,1000,2,1,4,0,5,1,3,2,0,250.0,train,1,H+
975.984096527,5,1000,3,1,4,0,5,1,3,2,0,250.0,train,5,H+
639.87994194,2,1000,4,1,4,0,5,1,3,2,0,250.0,train,2,H+
831.554889679,1,1000,2,1,4,0,5,1,3,2,0,250.0,train,1,H+
1488.68298531,5,1000,3,1,4,0,5,1,3,2,0,250.0,train,5,H+
384.074211121,5,1000,3,1,4,0,5,1,3,2,0,250.0,train,5,H+
815.830945969,4,1000,1,1,4,0,5,1,3,2,0,250.0,train,4,H+
431.962966919,4,1000,1,1,4,0,5,1,3,2,0,250.0,train,4,H+
623.957157135,3,1000,5,1,4,0,5,1,3,2,0,250.0,train,3,H+
911.859989166,0,1000,0,1,4,0,5,1,3,2,0,250.0,train,0,H+
655.941009521,0,1000,0,1,4,0,5,1,3,2,0,250.0,train,0,H+
704.080104828,1,1000,2,1,4,0,5,1,3,2,0,250.0,train,1,H+
527.903079987,1,1000,2,1,4,0,5,1,3,2,0,250.0,train,1,H+
719.681978226,5,1000,3,1,4,0,5,1,3,2,0,250.0,train,5,H+
880.90801239,4,1000,1,1,4,0,5,1,3,2,0,250.0,train,4,H+
1264.39094543,0,1000,0,1,4,0,5,1,3,2,0,250.0,train,0,H+
608.324050903,5,1000,3,1,4,0,5,1,3,2,0,250.0,train,5,H+
784.336090088,0,1000,0,0,4,0,5,1,3,2,0,250.0,train,5,H+
944.284915924,1,1000,2,1,4,0,5,1,3,2,0,250.0,train,1,H+
800.199985504,0,1000,0,1,4,0,5,1,3,2,0,250.0,train,0,H+
592.316150665,0,1000,0,1,4,0,5,1,3,2,0,250.0,train,0,H+
800.163984299,4,1000,1,1,4,0,5,1,3,2,0,250.0,train,4,H+
672.504901886,4,1000,1,1,4,0,5,1,3,2,0,250.0,train,4,H+
543.972969055,1,1000,2,1,4,0,5,1,3,2,0,250.0,train,1,H+
480.120897293,1,1000,2,1,4,0,5,1,3,2,0,250.0,train,1,H+
416.322946548,1,1000,2,1,4,0,5,1,3,2,0,250.0,train,1,H+
319.347858429,1,1000,2,1,4,0,5,1,3,2,0,250.0,train,1,H+
496.773004532,0,1000,0,1,4,0,5,1,3,2,0,250.0,train,0,H+
671.545028687,3,1000,5,1,4,0,5,1,3,2,0,250.0,train,3,H+
608.740091324,2,1000,4,1,4,0,5,1,3,2,0,250.0,train,2,H+
559.645175934,1,1000,2,1,4,0,5,1,3,2,0,250.0,train,1,H+
544.735908508,1,1000,2,1,4,0,5,1,3,2,0,250.0,train,1,H+
480.877876282,0,1000,0,1,4,0,5,1,3,2,0,250.0,train,0,H+
416.249036789,5,1000,3,1,4,0,5,1,3,2,0,250.0,train,5,H+
688.450098038,3,1000,5,1,4,0,5,1,3,2,0,250.0,train,3,H+
431.923866272,5,1000,3,1,4,0,5,1,3,2,0,250.0,train,5,H+
655.971050262,1,1000,2,1,4,0,5,1,3,2,0,250.0,train,1,H+
463.691949844,4,1000,1,1,4,0,5,1,3,2,0,250.0,train,4,H+
592.006921768,1,1000,2,1,4,0,5,1,3,2,0,250.0,train,1,H+
559.854984283,1,1000,2,1,4,0,5,1,3,2,0,250.0,train,1,H+
495.872974396,0,1000,0,1,4,0,5,1,3,2,0,250.0,train,0,H+
591.459989548,2,1000,4,1,4,0,5,1,3,2,0,250.0,train,2,H+
528.647184372,2,1000,4,1,4,0,5,1,3,2,0,250.0,train,2,H+
479.848861694,0,1000,0,1,4,0,5,1,3,2,0,250.0,train,0,H+
463.813066483,1,1000,2,1,4,0,5,1,3,2,0,250.0,train,1,H+
511.781930923,1,1000,2,1,4,0,5,1,3,2,0,250.0,train,1,H+
352.03909874,2,1000,4,0,4,0,5,1,3,2,0,250.0,train,1,H+
480.260133743,1,1000,2,1,4,0,5,1,3,2,0,250.0,train,1,H+
463.962078094,2,1000,4,1,4,0,5,1,3,2,0,250.0,train,2,H+
1455.8570385,5,1000,3,1,4,0,5,1,3,2,0,250.0,train,5,H+
544.672966003,0,1000,0,1,4,0,5,1,3,2,0,250.0,train,0,H+
767.864942551,1,1000,2,1,4,0,5,1,3,2,0,250.0,train,1,H+
1407.94992447,0,1000,0,1,4,0,5,1,3,2,0,250.0,train,0,H+
592.334032059,2,1000,4,1,4,0,5,1,3,2,0,250.0,train,2,H+
576.257228851,4,1000,1,1,4,0,5,1,3,2,0,250.0,train,4,H+
543.56098175,0,1000,0,1,4,0,5,1,3,2,0,250.0,train,0,H+
800.653934479,5,1000,3,1,4,0,5,1,3,2,0,250.0,train,5,H+
800.814151764,3,1000,5,1,4,0,5,1,3,2,0,250.0,train,3,H+
576.756000519,4,1000,1,1,4,0,5,1,3,2,0,250.0,train,4,H+
656.828165054,4,1000,1,1,4,0,5,1,3,2,0,250.0,train,4,H+
751.918077469,0,1000,0,1,4,0,5,1,3,2,0,250.0,train,0,H+
896.366119385,2,1000,4,1,4,0,5,1,3,2,0,250.0,train,2,H+
736.40704155,1,1000,2,1,4,0,5,1,3,2,0,250.0,train,1,H+
832.316875458,1,1000,2,1,4,0,5,1,3,2,0,250.0,train,1,H+
927.91891098,2,1000,4,1,4,0,5,1,3,2,0,250.0,train,2,H+
768.158197403,3,1000,5,1,4,0,5,1,3,2,0,250.0,train,3,H+
608.285903931,3,1000,5,1,4,0,5,1,3,2,0,250.0,train,3,H+
560.339927673,5,1000,3,1,4,0,5,1,3,2,0,250.0,train,5,H+
319.965839386,5,1000,3,1,4,0,5,1,3,2,0,250.0,train,5,H+
560.727119446,0,1000,0,0,4,0,5,1,3,2,0,250.0,train,3,H+
607.841014862,4,1000,1,1,4,0,5,1,3,2,0,250.0,train,4,H+
704.311847687,1,1000,2,1,4,0,5,1,3,2,0,250.0,train,1,H+
432.782888412,1,1000,2,1,4,0,5,1,3,2,0,250.0,train,1,H+
656.689167023,0,1000,0,0,4,0,5,1,3,2,0,250.0,train,3,H+
1008.78095627,3,1000,5,1,4,0,5,1,3,2,0,250.0,train,3,H+
560.768127441,4,1000,1,1,4,0,5,1,3,2,0,250.0,train,4,H+
896.780014038,3,1000,5,0,4,0,5,1,3,2,0,250.0,train,5,H+
608.149051666,5,1000,3,1,4,0,5,1,3,2,0,250.0,train,5,H+
479.950904846,4,1000,1,1,4,0,5,1,3,2,0,250.0,train,4,H+
1631.9129467,1,1000,2,1,4,0,5,1,3,2,0,250.0,train,1,H+
527.601957321,1,1000,2,1,4,0,5,1,3,2,0,250.0,train,1,H+
623.904943466,2,1000,4,1,4,0,5,1,3,2,0,250.0,train,2,H+
495.815992355,4,1000,1,1,4,0,5,1,3,2,0,250.0,train,4,H+
496.421098709,0,1000,0,1,4,0,5,1,3,2,0,250.0,train,0,H+
639.627933502,1,1000,2,1,4,0,5,1,3,2,0,250.0,train,1,H+
735.690116882,0,1000,0,0,4,0,5,1,3,2,0,250.0,train,3,H+
559.764146805,2,1000,4,1,4,0,5,1,3,2,0,250.0,train,2,H+
527.915000916,5,1000,3,1,4,0,5,1,3,2,0,250.0,train,5,H+
559.926986694,2,1000,4,0,4,0,5,1,3,2,0,250.0,train,1,H+
639.732122421,4,1000,1,1,4,0,5,1,3,2,0,250.0,train,4,H+
1039.79706764,3,1000,5,1,4,0,5,1,3,2,0,250.0,test,3,H+
639.852046967,3,1000,5,1,4,0,5,1,3,2,0,250.0,test,3,H+
1152.36496925,0,1000,0,1,4,0,5,1,3,2,0,250.0,test,0,H+
592.288017273,4,1000,1,1,4,0,5,1,3,2,0,250.0,test,4,H+
688.271999359,1,1000,2,1,4,0,5,1,3,2,0,250.0,test,1,H+
591.949939728,1,1000,2,1,4,0,5,1,3,2,0,250.0,test,1,H+
575.682878494,4,1000,1,1,4,0,5,1,3,2,0,250.0,test,4,H+
591.953039169,1,1000,2,1,4,0,5,1,3,2,0,250.0,test,1,H+
784.269094467,2,1000,4,1,4,0,5,1,3,2,0,250.0,test,2,H+
784.117937088,3,1000,5,1,4,0,5,1,3,2,0,250.0,test,3,H+
624.157905579,2,1000,4,1,4,0,5,1,3,2,0,250.0,test,2,H+
543.961048126,4,1000,1,1,4,0,5,1,3,2,0,250.0,test,4,H+
608.034133911,1,1000,2,1,4,0,5,1,3,2,0,250.0,test,1,H+
511.814832687,2,1000,4,1,4,0,5,1,3,2,0,250.0,test,2,H+
655.938863754,5,1000,3,1,4,0,5,1,3,2,0,250.0,test,5,H+
608.10303688,1,1000,2,1,4,0,5,1,3,2,0,250.0,test,1,H+
720.006942749,1,1000,2,1,4,0,5,1,3,2,0,250.0,test,1,H+
480.83281517,1,1000,2,1,4,0,5,1,3,2,0,250.0,test,1,H+
816.306114197,0,1000,0,1,4,0,5,1,3,2,0,250.0,test,0,H+
1232.01298714,3,1000,5,1,4,0,5,1,3,2,0,250.0,test,3,H+
560.374975204,1,1000,2,1,4,0,5,1,3,2,0,250.0,test,1,H+
736.101150513,5,1000,3,1,4,0,5,1,3,2,0,250.0,test,5,H+
559.895992279,4,1000,1,1,4,0,5,1,3,2,0,250.0,test,4,H+
752.035856247,3,1000,5,1,4,0,5,1,3,2,0,250.0,test,3,H+
688.273906708,3,1000,5,1,4,0,5,1,3,2,0,250.0,test,3,H+
623.722076416,4,1000,1,1,4,0,5,1,3,2,0,250.0,test,4,H+
576.388835907,1,1000,2,1,4,0,5,1,3,2,0,250.0,test,1,H+
688.345909119,5,1000,3,1,4,0,5,1,3,2,0,250.0,test,5,H+
655.728816986,4,1000,1,1,4,0,5,1,3,2,0,250.0,test,4,H+
512.281894684,4,1000,1,1,4,0,5,1,3,2,0,250.0,test,4,H+
415.892124176,4,1000,1,1,4,0,5,1,3,2,0,250.0,test,4,H+
655.588150024,2,1000,4,1,4,0,5,1,3,2,0,250.0,test,2,H+
735.934019089,5,1000,3,1,4,0,5,1,3,2,0,250.0,test,5,H+
671.947002411,0,1000,0,1,4,0,5,1,3,2,0,250.0,test,0,H+
591.653108597,2,1000,4,1,4,0,5,1,3,2,0,250.0,test,2,H+
912.380933762,3,1000,5,1,4,0,5,1,3,2,0,250.0,test,3,H+
544.784784317,4,1000,1,1,4,0,5,1,3,2,0,250.0,test,4,H+
464.809894562,2,1000,4,1,4,0,5,1,3,2,0,250.0,test,2,H+
879.909992218,3,1000,5,1,4,0,5,1,3,2,0,250.0,test,3,H+
592.15092659,2,1000,4,1,4,0,5,1,3,2,0,250.0,test,2,H+
688.831090927,5,1000,3,1,4,0,5,1,3,2,0,250.0,test,5,H+
688.292980194,4,1000,1,1,4,0,5,1,3,2,0,250.0,test,4,H+
448.732852936,1,1000,2,1,4,0,5,1,3,2,0,250.0,test,1,H+
976.293087006,0,1000,0,1,4,0,5,1,3,2,0,250.0,test,0,H+
751.809120178,3,1000,5,1,4,0,5,1,3,2,0,250.0,test,3,H+
608.012199402,1,1000,2,1,4,0,5,1,3,2,0,250.0,test,1,H+
703.959941864,1,1000,2,1,4,0,5,1,3,2,0,250.0,test,1,H+
640.033006668,4,1000,1,1,4,0,5,1,3,2,0,250.0,test,4,H+
496.506929398,4,1000,1,1,4,0,5,1,3,2,0,250.0,test,4,H+
911.969184875,0,1000,0,1,4,0,5,1,3,2,0,250.0,test,0,H+
479.95018959,4,1000,1,1,4,0,5,1,3,2,0,250.0,test,4,H+
672.780990601,3,1000,5,1,4,0,5,1,3,2,0,250.0,test,3,H+
543.907165527,5,1000,3,1,4,0,5,1,3,2,0,250.0,test,5,H+
560.024023056,1,1000,2,1,4,0,5,1,3,2,0,250.0,test,1,H+
783.968925476,1,1000,2,1,4,0,5,1,3,2,0,250.0,test,1,H+
656.455039978,3,1000,5,1,4,0,5,1,3,2,0,250.0,test,3,H+
496.243953705,4,1000,1,1,4,0,5,1,3,2,0,250.0,test,4,H+
624.809026718,1,1000,2,1,4,0,5,1,3,2,0,250.0,test,1,H+
640.775918961,5,1000,3,1,4,0,5,1,3,2,0,250.0,test,5,H+
768.833875656,0,1000,0,1,4,0,5,1,3,2,0,250.0,test,0,H+
896.799087524,0,1000,0,1,4,0,5,1,3,2,0,250.0,test,0,H+
896.039962769,3,1000,5,1,4,0,5,1,3,2,0,250.0,test,3,H+
1248.2278347,4,1000,1,1,4,0,5,1,3,2,0,250.0,test,4,H+
1072.38483429,0,1000,0,1,4,0,5,1,3,2,0,250.0,test,0,H+
640.461921692,5,1000,3,1,4,0,5,1,3,2,0,250.0,test,5,H+
816.210031509,5,1000,3,1,4,0,5,1,3,2,0,250.0,test,5,H+
768.491983414,1,1000,2,1,4,0,5,1,3,2,0,250.0,test,1,H+
896.319150925,3,1000,5,1,4,0,5,1,3,2,0,250.0,test,3,H+
528.456926346,3,1000,5,1,4,0,5,1,3,2,0,250.0,test,3,H+
336.294174194,4,1000,1,1,4,0,5,1,3,2,0,250.0,test,4,H+
640.362977982,3,1000,5,1,4,0,5,1,3,2,0,250.0,test,3,H+
608.216047287,5,1000,3,1,4,0,5,1,3,2,0,250.0,test,5,H+
415.975093842,2,1000,4,1,4,0,5,1,3,2,0,250.0,test,2,H+
176.072835922,2,1000,4,0,4,0,5,1,3,2,0,250.0,test,4,H+
752.220153809,3,1000,5,1,4,0,5,1,3,2,0,250.0,test,3,H+
719.860076904,1,1000,2,1,4,0,5,1,3,2,0,250.0,test,1,H+
496.30522728,4,1000,1,1,4,0,5,1,3,2,0,250.0,test,4,H+
576.774120331,2,1000,4,1,4,0,5,1,3,2,0,250.0,test,2,H+
448.719024658,4,1000,1,1,4,0,5,1,3,2,0,250.0,test,4,H+
768.135070801,0,1000,0,1,4,0,5,1,3,2,0,250.0,test,0,H+
479.791879654,4,1000,1,1,4,0,5,1,3,2,0,250.0,test,4,H+
592.776060104,4,1000,1,1,4,0,5,1,3,2,0,250.0,test,4,H+
767.663002014,2,1000,4,1,4,0,5,1,3,2,0,250.0,test,2,H+
544.77596283,2,1000,4,1,4,0,5,1,3,2,0,250.0,test,2,H+
495.617866516,1,1000,2,1,4,0,5,1,3,2,0,250.0,test,1,H+
912.211894989,0,1000,0,1,4,0,5,1,3,2,0,250.0,test,0,H+
704.169988632,0,1000,0,1,4,0,5,1,3,2,0,250.0,test,0,H+
816.203117371,3,1000,5,1,4,0,5,1,3,2,0,250.0,test,3,H+
640.848875046,4,1000,1,1,4,0,5,1,3,2,0,250.0,test,4,H+
720.798015594,0,1000,0,1,4,0,5,1,3,2,0,250.0,test,0,H+
1201.70998573,0,1000,0,1,4,0,5,1,3,2,0,250.0,test,0,H+
672.77097702,3,1000,5,1,4,0,5,1,3,2,0,250.0,test,3,H+
800.151109695,5,1000,3,1,4,0,5,1,3,2,0,250.0,test,5,H+
815.618991852,5,1000,3,1,4,0,5,1,3,2,0,250.0,test,5,H+
848.315000534,2,1000,4,1,4,0,5,1,3,2,0,250.0,test,2,H+
912.822008133,1,1000,2,1,4,0,5,1,3,2,0,250.0,test,1,H+
880.844116211,3,1000,5,1,4,0,5,1,3,2,0,250.0,test,3,H+
735.929965973,2,1000,4,1,4,0,5,1,3,2,0,250.0,test,2,H+
671.777963638,1,1000,2,1,4,0,5,1,3,2,0,250.0,test,1,H+
768.779993057,3,1000,5,1,4,0,5,1,3,2,0,250.0,test,3,H+
576.786994934,1,1000,2,1,4,0,5,1,3,2,0,250.0,test,1,H+
624.011039734,4,1000,1,1,4,0,5,1,3,2,0,250.0,test,4,H+
576.006889343,1,1000,2,1,4,0,5,1,3,2,0,250.0,test,1,H+
847.985029221,3,1000,5,1,4,0,5,1,3,2,0,250.0,test,3,H+
752.523899078,4,1000,1,1,4,0,5,1,3,2,0,250.0,test,4,H+
528.386116028,1,1000,2,1,4,0,5,1,3,2,0,250.0,test,1,H+
528.043031693,4,1000,1,1,4,0,5,1,3,2,0,250.0,test,4,H+
816.757917404,5,1000,3,1,4,0,5,1,3,2,0,250.0,test,5,H+
672.794103622,0,1000,0,1,4,0,5,1,3,2,0,250.0,test,0,H+
656.77690506,2,1000,4,1,4,0,5,1,3,2,0,250.0,test,2,H+
816.666126251,3,1000,5,1,4,0,5,1,3,2,0,250.0,test,3,H+
432.090997696,0,1000,0,0,4,0,5,1,3,2,0,250.0,test,4,H+
592.043876648,2,1000,4,0,4,0,5,1,3,2,0,250.0,test,1,H+
767.942905426,4,1000,1,1,4,0,5,1,3,2,0,250.0,test,4,H+
1743.98803711,1,1000,2,1,4,0,5,1,3,2,0,250.0,test,1,H+
464.169979095,2,1000,4,1,4,0,5,1,3,2,0,250.0,test,2,H+
1168.227911,5,1000,3,1,4,0,5,1,3,2,0,250.0,test,5,H+
671.991825104,0,1000,0,1,4,0,5,1,3,2,0,250.0,test,0,H+
815.711975098,3,1000,5,1,4,0,5,1,3,2,0,250.0,test,3,H+
576.388120651,3,1000,5,0,4,0,5,1,3,2,0,250.0,test,2,H+
607.887029648,0,1000,0,1,4,0,5,1,3,2,0,250.0,test,0,H+
640.81120491,2,1000,4,1,4,0,5,1,3,2,0,250.0,test,2,H+
560.099840164,5,1000,3,1,4,0,5,1,3,2,0,250.0,test,5,H+
383.916854858,4,1000,1,1,4,0,5,1,3,2,0,250.0,test,4,H+
560.245990753,3,1000,5,1,4,0,5,1,3,2,0,250.0,test,3,H+
703.826904297,0,1000,0,1,4,0,5,1,3,2,0,250.0,test,0,H+
495.752096176,4,1000,1,1,4,0,5,1,3,2,0,250.0,test,4,H+
671.787023544,1,1000,2,0,4,0,5,1,3,2,0,250.0,test,2,H+
591.718912125,3,1000,5,0,4,0,5,1,3,2,0,250.0,test,2,H+
511.760950089,4,1000,1,1,4,0,5,1,3,2,0,250.0,test,4,H+
720.188856125,3,1000,5,1,4,0,5,1,3,2,0,250.0,test,3,H+
479.933023453,4,1000,1,1,4,0,5,1,3,2,0,250.0,test,4,H+
687.242984772,3,1000,5,1,4,0,5,1,3,2,0,250.0,test,3,H+
495.93091011,4,1000,1,1,4,0,5,1,3,2,0,250.0,test,4,H+
639.847993851,2,1000,4,1,4,0,5,1,3,2,0,250.0,test,2,H+
591.947078705,5,1000,3,1,4,0,5,1,3,2,0,250.0,test,5,H+
703.611850739,3,1000,5,1,4,0,5,1,3,2,0,250.0,test,3,H+
656.201839447,2,1000,4,1,4,0,5,1,3,2,0,250.0,test,2,H+
479.911088943,4,1000,1,1,4,0,5,1,3,2,0,250.0,test,4,H+
943.88794899,1,1000,2,1,4,0,5,1,3,2,0,250.0,test,1,H+
544.305801392,4,1000,1,1,4,0,5,1,3,2,0,250.0,test,4,H+
1088.04702759,0,1000,0,1,4,0,5,1,3,2,0,250.0,test,0,H+
463.949918747,0,1000,0,1,4,0,5,1,3,2,0,250.0,test,0,H+
512.219905853,4,1000,1,1,4,0,5,1,3,2,0,250.0,test,4,H+
527.921915054,2,1000,4,1,4,0,5,1,3,2,0,250.0,test,2,H+
432.228088379,4,1000,1,1,4,0,5,1,3,2,0,250.0,test,4,H+
447.745800018,5,1000,3,1,4,0,5,1,3,2,0,250.0,test,5,H+
544.841051102,5,1000,3,1,4,0,5,1,3,2,0,250.0,test,5,H+
511.963844299,5,1000,3,1,4,0,5,1,3,2,0,250.0,test,5,H+
656.327962875,3,1000,5,1,4,0,5,1,3,2,0,250.0,test,3,H+
559.540987015,3,1000,5,1,4,0,5,1,3,2,0,250.0,test,3,H+
639.775037766,1,1000,2,1,4,0,5,1,3,2,0,250.0,test,1,H+
399.963855743,1,1000,2,1,4,0,5,1,3,2,0,250.0,test,1,H+
0.0579357147217,4,1000,1,1,4,0,5,1,3,2,0,250.0,test,4,H+
543.992042542,1,1000,2,1,4,0,5,1,3,2,0,250.0,test,1,H+
816.116094589,3,1000,5,1,4,0,5,1,3,2,0,250.0,test,3,H+
783.979892731,4,1000,1,1,4,0,5,1,3,2,0,250.0,test,4,H+
623.675823212,3,1000,5,1,4,0,5,1,3,2,0,250.0,test,3,H+
816.364049911,0,1000,0,0,4,0,5,1,3,2,0,250.0,test,5,H+
640.137910843,3,1000,5,1,4,0,5,1,3,2,0,250.0,test,3,H+
879.733800888,5,1000,3,1,4,0,5,1,3,2,0,250.0,test,5,H+
720.833063126,0,1000,0,1,4,0,5,1,3,2,0,250.0,test,0,H+
640.730857849,3,1000,5,1,4,0,5,1,3,2,0,250.0,test,3,H+
656.841993332,1,1000,2,1,4,0,5,1,3,2,0,250.0,test,1,H+
575.857877731,2,1000,4,1,4,0,5,1,3,2,0,250.0,test,2,H+
1167.65213013,5,1000,3,1,4,0,5,1,3,2,0,250.0,test,5,H+
575.528860092,3,1000,5,0,4,0,5,1,3,2,0,250.0,test,2,H+
656.714916229,0,1000,0,1,4,0,5,1,3,2,0,250.0,test,0,H+
624.027967453,2,1000,4,1,4,0,5,1,3,2,0,250.0,test,2,H+
608.260154724,1,1000,2,1,4,0,5,1,3,2,0,250.0,test,1,H+
640.384912491,3,1000,5,1,4,0,5,1,3,2,0,250.0,test,3,H+
559.836864471,0,1000,0,1,4,0,5,1,3,2,0,250.0,test,0,H+
560.646057129,0,1000,0,1,4,0,5,1,3,2,0,250.0,test,0,H+
431.403160095,0,1000,0,1,4,0,5,1,3,2,0,250.0,test,0,H+
543.7271595,4,1000,1,1,4,0,5,1,3,2,0,250.0,test,4,H+
496.115922928,2,1000,4,1,4,0,5,1,3,2,0,250.0,test,2,H+
464.149951935,4,1000,1,1,4,0,5,1,3,2,0,250.0,test,4,H+
608.150005341,2,1000,4,1,4,0,5,1,3,2,0,250.0,test,2,H+
543.928146362,0,1000,0,1,4,0,5,1,3,2,0,250.0,test,0,H+
432.219982147,4,1000,1,1,4,0,5,1,3,2,0,250.0,test,4,H+
368.382930756,4,1000,1,1,4,0,5,1,3,2,0,250.0,test,4,H+
543.81108284,5,1000,3,1,4,0,5,1,3,2,0,250.0,test,5,H+
415.981054306,4,1000,1,1,4,0,5,1,3,2,0,250.0,test,4,H+
816.26701355,2,1000,4,1,4,0,5,1,3,2,0,250.0,test,2,H+
464.897871017,4,1000,1,1,4,0,5,1,3,2,0,250.0,test,4,H+
432.225942612,2,1000,4,0,4,0,5,1,3,2,0,250.0,test,4,H+
623.75497818,0,1000,0,1,4,0,5,1,3,2,0,250.0,test,0,H+
671.765089035,1,1000,2,1,4,0,5,1,3,2,0,250.0,test,1,H+
511.988162994,1,1000,2,1,4,0,5,1,3,2,0,250.0,test,1,H+
511.718988419,4,1000,1,1,4,0,5,1,3,2,0,250.0,test,4,H+
703.9539814,3,1000,5,1,4,0,5,1,3,2,0,250.0,test,3,H+
1007.91716576,0,1000,0,1,4,0,5,1,3,2,0,250.0,test,0,H+
656.307935715,2,1000,4,1,4,0,5,1,3,2,0,250.0,test,2,H+
544.175863266,5,1000,3,1,4,0,5,1,3,2,0,250.0,test,5,H+
768.295049667,5,1000,3,1,4,0,5,1,3,2,0,250.0,test,5,H+
960.155010223,3,1000,5,0,4,0,5,1,3,2,0,250.0,test,4,H+
1024.75690842,5,1000,3,1,4,0,5,1,3,2,0,250.0,test,5,H+
672.245025635,5,1000,3,1,4,0,5,1,3,2,0,250.0,test,5,H+
752.020835876,2,1000,4,1,4,0,5,1,3,2,0,250.0,test,2,H+
720.431089401,1,1000,2,1,4,0,5,1,3,2,0,250.0,test,1,H+
735.724925995,5,1000,3,1,4,0,5,1,3,2,0,250.0,test,5,H+
1008.16893578,2,1000,4,1,4,0,5,1,3,2,0,250.0,test,2,H+
656.122922897,1,1000,2,1,4,0,5,1,3,2,0,250.0,test,1,H+
527.687072754,2,1000,4,1,4,0,5,1,3,2,0,250.0,test,2,H+
528.041124344,4,1000,1,1,4,0,5,1,3,2,0,250.0,test,4,H+
463.976860046,5,1000,3,1,4,0,5,1,3,2,0,250.0,test,5,H+
559.332132339,4,1000,1,1,4,0,5,1,3,2,0,250.0,test,4,H+
463.825941086,4,1000,1,1,4,0,5,1,3,2,0,250.0,test,4,H+
640.05112648,1,1000,2,1,4,0,5,1,3,2,0,250.0,test,1,H+
719.995975494,0,1000,0,1,4,0,5,1,3,2,0,250.0,test,0,H+
496.062994003,0,1000,0,1,4,0,5,1,3,2,0,250.0,test,0,H+
464.029073715,1,1000,2,0,4,0,5,1,3,2,0,250.0,test,4,H+
624.241113663,5,1000,3,1,4,0,5,1,3,2,0,250.0,test,5,H+
400.322914124,4,1000,1,1,4,0,5,1,3,2,0,250.0,test,4,H+
415.877103806,4,1000,1,1,4,0,5,1,3,2,0,250.0,test,4,H+
544.404983521,1,1000,2,1,4,0,5,1,3,2,0,250.0,test,1,H+
608.252048492,2,1000,4,1,4,0,5,1,3,2,0,250.0,test,2,H+
448.394060135,1,1000,2,1,4,0,5,1,3,2,0,250.0,test,1,H+
464.354991913,4,1000,1,1,4,0,5,1,3,2,0,250.0,test,4,H+
624.722003937,0,1000,0,1,4,0,5,1,3,2,0,250.0,test,0,H+
431.748867035,3,1000,5,1,4,0,5,1,3,2,0,250.0,test,3,H+
383.903026581,3,1000,5,1,4,0,5,1,3,2,0,250.0,test,3,H+
544.323205948,0,1000,0,1,4,0,5,1,3,2,0,250.0,test,0,H+
592.168807983,3,1000,5,0,4,0,5,1,3,2,0,250.0,test,2,H+
640.803813934,1,1000,2,1,4,0,5,1,3,2,0,250.0,test,1,H+
1184.7910881,4,1000,1,1,4,0,5,1,3,2,0,250.0,test,4,H+
689.21995163,3,1000,5,1,4,0,5,1,3,2,0,250.0,test,3,H+
624.816894531,1,1000,2,1,4,0,5,1,3,2,0,250.0,test,1,H+
912.870883942,2,1000,4,1,4,0,5,1,3,2,0,250.0,test,2,H+
752.140045166,5,1000,3,1,4,0,5,1,3,2,0,250.0,test,5,H+
608.2239151,3,1000,5,1,4,0,5,1,3,2,0,250.0,test,3,H+
608.785867691,5,1000,3,1,4,0,5,1,3,2,0,250.0,test,5,H+
752.5370121,0,1000,0,1,4,0,5,1,3,2,0,250.0,test,0,H+
576.792001724,3,1000,5,1,4,0,5,1,3,2,0,250.0,test,3,H+
576.675891876,5,1000,3,1,4,0,5,1,3,2,0,250.0,test,5,H+
944.752931595,5,1000,3,1,4,0,5,1,3,2,0,250.0,test,5,H+
592.718839645,5,1000,3,1,4,0,5,1,3,2,0,250.0,test,5,H+
1072.71003723,0,1000,0,1,4,0,5,1,3,2,0,250.0,test,0,H+
1439.97502327,1,1000,2,1,4,0,5,1,3,2,0,250.0,test,1,H+
560.695886612,4,1000,1,1,4,0,5,1,3,2,0,250.0,test,4,H+
1344.70510483,1,1000,2,1,4,0,5,1,3,2,0,250.0,test,1,H+
703.379154205,3,1000,5,1,4,0,5,1,3,2,0,250.0,test,3,H+
641.026973724,1,1000,2,1,4,0,5,1,3,2,0,250.0,test,1,H+
639.9269104,3,1000,5,1,4,0,5,1,3,2,0,250.0,test,3,H+
896.753072739,1,1000,2,0,4,0,5,1,3,2,0,250.0,test,4,H+
640.754938126,5,1000,3,1,4,0,5,1,3,2,0,250.0,test,5,H+
688.691139221,3,1000,5,1,4,0,5,1,3,2,0,250.0,test,3,H+
464.819908142,1,1000,2,1,4,0,5,1,3,2,0,250.0,test,1,H+
576.517105103,5,1000,3,1,4,0,5,1,3,2,0,250.0,test,5,H+
592.782974243,0,1000,0,1,4,0,5,1,3,2,0,250.0,test,0,H+
