RT,correct_response,ms-prestimblank,curstim,correct,SRmap_1,SRmap_0,SRmap_3,SRmap_2,SRmap_5,SRmap_4,ms-precue,ntrials,type,response,condition
5432.29389191,4,600,1,1,4,1,5,3,2,0,400,250.0,train,4,E-
759.431838989,5,600,3,1,4,1,5,3,2,0,400,250.0,train,5,E-
519.567012787,1,600,0,1,4,1,5,3,2,0,400,250.0,train,1,E-
217.211008072,2,600,5,1,4,1,5,3,2,0,400,250.0,train,2,E-
73.2669830322,2,600,5,1,4,1,5,3,2,0,400,250.0,train,2,E-
39.6590232849,2,600,5,1,4,1,5,3,2,0,400,250.0,train,2,E-
199.615955353,5,600,3,1,4,1,5,3,2,0,400,250.0,train,5,E-
41.140794754,5,600,3,1,4,1,5,3,2,0,400,250.0,train,5,E-
7.66801834106,3,600,2,1,4,1,5,3,2,0,400,250.0,train,3,E-
183.452129364,0,600,4,1,4,1,5,3,2,0,400,250.0,train,0,E-
103.667020798,3,600,2,1,4,1,5,3,2,0,400,250.0,train,3,E-
169.180870056,4,600,1,1,4,1,5,3,2,0,400,250.0,train,4,E-
87.7659320831,1,600,0,1,4,1,5,3,2,0,400,250.0,train,1,E-
153.05685997,3,600,2,1,4,1,5,3,2,0,400,250.0,train,3,E-
23.7851142883,4,600,1,1,4,1,5,3,2,0,400,250.0,train,4,E-
71.6261863708,0,600,4,1,4,1,5,3,2,0,400,250.0,train,0,E-
7.78102874756,0,600,4,1,4,1,5,3,2,0,400,250.0,train,0,E-
951.925992966,0,600,4,1,4,1,5,3,2,0,400,250.0,train,0,E-
695.722103119,1,600,0,1,4,1,5,3,2,0,400,250.0,train,1,E-
279.835939407,1,600,0,1,4,1,5,3,2,0,400,250.0,train,1,E-
391.807079315,1,600,0,1,4,1,5,3,2,0,400,250.0,train,1,E-
23.9260196686,3,600,2,0,4,1,5,3,2,0,400,250.0,train,2,E-
295.861005783,5,600,3,1,4,1,5,3,2,0,400,250.0,train,5,E-
71.946144104,0,600,4,1,4,1,5,3,2,0,400,250.0,train,0,E-
151.938915253,1,600,0,1,4,1,5,3,2,0,400,250.0,train,1,E-
201.200008392,3,600,2,1,4,1,5,3,2,0,400,250.0,train,3,E-
87.7599716187,4,600,1,1,4,1,5,3,2,0,400,250.0,train,4,E-
103.888988495,2,600,5,0,4,1,5,3,2,0,400,250.0,train,1,E-
119.747877121,0,600,4,1,4,1,5,3,2,0,400,250.0,train,0,E-
392.612218857,5,600,3,1,4,1,5,3,2,0,400,250.0,train,5,E-
249.133110046,2,600,5,0,4,1,5,3,2,0,400,250.0,train,3,E-
55.7541847229,1,600,0,1,4,1,5,3,2,0,400,250.0,train,1,E-
7.58790969849,0,600,4,1,4,1,5,3,2,0,400,250.0,train,0,E-
87.7778530121,2,600,5,1,4,1,5,3,2,0,400,250.0,train,2,E-
23.6208438873,0,600,4,1,4,1,5,3,2,0,400,250.0,train,0,E-
23.6461162567,0,600,4,1,4,1,5,3,2,0,400,250.0,train,0,E-
199.599027634,4,600,1,0,4,1,5,3,2,0,400,250.0,train,3,E-
103.685855865,3,600,2,1,4,1,5,3,2,0,400,250.0,train,3,E-
167.526960373,2,600,5,1,4,1,5,3,2,0,400,250.0,train,2,E-
41.8598651886,0,600,4,1,4,1,5,3,2,0,400,250.0,train,0,E-
151.597976685,5,600,3,1,4,1,5,3,2,0,400,250.0,train,5,E-
87.7890586853,4,600,1,1,4,1,5,3,2,0,400,250.0,train,4,E-
153.126955032,3,600,2,1,4,1,5,3,2,0,400,250.0,train,3,E-
40.2879714966,3,600,2,1,4,1,5,3,2,0,400,250.0,train,3,E-
649.286985397,3,600,2,1,4,1,5,3,2,0,400,250.0,train,3,E-
183.860063553,5,600,3,1,4,1,5,3,2,0,400,250.0,train,5,E-
55.7949542999,1,600,0,1,4,1,5,3,2,0,400,250.0,train,1,E-
56.4961433411,3,600,2,1,4,1,5,3,2,0,400,250.0,train,3,E-
71.7880725861,0,600,4,1,4,1,5,3,2,0,400,250.0,train,0,E-
631.597995758,0,600,4,1,4,1,5,3,2,0,400,250.0,train,0,E-
231.817007065,4,600,1,1,4,1,5,3,2,0,400,250.0,train,4,E-
105.077028275,0,600,4,1,4,1,5,3,2,0,400,250.0,train,0,E-
87.9077911377,3,600,2,1,4,1,5,3,2,0,400,250.0,train,3,E-
7.87115097046,0,600,4,1,4,1,5,3,2,0,400,250.0,train,0,E-
359.848022461,0,600,4,1,4,1,5,3,2,0,400,250.0,train,0,E-
295.855045319,3,600,2,1,4,1,5,3,2,0,400,250.0,train,3,E-
135.92004776,2,600,5,1,4,1,5,3,2,0,400,250.0,train,2,E-
134.426116943,3,600,2,1,4,1,5,3,2,0,400,250.0,train,3,E-
9.1769695282,2,600,5,1,4,1,5,3,2,0,400,250.0,train,2,E-
119.978904724,2,600,5,1,4,1,5,3,2,0,400,250.0,train,2,E-
23.9689350128,3,600,2,1,4,1,5,3,2,0,400,250.0,train,3,E-
71.9418525696,1,600,0,1,4,1,5,3,2,0,400,250.0,train,1,E-
56.0109615326,3,600,2,1,4,1,5,3,2,0,400,250.0,train,3,E-
167.956113815,5,600,3,1,4,1,5,3,2,0,400,250.0,train,5,E-
119.890213013,2,600,5,1,4,1,5,3,2,0,400,250.0,train,2,E-
151.679992676,3,600,2,1,4,1,5,3,2,0,400,250.0,train,3,E-
135.735988617,5,600,3,1,4,1,5,3,2,0,400,250.0,train,5,E-
102.36620903,1,600,0,1,4,1,5,3,2,0,400,250.0,train,1,E-
199.744939804,5,600,3,1,4,1,5,3,2,0,400,250.0,train,5,E-
134.238958359,5,600,3,1,4,1,5,3,2,0,400,250.0,train,5,E-
73.028087616,0,600,4,1,4,1,5,3,2,0,400,250.0,train,0,E-
57.1749210358,2,600,5,1,4,1,5,3,2,0,400,250.0,train,2,E-
57.1880340576,2,600,5,1,4,1,5,3,2,0,400,250.0,train,2,E-
135.594129562,5,600,3,1,4,1,5,3,2,0,400,250.0,train,5,E-
103.750944138,4,600,1,1,4,1,5,3,2,0,400,250.0,train,4,E-
55.7110309601,0,600,4,1,4,1,5,3,2,0,400,250.0,train,0,E-
23.736000061,2,600,5,1,4,1,5,3,2,0,400,250.0,train,2,E-
777.312040329,1,600,0,1,4,1,5,3,2,0,400,250.0,train,1,E-
392.373085022,1,600,0,1,4,1,5,3,2,0,400,250.0,train,1,E-
279.680967331,4,600,1,1,4,1,5,3,2,0,400,250.0,train,4,E-
89.4191265106,3,600,2,1,4,1,5,3,2,0,400,250.0,train,3,E-
23.6577987671,0,600,4,1,4,1,5,3,2,0,400,250.0,train,0,E-
135.757923126,3,600,2,1,4,1,5,3,2,0,400,250.0,train,3,E-
57.1658611298,4,600,1,1,4,1,5,3,2,0,400,250.0,train,4,E-
102.6699543,0,600,4,1,4,1,5,3,2,0,400,250.0,train,0,E-
374.583959579,0,600,4,1,4,1,5,3,2,0,400,250.0,train,0,E-
41.1560535431,2,600,5,1,4,1,5,3,2,0,400,250.0,train,2,E-
71.8841552734,4,600,1,1,4,1,5,3,2,0,400,250.0,train,4,E-
407.706022263,0,600,4,1,4,1,5,3,2,0,400,250.0,train,0,E-
135.849952698,5,600,3,1,4,1,5,3,2,0,400,250.0,train,5,E-
151.736021042,1,600,0,1,4,1,5,3,2,0,400,250.0,train,1,E-
7.7588558197,0,600,4,1,4,1,5,3,2,0,400,250.0,train,0,E-
103.811979294,2,600,5,1,4,1,5,3,2,0,400,250.0,train,2,E-
40.4691696167,5,600,3,1,4,1,5,3,2,0,400,250.0,train,5,E-
22.5989818573,5,600,3,1,4,1,5,3,2,0,400,250.0,train,5,E-
151.770114899,2,600,5,1,4,1,5,3,2,0,400,250.0,train,2,E-
27.5540351868,0,600,4,1,4,1,5,3,2,0,400,250.0,train,0,E-
119.687080383,4,600,1,1,4,1,5,3,2,0,400,250.0,train,4,E-
231.848955154,4,600,1,1,4,1,5,3,2,0,400,250.0,train,4,E-
744.014024734,1,600,0,1,4,1,5,3,2,0,400,250.0,train,1,E-
135.99395752,2,600,5,1,4,1,5,3,2,0,400,250.0,train,2,E-
135.969877243,4,600,1,1,4,1,5,3,2,0,400,250.0,train,4,E-
552.193880081,0,600,4,1,4,1,5,3,2,0,400,250.0,train,0,E-
312.036991119,3,600,2,1,4,1,5,3,2,0,400,250.0,train,3,E-
278.425216675,4,600,1,1,4,1,5,3,2,0,400,250.0,train,4,E-
327.895879745,3,600,2,1,4,1,5,3,2,0,400,250.0,train,3,E-
183.751106262,4,600,1,1,4,1,5,3,2,0,400,250.0,train,4,E-
441.197872162,3,600,2,1,4,1,5,3,2,0,400,250.0,train,3,E-
391.808986664,3,600,2,1,4,1,5,3,2,0,400,250.0,train,3,E-
231.915950775,3,600,2,1,4,1,5,3,2,0,400,250.0,train,3,E-
311.6710186,3,600,2,1,4,1,5,3,2,0,400,250.0,train,3,E-
311.455011368,3,600,2,1,4,1,5,3,2,0,400,250.0,train,3,E-
377.197027206,2,600,5,1,4,1,5,3,2,0,400,250.0,train,2,E-
183.417081833,2,600,5,1,4,1,5,3,2,0,400,250.0,train,2,E-
135.726928711,0,600,4,1,4,1,5,3,2,0,400,250.0,train,0,E-
215.668201447,4,600,1,0,4,1,5,3,2,0,400,250.0,train,5,E-
328.540802002,3,600,2,1,4,1,5,3,2,0,400,250.0,train,3,E-
39.5638942719,3,600,2,1,4,1,5,3,2,0,400,250.0,train,3,E-
136.312007904,4,600,1,1,4,1,5,3,2,0,400,250.0,train,4,E-
393.23091507,2,600,5,1,4,1,5,3,2,0,400,250.0,train,2,E-
311.769962311,1,600,0,1,4,1,5,3,2,0,400,250.0,train,1,E-
215.774059296,0,600,4,1,4,1,5,3,2,0,400,250.0,train,0,E-
7.75098800659,4,600,1,1,4,1,5,3,2,0,400,250.0,train,4,E-
119.714021683,3,600,2,1,4,1,5,3,2,0,400,250.0,train,3,E-
183.787107468,2,600,5,1,4,1,5,3,2,0,400,250.0,train,2,E-
711.721897125,2,600,5,1,4,1,5,3,2,0,400,250.0,train,2,E-
103.736162186,0,600,4,1,4,1,5,3,2,0,400,250.0,train,0,E-
119.841098785,3,600,2,1,4,1,5,3,2,0,400,250.0,train,3,E-
151.834964752,2,600,5,1,4,1,5,3,2,0,400,250.0,train,2,E-
199.83792305,4,600,1,1,4,1,5,3,2,0,400,250.0,train,4,E-
520.391941071,3,600,2,1,4,1,5,3,2,0,400,250.0,train,3,E-
199.910163879,4,600,1,1,4,1,5,3,2,0,400,250.0,train,4,E-
200.46210289,4,600,1,1,4,1,5,3,2,0,400,250.0,train,4,E-
327.883958817,0,600,4,1,4,1,5,3,2,0,400,250.0,train,0,E-
359.931945801,0,600,4,1,4,1,5,3,2,0,400,250.0,train,0,E-
167.863130569,4,600,1,1,4,1,5,3,2,0,400,250.0,train,4,E-
391.941070557,5,600,3,1,4,1,5,3,2,0,400,250.0,train,5,E-
311.937093735,2,600,5,1,4,1,5,3,2,0,400,250.0,train,2,E-
103.945970535,3,600,2,1,4,1,5,3,2,0,400,250.0,train,3,E-
8.21113586426,0,600,4,1,4,1,5,3,2,0,400,250.0,train,0,E-
71.9139575958,1,600,0,1,4,1,5,3,2,0,400,250.0,train,1,E-
215.990066528,1,600,0,1,4,1,5,3,2,0,400,250.0,train,1,E-
40.5468940735,0,600,4,1,4,1,5,3,2,0,400,250.0,train,0,E-
88.5260105133,2,600,5,1,4,1,5,3,2,0,400,250.0,train,2,E-
103.755950928,1,600,0,1,4,1,5,3,2,0,400,250.0,train,1,E-
249.325037003,4,600,1,1,4,1,5,3,2,0,400,250.0,train,4,E-
89.2770290375,3,600,2,1,4,1,5,3,2,0,400,250.0,train,3,E-
89.2479419708,3,600,2,1,4,1,5,3,2,0,400,250.0,train,3,E-
9.12404060364,0,600,4,1,4,1,5,3,2,0,400,250.0,train,0,E-
71.8321800232,0,600,4,1,4,1,5,3,2,0,400,250.0,train,0,E-
137.193918228,2,600,5,1,4,1,5,3,2,0,400,250.0,train,2,E-
695.586204529,2,600,5,1,4,1,5,3,2,0,400,250.0,train,2,E-
343.306064606,4,600,1,1,4,1,5,3,2,0,400,250.0,train,4,E-
71.69008255,1,600,0,1,4,1,5,3,2,0,400,250.0,train,1,E-
263.544082642,3,600,2,1,4,1,5,3,2,0,400,250.0,train,3,E-
120.473861694,2,600,5,1,4,1,5,3,2,0,400,250.0,train,2,E-
41.2938594818,1,600,0,1,4,1,5,3,2,0,400,250.0,train,1,E-
407.289981842,0,600,4,1,4,1,5,3,2,0,400,250.0,train,0,E-
247.72310257,5,600,3,1,4,1,5,3,2,0,400,250.0,train,5,E-
360.432863235,2,600,5,1,4,1,5,3,2,0,400,250.0,train,2,E-
150.618076324,1,600,0,1,4,1,5,3,2,0,400,250.0,train,1,E-
105.001926422,4,600,1,1,4,1,5,3,2,0,400,250.0,train,4,E-
183.704853058,3,600,2,1,4,1,5,3,2,0,400,250.0,train,3,E-
278.647899628,4,600,1,1,4,1,5,3,2,0,400,250.0,train,4,E-
231.746912003,5,600,3,1,4,1,5,3,2,0,400,250.0,train,5,E-
135.740995407,0,600,4,1,4,1,5,3,2,0,400,250.0,train,0,E-
215.78001976,3,600,2,1,4,1,5,3,2,0,400,250.0,train,3,E-
119.827985764,4,600,1,1,4,1,5,3,2,0,400,250.0,train,4,E-
311.688899994,3,600,2,1,4,1,5,3,2,0,400,250.0,train,3,E-
135.890007019,0,600,4,1,4,1,5,3,2,0,400,250.0,train,0,E-
200.408935547,4,600,1,1,4,1,5,3,2,0,400,250.0,train,4,E-
247.884988785,2,600,5,1,4,1,5,3,2,0,400,250.0,train,2,E-
87.8098011017,0,600,4,1,4,1,5,3,2,0,400,250.0,train,0,E-
214.592933655,1,600,0,1,4,1,5,3,2,0,400,250.0,train,1,E-
359.39002037,5,600,3,1,4,1,5,3,2,0,400,250.0,train,5,E-
55.9179782867,1,600,0,1,4,1,5,3,2,0,400,250.0,train,1,E-
137.141942978,1,600,0,1,4,1,5,3,2,0,400,250.0,train,1,E-
71.9640254974,4,600,1,1,4,1,5,3,2,0,400,250.0,train,4,E-
39.9739742279,4,600,1,1,4,1,5,3,2,0,400,250.0,train,4,E-
9.18292999268,0,600,4,1,4,1,5,3,2,0,400,250.0,train,0,E-
551.957130432,0,600,4,1,4,1,5,3,2,0,400,250.0,train,0,E-
312.026023865,3,600,2,1,4,1,5,3,2,0,400,250.0,train,3,E-
263.811826706,5,600,3,0,4,1,5,3,2,0,400,250.0,train,4,E-
265.226840973,2,600,5,1,4,1,5,3,2,0,400,250.0,train,2,E-
39.7751331329,1,600,0,1,4,1,5,3,2,0,400,250.0,train,1,E-
359.788894653,4,600,1,1,4,1,5,3,2,0,400,250.0,train,4,E-
216.615915298,4,600,1,1,4,1,5,3,2,0,400,250.0,train,4,E-
377.133131027,2,600,5,1,4,1,5,3,2,0,400,250.0,train,2,E-
264.229059219,3,600,2,1,4,1,5,3,2,0,400,250.0,train,3,E-
215.604066849,1,600,0,1,4,1,5,3,2,0,400,250.0,train,1,E-
279.68788147,5,600,3,1,4,1,5,3,2,0,400,250.0,train,5,E-
199.645996094,5,600,3,1,4,1,5,3,2,0,400,250.0,train,5,E-
1319.79393959,5,600,3,1,4,1,5,3,2,0,400,250.0,train,5,E-
887.697935104,4,600,1,1,4,1,5,3,2,0,400,250.0,train,4,E-
518.614053726,0,600,4,1,4,1,5,3,2,0,400,250.0,train,0,E-
215.613126755,3,600,2,1,4,1,5,3,2,0,400,250.0,train,3,E-
23.1690406799,3,600,2,1,4,1,5,3,2,0,400,250.0,train,3,E-
72.4680423737,0,600,4,1,4,1,5,3,2,0,400,250.0,train,0,E-
185.253143311,3,600,2,1,4,1,5,3,2,0,400,250.0,train,3,E-
55.6840896606,2,600,5,0,4,1,5,3,2,0,400,250.0,train,1,E-
359.720945358,5,600,3,1,4,1,5,3,2,0,400,250.0,train,5,E-
105.143070221,3,600,2,1,4,1,5,3,2,0,400,250.0,train,3,E-
232.482910156,3,600,2,1,4,1,5,3,2,0,400,250.0,train,3,E-
183.765888214,2,600,5,1,4,1,5,3,2,0,400,250.0,train,2,E-
359.690904617,1,600,0,1,4,1,5,3,2,0,400,250.0,train,1,E-
199.80096817,4,600,1,1,4,1,5,3,2,0,400,250.0,train,4,E-
167.840003967,3,600,2,1,4,1,5,3,2,0,400,250.0,train,3,E-
87.7411365509,4,600,1,1,4,1,5,3,2,0,400,250.0,train,4,E-
151.903867722,0,600,4,1,4,1,5,3,2,0,400,250.0,train,0,E-
183.906078339,2,600,5,1,4,1,5,3,2,0,400,250.0,train,2,E-
73.1060504913,4,600,1,1,4,1,5,3,2,0,400,250.0,train,4,E-
7.97605514526,0,600,4,1,4,1,5,3,2,0,400,250.0,train,0,E-
167.886018753,5,600,3,1,4,1,5,3,2,0,400,250.0,train,5,E-
151.932001114,2,600,5,1,4,1,5,3,2,0,400,250.0,train,2,E-
24.4650840759,0,600,4,1,4,1,5,3,2,0,400,250.0,train,0,E-
184.021949768,4,600,1,1,4,1,5,3,2,0,400,250.0,train,4,E-
87.9127979279,4,600,1,1,4,1,5,3,2,0,400,250.0,train,4,E-
264.006137848,2,600,5,1,4,1,5,3,2,0,400,250.0,train,2,E-
87.9111289978,1,600,0,1,4,1,5,3,2,0,400,250.0,train,1,E-
119.531154633,0,600,4,1,4,1,5,3,2,0,400,250.0,train,0,E-
57.2340488434,0,600,4,1,4,1,5,3,2,0,400,250.0,train,0,E-
167.734146118,1,600,0,1,4,1,5,3,2,0,400,250.0,train,1,E-
295.764923096,3,600,2,1,4,1,5,3,2,0,400,250.0,train,3,E-
265.212059021,3,600,2,1,4,1,5,3,2,0,400,250.0,train,3,E-
167.777061462,0,600,4,1,4,1,5,3,2,0,400,250.0,train,0,E-
153.09882164,2,600,5,1,4,1,5,3,2,0,400,250.0,train,2,E-
55.7110309601,0,600,4,1,4,1,5,3,2,0,400,250.0,train,0,E-
551.563978195,0,600,4,1,4,1,5,3,2,0,400,250.0,train,0,E-
231.705188751,4,600,1,1,4,1,5,3,2,0,400,250.0,train,4,E-
71.7170238495,4,600,1,1,4,1,5,3,2,0,400,250.0,train,4,E-
87.7511501312,4,600,1,1,4,1,5,3,2,0,400,250.0,train,4,E-
103.654146194,3,600,2,1,4,1,5,3,2,0,400,250.0,train,3,E-
231.093168259,3,600,2,1,4,1,5,3,2,0,400,250.0,train,3,E-
375.761985779,5,600,3,0,4,1,5,3,2,0,400,250.0,train,4,E-
250.004053116,1,600,0,1,4,1,5,3,2,0,400,250.0,train,1,E-
55.6669235229,1,600,0,1,4,1,5,3,2,0,400,250.0,train,1,E-
39.6480560303,1,600,0,1,4,1,5,3,2,0,400,250.0,train,1,E-
247.703075409,4,600,1,1,4,1,5,3,2,0,400,250.0,train,4,E-
87.6820087433,0,600,4,1,4,1,5,3,2,0,400,250.0,train,0,E-
1032.41300583,3,600,2,1,4,1,5,3,2,0,400,250.0,train,3,E-
183.734893799,2,600,5,1,4,1,5,3,2,0,400,250.0,train,2,E-
583.693027496,1,600,0,1,4,1,5,3,2,0,400,250.0,train,1,E-
87.7470970154,4,600,1,1,4,1,5,3,2,0,400,250.0,train,4,E-
103.753805161,5,600,3,1,4,1,5,3,2,0,400,250.0,train,5,E-
1271.84915543,3,600,2,1,4,1,5,3,2,0,400,250.0,train,3,E-
215.930938721,5,600,3,1,4,1,5,3,2,0,400,250.0,train,5,E-
54.7249317169,2,600,5,1,4,1,5,3,2,0,400,250.0,train,2,E-
55.8128356934,4,600,1,1,4,1,5,3,2,0,400,250.0,train,4,E-
55.8559894562,3,600,2,1,4,1,5,3,2,0,400,250.0,train,3,E-
87.9240036011,1,600,0,1,4,1,5,3,2,0,400,250.0,train,1,E-
1353.22713852,2,1000,2,1,0,1,5,2,4,3,0,250.0,test,2,E-
680.422067642,0,1000,1,1,0,1,5,2,4,3,0,250.0,test,0,E-
742.209196091,4,1000,5,1,0,1,5,2,4,3,0,250.0,test,4,E-
966.194868088,2,1000,2,1,0,1,5,2,4,3,0,250.0,test,2,E-
758.074998856,5,1000,3,1,0,1,5,2,4,3,0,250.0,test,5,E-
598.035097122,1,1000,0,1,0,1,5,2,4,3,0,250.0,test,1,E-
633.049964905,5,1000,3,1,0,1,5,2,4,3,0,250.0,test,5,E-
486.027002335,4,1000,5,1,0,1,5,2,4,3,0,250.0,test,4,E-
598.164796829,2,1000,2,1,0,1,5,2,4,3,0,250.0,test,2,E-
598.14620018,3,1000,4,1,0,1,5,2,4,3,0,250.0,test,3,E-
615.038871765,2,1000,2,1,0,1,5,2,4,3,0,250.0,test,2,E-
582.072973251,2,1000,2,1,0,1,5,2,4,3,0,250.0,test,2,E-
358.202934265,2,1000,2,1,0,1,5,2,4,3,0,250.0,test,2,E-
742.151021957,4,1000,5,1,0,1,5,2,4,3,0,250.0,test,4,E-
278.180122375,4,1000,5,1,0,1,5,2,4,3,0,250.0,test,4,E-
647.666931152,0,1000,1,1,0,1,5,2,4,3,0,250.0,test,0,E-
598.906993866,1,1000,0,1,0,1,5,2,4,3,0,250.0,test,1,E-
375.87594986,1,1000,0,1,0,1,5,2,4,3,0,250.0,test,1,E-
374.861955643,4,1000,5,0,0,1,5,2,4,3,0,250.0,test,1,E-
583.534955978,4,1000,5,1,0,1,5,2,4,3,0,250.0,test,4,E-
583.637237549,5,1000,3,1,0,1,5,2,4,3,0,250.0,test,5,E-
518.101930618,2,1000,2,1,0,1,5,2,4,3,0,250.0,test,2,E-
632.431030273,0,1000,1,1,0,1,5,2,4,3,0,250.0,test,0,E-
775.884866714,2,1000,2,1,0,1,5,2,4,3,0,250.0,test,2,E-
614.182949066,4,1000,5,1,0,1,5,2,4,3,0,250.0,test,4,E-
695.864915848,5,1000,3,1,0,1,5,2,4,3,0,250.0,test,5,E-
664.708137512,0,1000,1,1,0,1,5,2,4,3,0,250.0,test,0,E-
519.885063171,5,1000,3,1,0,1,5,2,4,3,0,250.0,test,5,E-
487.903118134,5,1000,3,1,0,1,5,2,4,3,0,250.0,test,5,E-
647.757053375,3,1000,4,1,0,1,5,2,4,3,0,250.0,test,3,E-
503.881931305,4,1000,5,1,0,1,5,2,4,3,0,250.0,test,4,E-
521.281957626,0,1000,1,1,0,1,5,2,4,3,0,250.0,test,0,E-
599.776029587,4,1000,5,0,0,1,5,2,4,3,0,250.0,test,5,E-
584.697008133,3,1000,4,1,0,1,5,2,4,3,0,250.0,test,3,E-
697.227954865,4,1000,5,1,0,1,5,2,4,3,0,250.0,test,4,E-
628.880023956,5,1000,3,1,0,1,5,2,4,3,0,250.0,test,5,E-
902.169942856,3,1000,4,1,0,1,5,2,4,3,0,250.0,test,3,E-
500.924110413,4,1000,5,1,0,1,5,2,4,3,0,250.0,test,4,E-
489.476919174,0,1000,1,1,0,1,5,2,4,3,0,250.0,test,0,E-
537.162065506,1,1000,0,1,0,1,5,2,4,3,0,250.0,test,1,E-
598.106145859,4,1000,5,1,0,1,5,2,4,3,0,250.0,test,4,E-
517.876148224,4,1000,5,1,0,1,5,2,4,3,0,250.0,test,4,E-
695.85609436,1,1000,0,1,0,1,5,2,4,3,0,250.0,test,1,E-
438.029050827,4,1000,5,1,0,1,5,2,4,3,0,250.0,test,4,E-
598.140001297,0,1000,1,1,0,1,5,2,4,3,0,250.0,test,0,E-
630.114078522,5,1000,3,1,0,1,5,2,4,3,0,250.0,test,5,E-
502.181053162,0,1000,1,1,0,1,5,2,4,3,0,250.0,test,0,E-
502.599954605,5,1000,3,1,0,1,5,2,4,3,0,250.0,test,5,E-
550.165891647,1,1000,0,1,0,1,5,2,4,3,0,250.0,test,1,E-
726.310014725,3,1000,4,0,0,1,5,2,4,3,0,250.0,test,2,E-
567.486047745,1,1000,0,1,0,1,5,2,4,3,0,250.0,test,1,E-
472.522974014,1,1000,0,1,0,1,5,2,4,3,0,250.0,test,1,E-
551.528930664,3,1000,4,1,0,1,5,2,4,3,0,250.0,test,3,E-
680.459022522,2,1000,2,1,0,1,5,2,4,3,0,250.0,test,2,E-
503.628969193,2,1000,2,1,0,1,5,2,4,3,0,250.0,test,2,E-
454.905986786,0,1000,1,1,0,1,5,2,4,3,0,250.0,test,0,E-
519.908189774,3,1000,4,1,0,1,5,2,4,3,0,250.0,test,3,E-
470.919132233,2,1000,2,1,0,1,5,2,4,3,0,250.0,test,2,E-
631.926059723,5,1000,3,1,0,1,5,2,4,3,0,250.0,test,5,E-
503.841161728,4,1000,5,1,0,1,5,2,4,3,0,250.0,test,4,E-
631.93488121,1,1000,0,1,0,1,5,2,4,3,0,250.0,test,1,E-
759.895086288,3,1000,4,1,0,1,5,2,4,3,0,250.0,test,3,E-
535.956859589,1,1000,0,1,0,1,5,2,4,3,0,250.0,test,1,E-
583.859205246,3,1000,4,1,0,1,5,2,4,3,0,250.0,test,3,E-
711.898803711,3,1000,4,1,0,1,5,2,4,3,0,250.0,test,3,E-
503.861904144,0,1000,1,1,0,1,5,2,4,3,0,250.0,test,0,E-
583.766937256,4,1000,5,1,0,1,5,2,4,3,0,250.0,test,4,E-
535.890102386,1,1000,0,1,0,1,5,2,4,3,0,250.0,test,1,E-
902.132034302,1,1000,0,1,0,1,5,2,4,3,0,250.0,test,1,E-
661.819934845,0,1000,1,1,0,1,5,2,4,3,0,250.0,test,0,E-
1081.26401901,2,1000,2,1,0,1,5,2,4,3,0,250.0,test,2,E-
422.132968903,0,1000,1,1,0,1,5,2,4,3,0,250.0,test,0,E-
424.937009811,0,1000,1,1,0,1,5,2,4,3,0,250.0,test,0,E-
534.123897552,1,1000,0,1,0,1,5,2,4,3,0,250.0,test,1,E-
550.145864487,3,1000,4,1,0,1,5,2,4,3,0,250.0,test,3,E-
599.807024002,5,1000,3,0,0,1,5,2,4,3,0,250.0,test,4,E-
998.070955276,2,1000,2,0,0,1,5,2,4,3,0,250.0,test,3,E-
518.042087555,2,1000,2,1,0,1,5,2,4,3,0,250.0,test,2,E-
358.150005341,2,1000,2,1,0,1,5,2,4,3,0,250.0,test,2,E-
966.24994278,1,1000,0,1,0,1,5,2,4,3,0,250.0,test,1,E-
551.714897156,3,1000,4,1,0,1,5,2,4,3,0,250.0,test,3,E-
614.058971405,3,1000,4,1,0,1,5,2,4,3,0,250.0,test,3,E-
633.34608078,5,1000,3,1,0,1,5,2,4,3,0,250.0,test,5,E-
870.17416954,2,1000,2,1,0,1,5,2,4,3,0,250.0,test,2,E-
534.868001938,3,1000,4,1,0,1,5,2,4,3,0,250.0,test,3,E-
887.614965439,2,1000,2,1,0,1,5,2,4,3,0,250.0,test,2,E-
311.509132385,2,1000,2,1,0,1,5,2,4,3,0,250.0,test,2,E-
503.957986832,3,1000,4,1,0,1,5,2,4,3,0,250.0,test,3,E-
615.822076797,4,1000,5,1,0,1,5,2,4,3,0,250.0,test,4,E-
391.503810883,4,1000,5,1,0,1,5,2,4,3,0,250.0,test,4,E-
343.859910965,4,1000,5,1,0,1,5,2,4,3,0,250.0,test,4,E-
391.755104065,3,1000,4,1,0,1,5,2,4,3,0,250.0,test,3,E-
520.528078079,4,1000,5,1,0,1,5,2,4,3,0,250.0,test,4,E-
1015.77782631,0,1000,1,1,0,1,5,2,4,3,0,250.0,test,0,E-
407.937049866,0,1000,1,1,0,1,5,2,4,3,0,250.0,test,0,E-
599.871873856,4,1000,5,1,0,1,5,2,4,3,0,250.0,test,4,E-
535.948038101,5,1000,3,1,0,1,5,2,4,3,0,250.0,test,5,E-
471.575975418,4,1000,5,1,0,1,5,2,4,3,0,250.0,test,4,E-
727.723121643,2,1000,2,1,0,1,5,2,4,3,0,250.0,test,2,E-
583.8971138,3,1000,4,1,0,1,5,2,4,3,0,250.0,test,3,E-
471.866846085,4,1000,5,1,0,1,5,2,4,3,0,250.0,test,4,E-
470.134019852,2,1000,2,1,0,1,5,2,4,3,0,250.0,test,2,E-
630.172014236,3,1000,4,1,0,1,5,2,4,3,0,250.0,test,3,E-
422.153949738,4,1000,5,1,0,1,5,2,4,3,0,250.0,test,4,E-
392.793893814,2,1000,2,0,0,1,5,2,4,3,0,250.0,test,3,E-
550.816774368,5,1000,3,0,0,1,5,2,4,3,0,250.0,test,4,E-
599.694013596,1,1000,0,1,0,1,5,2,4,3,0,250.0,test,1,E-
438.20309639,1,1000,0,1,0,1,5,2,4,3,0,250.0,test,1,E-
505.317926407,2,1000,2,1,0,1,5,2,4,3,0,250.0,test,2,E-
646.178007126,0,1000,1,1,0,1,5,2,4,3,0,250.0,test,0,E-
550.156116486,2,1000,2,1,0,1,5,2,4,3,0,250.0,test,2,E-
422.076940536,1,1000,0,1,0,1,5,2,4,3,0,250.0,test,1,E-
406.928062439,2,1000,2,1,0,1,5,2,4,3,0,250.0,test,2,E-
438.216924667,1,1000,0,1,0,1,5,2,4,3,0,250.0,test,1,E-
614.686012268,5,1000,3,1,0,1,5,2,4,3,0,250.0,test,5,E-
486.247062683,3,1000,4,1,0,1,5,2,4,3,0,250.0,test,3,E-
502.899885178,5,1000,3,1,0,1,5,2,4,3,0,250.0,test,5,E-
489.286899567,0,1000,1,1,0,1,5,2,4,3,0,250.0,test,0,E-
375.695943832,0,1000,1,1,0,1,5,2,4,3,0,250.0,test,0,E-
1082.52310753,5,1000,3,1,0,1,5,2,4,3,0,250.0,test,5,E-
423.481941223,5,1000,3,1,0,1,5,2,4,3,0,250.0,test,5,E-
535.840988159,0,1000,1,1,0,1,5,2,4,3,0,250.0,test,0,E-
359.908103943,0,1000,1,1,0,1,5,2,4,3,0,250.0,test,0,E-
551.810979843,4,1000,5,1,0,1,5,2,4,3,0,250.0,test,4,E-
534.952878952,1,1000,0,1,0,1,5,2,4,3,0,250.0,test,1,E-
582.731962204,2,1000,2,1,0,1,5,2,4,3,0,250.0,test,2,E-
551.811933517,3,1000,4,1,0,1,5,2,4,3,0,250.0,test,3,E-
407.803058624,0,1000,1,1,0,1,5,2,4,3,0,250.0,test,0,E-
456.594944,1,1000,0,1,0,1,5,2,4,3,0,250.0,test,1,E-
391.868829727,2,1000,2,1,0,1,5,2,4,3,0,250.0,test,2,E-
614.946126938,5,1000,3,1,0,1,5,2,4,3,0,250.0,test,5,E-
360.013008118,3,1000,4,1,0,1,5,2,4,3,0,250.0,test,3,E-
584.484100342,5,1000,3,1,0,1,5,2,4,3,0,250.0,test,5,E-
487.823009491,3,1000,4,0,0,1,5,2,4,3,0,250.0,test,4,E-
503.561019897,4,1000,5,1,0,1,5,2,4,3,0,250.0,test,4,E-
503.178119659,0,1000,1,1,0,1,5,2,4,3,0,250.0,test,0,E-
518.204212189,1,1000,0,1,0,1,5,2,4,3,0,250.0,test,1,E-
662.297010422,3,1000,4,1,0,1,5,2,4,3,0,250.0,test,3,E-
649.255037308,0,1000,1,1,0,1,5,2,4,3,0,250.0,test,0,E-
726.124048233,5,1000,3,1,0,1,5,2,4,3,0,250.0,test,5,E-
439.023017883,4,1000,5,1,0,1,5,2,4,3,0,250.0,test,4,E-
550.092935562,5,1000,3,1,0,1,5,2,4,3,0,250.0,test,5,E-
440.171957016,5,1000,3,1,0,1,5,2,4,3,0,250.0,test,5,E-
404.896020889,5,1000,3,1,0,1,5,2,4,3,0,250.0,test,5,E-
742.974996567,1,1000,0,1,0,1,5,2,4,3,0,250.0,test,1,E-
617.121934891,5,1000,3,1,0,1,5,2,4,3,0,250.0,test,5,E-
374.414205551,0,1000,1,1,0,1,5,2,4,3,0,250.0,test,0,E-
409.39116478,1,1000,0,1,0,1,5,2,4,3,0,250.0,test,1,E-
822.921037674,4,1000,5,1,0,1,5,2,4,3,0,250.0,test,4,E-
519.824028015,5,1000,3,1,0,1,5,2,4,3,0,250.0,test,5,E-
487.710952759,3,1000,4,1,0,1,5,2,4,3,0,250.0,test,3,E-
502.086162567,4,1000,5,1,0,1,5,2,4,3,0,250.0,test,4,E-
648.516178131,5,1000,3,1,0,1,5,2,4,3,0,250.0,test,5,E-
423.819065094,4,1000,5,1,0,1,5,2,4,3,0,250.0,test,4,E-
487.092018127,5,1000,3,1,0,1,5,2,4,3,0,250.0,test,5,E-
487.658977509,3,1000,4,1,0,1,5,2,4,3,0,250.0,test,3,E-
791.748046875,3,1000,4,1,0,1,5,2,4,3,0,250.0,test,3,E-
599.59602356,2,1000,2,1,0,1,5,2,4,3,0,250.0,test,2,E-
567.530155182,4,1000,5,1,0,1,5,2,4,3,0,250.0,test,4,E-
471.548080444,4,1000,5,1,0,1,5,2,4,3,0,250.0,test,4,E-
615.669965744,3,1000,4,1,0,1,5,2,4,3,0,250.0,test,3,E-
806.139945984,5,1000,3,1,0,1,5,2,4,3,0,250.0,test,5,E-
485.804080963,0,1000,1,1,0,1,5,2,4,3,0,250.0,test,0,E-
503.833055496,5,1000,3,1,0,1,5,2,4,3,0,250.0,test,5,E-
472.513914108,4,1000,5,1,0,1,5,2,4,3,0,250.0,test,4,E-
375.802993774,4,1000,5,1,0,1,5,2,4,3,0,250.0,test,4,E-
360.55803299,4,1000,5,1,0,1,5,2,4,3,0,250.0,test,4,E-
407.855033875,4,1000,5,1,0,1,5,2,4,3,0,250.0,test,4,E-
584.626197815,0,1000,1,1,0,1,5,2,4,3,0,250.0,test,0,E-
614.336967468,1,1000,0,1,0,1,5,2,4,3,0,250.0,test,1,E-
473.262071609,4,1000,5,1,0,1,5,2,4,3,0,250.0,test,4,E-
504.565954208,3,1000,4,1,0,1,5,2,4,3,0,250.0,test,3,E-
630.119085312,5,1000,3,1,0,1,5,2,4,3,0,250.0,test,5,E-
422.17707634,0,1000,1,1,0,1,5,2,4,3,0,250.0,test,0,E-
519.770145416,4,1000,5,1,0,1,5,2,4,3,0,250.0,test,4,E-
488.515138626,4,1000,5,1,0,1,5,2,4,3,0,250.0,test,4,E-
441.256046295,4,1000,5,1,0,1,5,2,4,3,0,250.0,test,4,E-
583.895921707,1,1000,0,1,0,1,5,2,4,3,0,250.0,test,1,E-
505.201816559,4,1000,5,1,0,1,5,2,4,3,0,250.0,test,4,E-
597.925901413,2,1000,2,1,0,1,5,2,4,3,0,250.0,test,2,E-
521.381855011,3,1000,4,1,0,1,5,2,4,3,0,250.0,test,3,E-
438.148021698,0,1000,1,1,0,1,5,2,4,3,0,250.0,test,0,E-
536.338090897,3,1000,4,1,0,1,5,2,4,3,0,250.0,test,3,E-
614.769220352,2,1000,2,1,0,1,5,2,4,3,0,250.0,test,2,E-
487.852096558,2,1000,2,1,0,1,5,2,4,3,0,250.0,test,2,E-
470.800876617,3,1000,4,1,0,1,5,2,4,3,0,250.0,test,3,E-
614.238023758,5,1000,3,1,0,1,5,2,4,3,0,250.0,test,5,E-
518.162965775,0,1000,1,1,0,1,5,2,4,3,0,250.0,test,0,E-
537.968158722,4,1000,5,1,0,1,5,2,4,3,0,250.0,test,4,E-
404.528856277,0,1000,1,1,0,1,5,2,4,3,0,250.0,test,0,E-
502.161026001,4,1000,5,1,0,1,5,2,4,3,0,250.0,test,4,E-
470.813035965,4,1000,5,1,0,1,5,2,4,3,0,250.0,test,4,E-
567.603826523,1,1000,0,1,0,1,5,2,4,3,0,250.0,test,1,E-
646.860837936,2,1000,2,1,0,1,5,2,4,3,0,250.0,test,2,E-
663.849115372,3,1000,4,1,0,1,5,2,4,3,0,250.0,test,3,E-
503.822088242,1,1000,0,1,0,1,5,2,4,3,0,250.0,test,1,E-
455.949068069,1,1000,0,1,0,1,5,2,4,3,0,250.0,test,1,E-
599.750995636,2,1000,2,1,0,1,5,2,4,3,0,250.0,test,2,E-
487.789154053,2,1000,2,1,0,1,5,2,4,3,0,250.0,test,2,E-
487.79296875,0,1000,1,1,0,1,5,2,4,3,0,250.0,test,0,E-
550.096035004,3,1000,4,1,0,1,5,2,4,3,0,250.0,test,3,E-
471.785068512,2,1000,2,1,0,1,5,2,4,3,0,250.0,test,2,E-
408.473014832,3,1000,4,1,0,1,5,2,4,3,0,250.0,test,3,E-
468.829154968,4,1000,5,1,0,1,5,2,4,3,0,250.0,test,4,E-
488.609075546,1,1000,0,1,0,1,5,2,4,3,0,250.0,test,1,E-
487.821102142,2,1000,2,1,0,1,5,2,4,3,0,250.0,test,2,E-
440.762996674,2,1000,2,1,0,1,5,2,4,3,0,250.0,test,2,E-
438.143014908,1,1000,0,1,0,1,5,2,4,3,0,250.0,test,1,E-
520.664930344,4,1000,5,1,0,1,5,2,4,3,0,250.0,test,4,E-
470.148086548,0,1000,1,1,0,1,5,2,4,3,0,250.0,test,0,E-
583.683013916,5,1000,3,0,0,1,5,2,4,3,0,250.0,test,4,E-
454.035997391,5,1000,3,1,0,1,5,2,4,3,0,250.0,test,5,E-
614.112854004,2,1000,2,1,0,1,5,2,4,3,0,250.0,test,2,E-
452.81791687,1,1000,0,1,0,1,5,2,4,3,0,250.0,test,1,E-
552.920103073,4,1000,5,1,0,1,5,2,4,3,0,250.0,test,4,E-
550.170898438,5,1000,3,1,0,1,5,2,4,3,0,250.0,test,5,E-
518.906116486,2,1000,2,1,0,1,5,2,4,3,0,250.0,test,2,E-
662.188053131,3,1000,4,1,0,1,5,2,4,3,0,250.0,test,3,E-
405.996084213,3,1000,4,1,0,1,5,2,4,3,0,250.0,test,3,E-
422.183990479,0,1000,1,1,0,1,5,2,4,3,0,250.0,test,0,E-
519.000053406,4,1000,5,1,0,1,5,2,4,3,0,250.0,test,4,E-
505.851984024,2,1000,2,1,0,1,5,2,4,3,0,250.0,test,2,E-
454.967021942,4,1000,5,1,0,1,5,2,4,3,0,250.0,test,4,E-
470.118999481,5,1000,3,1,0,1,5,2,4,3,0,250.0,test,5,E-
472.501039505,5,1000,3,1,0,1,5,2,4,3,0,250.0,test,5,E-
454.200983047,5,1000,3,1,0,1,5,2,4,3,0,250.0,test,5,E-
456.347227097,4,1000,5,1,0,1,5,2,4,3,0,250.0,test,4,E-
471.63105011,0,1000,1,1,0,1,5,2,4,3,0,250.0,test,0,E-
504.418134689,4,1000,5,1,0,1,5,2,4,3,0,250.0,test,4,E-
584.020137787,5,1000,3,1,0,1,5,2,4,3,0,250.0,test,5,E-
599.844932556,2,1000,2,1,0,1,5,2,4,3,0,250.0,test,2,E-
581.93898201,4,1000,5,1,0,1,5,2,4,3,0,250.0,test,4,E-
855.916023254,3,1000,4,1,0,1,5,2,4,3,0,250.0,test,3,E-
550.042867661,4,1000,5,1,0,1,5,2,4,3,0,250.0,test,4,E-
551.737070084,5,1000,3,1,0,1,5,2,4,3,0,250.0,test,5,E-
584.465026855,3,1000,4,1,0,1,5,2,4,3,0,250.0,test,3,E-
743.731975555,4,1000,5,1,0,1,5,2,4,3,0,250.0,test,4,E-
888.064861298,2,1000,2,1,0,1,5,2,4,3,0,250.0,test,2,E-
566.004037857,2,1000,2,1,0,1,5,2,4,3,0,250.0,test,2,E-
535.831928253,1,1000,0,1,0,1,5,2,4,3,0,250.0,test,1,E-
487.830877304,0,1000,1,1,0,1,5,2,4,3,0,250.0,test,0,E-
502.204179764,0,1000,1,1,0,1,5,2,4,3,0,250.0,test,0,E-
775.037050247,3,1000,4,1,0,1,5,2,4,3,0,250.0,test,3,E-
569.375991821,4,1000,5,1,0,1,5,2,4,3,0,250.0,test,4,E-
568.541049957,1,1000,0,1,0,1,5,2,4,3,0,250.0,test,1,E-
533.740997314,2,1000,2,1,0,1,5,2,4,3,0,250.0,test,2,E-
405.860900879,0,1000,1,1,0,1,5,2,4,3,0,250.0,test,0,E-
470.20316124,1,1000,0,1,0,1,5,2,4,3,0,250.0,test,1,E-
486.721038818,1,1000,0,1,0,1,5,2,4,3,0,250.0,test,1,E-
710.097789764,3,1000,4,1,0,1,5,2,4,3,0,250.0,test,3,E-
