RT,correct_response,ms-prestimblank,curstim,correct,SRmap_1,SRmap_0,SRmap_3,SRmap_2,SRmap_5,SRmap_4,ms-precue,ntrials,type,response,condition
2505.87797165,2,1000,1,1,2,3,4,5,1,0,0,250.0,train,2,M
1211.70496941,3,1000,0,1,2,3,4,5,1,0,0,250.0,train,3,M
667.849063873,2,1000,1,1,2,3,4,5,1,0,0,250.0,train,2,M
523.874998093,2,1000,1,1,2,3,4,5,1,0,0,250.0,train,2,M
570.901870728,3,1000,0,1,2,3,4,5,1,0,0,250.0,train,3,M
603.851079941,4,1000,3,1,2,3,4,5,1,0,0,250.0,train,4,M
1275.79903603,1,1000,5,1,2,3,4,5,1,0,0,250.0,train,1,M
523.930072784,2,1000,1,1,2,3,4,5,1,0,0,250.0,train,2,M
490.497112274,0,1000,4,1,2,3,4,5,1,0,0,250.0,train,0,M
378.564834595,1,1000,5,1,2,3,4,5,1,0,0,250.0,train,1,M
411.163806915,0,1000,4,1,2,3,4,5,1,0,0,250.0,train,0,M
362.571001053,0,1000,4,1,2,3,4,5,1,0,0,250.0,train,0,M
378.524065018,0,1000,4,1,2,3,4,5,1,0,0,250.0,train,0,M
283.840894699,0,1000,4,1,2,3,4,5,1,0,0,250.0,train,0,M
491.92404747,2,1000,1,1,2,3,4,5,1,0,0,250.0,train,2,M
330.482959747,1,1000,5,1,2,3,4,5,1,0,0,250.0,train,1,M
314.528942108,2,1000,1,0,2,3,4,5,1,0,0,250.0,train,0,M
762.625932693,3,1000,0,1,2,3,4,5,1,0,0,250.0,train,3,M
554.623842239,2,1000,1,1,2,3,4,5,1,0,0,250.0,train,2,M
953.20391655,4,1000,3,1,2,3,4,5,1,0,0,250.0,train,4,M
458.451032639,0,1000,4,1,2,3,4,5,1,0,0,250.0,train,0,M
523.102045059,4,1000,3,0,2,3,4,5,1,0,0,250.0,train,5,M
651.729106903,2,1000,1,1,2,3,4,5,1,0,0,250.0,train,2,M
603.830099106,2,1000,1,1,2,3,4,5,1,0,0,250.0,train,2,M
570.341825485,5,1000,2,1,2,3,4,5,1,0,0,250.0,train,5,M
443.984031677,4,1000,3,1,2,3,4,5,1,0,0,250.0,train,4,M
586.399078369,2,1000,1,1,2,3,4,5,1,0,0,250.0,train,2,M
490.396976471,3,1000,0,1,2,3,4,5,1,0,0,250.0,train,3,M
362.359046936,4,1000,3,1,2,3,4,5,1,0,0,250.0,train,4,M
458.369016647,2,1000,1,1,2,3,4,5,1,0,0,250.0,train,2,M
428.346157074,0,1000,4,1,2,3,4,5,1,0,0,250.0,train,0,M
378.424882889,2,1000,1,0,2,3,4,5,1,0,0,250.0,train,0,M
474.380016327,1,1000,5,1,2,3,4,5,1,0,0,250.0,train,1,M
410.578966141,1,1000,5,0,2,3,4,5,1,0,0,250.0,train,2,M
555.073022842,4,1000,3,1,2,3,4,5,1,0,0,250.0,train,4,M
346.450090408,5,1000,2,1,2,3,4,5,1,0,0,250.0,train,5,M
506.330013275,0,1000,4,1,2,3,4,5,1,0,0,250.0,train,0,M
395.950078964,0,1000,4,1,2,3,4,5,1,0,0,250.0,train,0,M
459.907054901,2,1000,1,1,2,3,4,5,1,0,0,250.0,train,2,M
555.834054947,5,1000,2,1,2,3,4,5,1,0,0,250.0,train,5,M
490.589141846,2,1000,1,1,2,3,4,5,1,0,0,250.0,train,2,M
490.557909012,5,1000,2,1,2,3,4,5,1,0,0,250.0,train,5,M
458.507061005,2,1000,1,1,2,3,4,5,1,0,0,250.0,train,2,M
394.546031952,5,1000,2,1,2,3,4,5,1,0,0,250.0,train,5,M
410.56895256,5,1000,2,1,2,3,4,5,1,0,0,250.0,train,5,M
410.601139069,0,1000,4,1,2,3,4,5,1,0,0,250.0,train,0,M
491.925954819,2,1000,1,1,2,3,4,5,1,0,0,250.0,train,2,M
347.964048386,0,1000,4,1,2,3,4,5,1,0,0,250.0,train,0,M
410.603046417,0,1000,4,1,2,3,4,5,1,0,0,250.0,train,0,M
426.630973816,1,1000,5,1,2,3,4,5,1,0,0,250.0,train,1,M
1097.14007378,3,1000,0,1,2,3,4,5,1,0,0,250.0,train,3,M
458.640098572,0,1000,4,1,2,3,4,5,1,0,0,250.0,train,0,M
410.451173782,0,1000,4,1,2,3,4,5,1,0,0,250.0,train,0,M
377.230882645,3,1000,0,1,2,3,4,5,1,0,0,250.0,train,3,M
587.989091873,3,1000,0,1,2,3,4,5,1,0,0,250.0,train,3,M
522.501945496,4,1000,3,1,2,3,4,5,1,0,0,250.0,train,4,M
650.516986847,1,1000,5,1,2,3,4,5,1,0,0,250.0,train,1,M
395.436048508,1,1000,5,1,2,3,4,5,1,0,0,250.0,train,1,M
377.168178558,1,1000,5,1,2,3,4,5,1,0,0,250.0,train,1,M
746.468067169,4,1000,3,1,2,3,4,5,1,0,0,250.0,train,4,M
426.412820816,4,1000,3,1,2,3,4,5,1,0,0,250.0,train,4,M
459.08498764,5,1000,2,1,2,3,4,5,1,0,0,250.0,train,5,M
778.357028961,3,1000,0,0,2,3,4,5,1,0,0,250.0,train,2,M
554.446935654,0,1000,4,1,2,3,4,5,1,0,0,250.0,train,0,M
651.082992554,4,1000,3,1,2,3,4,5,1,0,0,250.0,train,4,M
508.982896805,3,1000,0,1,2,3,4,5,1,0,0,250.0,train,3,M
474.521875381,3,1000,0,1,2,3,4,5,1,0,0,250.0,train,3,M
570.58095932,5,1000,2,1,2,3,4,5,1,0,0,250.0,train,5,M
619.828939438,4,1000,3,1,2,3,4,5,1,0,0,250.0,train,4,M
795.963048935,4,1000,3,1,2,3,4,5,1,0,0,250.0,train,4,M
490.581989288,5,1000,2,1,2,3,4,5,1,0,0,250.0,train,5,M
570.595026016,5,1000,2,1,2,3,4,5,1,0,0,250.0,train,5,M
651.921987534,2,1000,1,1,2,3,4,5,1,0,0,250.0,train,2,M
394.564151764,2,1000,1,1,2,3,4,5,1,0,0,250.0,train,2,M
617.262840271,3,1000,0,1,2,3,4,5,1,0,0,250.0,train,3,M
442.52705574,4,1000,3,1,2,3,4,5,1,0,0,250.0,train,4,M
570.558071136,1,1000,5,1,2,3,4,5,1,0,0,250.0,train,1,M
522.582054138,5,1000,2,1,2,3,4,5,1,0,0,250.0,train,5,M
746.58203125,3,1000,0,1,2,3,4,5,1,0,0,250.0,train,3,M
491.074085236,1,1000,5,1,2,3,4,5,1,0,0,250.0,train,1,M
522.558927536,5,1000,2,1,2,3,4,5,1,0,0,250.0,train,5,M
554.025173187,4,1000,3,1,2,3,4,5,1,0,0,250.0,train,4,M
426.478862762,1,1000,5,1,2,3,4,5,1,0,0,250.0,train,1,M
456.432104111,5,1000,2,1,2,3,4,5,1,0,0,250.0,train,5,M
682.414054871,3,1000,0,1,2,3,4,5,1,0,0,250.0,train,3,M
378.524065018,1,1000,5,1,2,3,4,5,1,0,0,250.0,train,1,M
394.546985626,5,1000,2,1,2,3,4,5,1,0,0,250.0,train,5,M
507.986783981,2,1000,1,1,2,3,4,5,1,0,0,250.0,train,2,M
442.466974258,2,1000,1,1,2,3,4,5,1,0,0,250.0,train,2,M
554.533958435,5,1000,2,1,2,3,4,5,1,0,0,250.0,train,5,M
363.850831985,5,1000,2,1,2,3,4,5,1,0,0,250.0,train,5,M
427.899122238,1,1000,5,1,2,3,4,5,1,0,0,250.0,train,1,M
362.504959106,1,1000,5,1,2,3,4,5,1,0,0,250.0,train,1,M
394.442796707,0,1000,4,1,2,3,4,5,1,0,0,250.0,train,0,M
378.396034241,0,1000,4,1,2,3,4,5,1,0,0,250.0,train,0,M
554.239988327,0,1000,4,1,2,3,4,5,1,0,0,250.0,train,0,M
395.847082138,2,1000,1,1,2,3,4,5,1,0,0,250.0,train,2,M
394.346952438,0,1000,4,1,2,3,4,5,1,0,0,250.0,train,0,M
442.456960678,4,1000,3,0,2,3,4,5,1,0,0,250.0,train,5,M
410.410881042,5,1000,2,1,2,3,4,5,1,0,0,250.0,train,5,M
522.543907166,0,1000,4,1,2,3,4,5,1,0,0,250.0,train,0,M
411.962032318,0,1000,4,1,2,3,4,5,1,0,0,250.0,train,0,M
379.854917526,0,1000,4,1,2,3,4,5,1,0,0,250.0,train,0,M
682.478904724,4,1000,3,1,2,3,4,5,1,0,0,250.0,train,4,M
475.934028625,4,1000,3,1,2,3,4,5,1,0,0,250.0,train,4,M
587.949037552,2,1000,1,1,2,3,4,5,1,0,0,250.0,train,2,M
475.90303421,1,1000,5,1,2,3,4,5,1,0,0,250.0,train,1,M
442.551851273,1,1000,5,1,2,3,4,5,1,0,0,250.0,train,1,M
426.424980164,2,1000,1,1,2,3,4,5,1,0,0,250.0,train,2,M
362.534999847,2,1000,1,1,2,3,4,5,1,0,0,250.0,train,2,M
554.535150528,5,1000,2,1,2,3,4,5,1,0,0,250.0,train,5,M
426.517963409,2,1000,1,0,2,3,4,5,1,0,0,250.0,train,1,M
1418.62797737,3,1000,0,1,2,3,4,5,1,0,0,250.0,train,3,M
666.574954987,5,1000,2,1,2,3,4,5,1,0,0,250.0,train,5,M
523.83184433,0,1000,4,1,2,3,4,5,1,0,0,250.0,train,0,M
554.557085037,5,1000,2,1,2,3,4,5,1,0,0,250.0,train,5,M
506.376028061,4,1000,3,1,2,3,4,5,1,0,0,250.0,train,4,M
538.614988327,2,1000,1,1,2,3,4,5,1,0,0,250.0,train,2,M
523.952960968,4,1000,3,0,2,3,4,5,1,0,0,250.0,train,5,M
1244.03595924,3,1000,0,1,2,3,4,5,1,0,0,250.0,train,3,M
394.194126129,3,1000,0,1,2,3,4,5,1,0,0,250.0,train,3,M
443.833827972,0,1000,4,1,2,3,4,5,1,0,0,250.0,train,0,M
347.043037415,1,1000,5,1,2,3,4,5,1,0,0,250.0,train,1,M
475.791931152,5,1000,2,1,2,3,4,5,1,0,0,250.0,train,5,M
522.525072098,3,1000,0,0,2,3,4,5,1,0,0,250.0,train,2,M
490.921974182,0,1000,4,1,2,3,4,5,1,0,0,250.0,train,0,M
698.50897789,4,1000,3,1,2,3,4,5,1,0,0,250.0,train,4,M
538.42997551,4,1000,3,1,2,3,4,5,1,0,0,250.0,train,4,M
474.442958832,1,1000,5,1,2,3,4,5,1,0,0,250.0,train,1,M
346.460103989,1,1000,5,1,2,3,4,5,1,0,0,250.0,train,1,M
426.532030106,2,1000,1,1,2,3,4,5,1,0,0,250.0,train,2,M
554.413080215,4,1000,3,1,2,3,4,5,1,0,0,250.0,train,4,M
539.986133575,2,1000,1,1,2,3,4,5,1,0,0,250.0,train,2,M
475.044965744,0,1000,4,1,2,3,4,5,1,0,0,250.0,train,0,M
523.895025253,5,1000,2,1,2,3,4,5,1,0,0,250.0,train,5,M
458.009958267,3,1000,0,0,2,3,4,5,1,0,0,250.0,train,2,M
506.947994232,1,1000,5,1,2,3,4,5,1,0,0,250.0,train,1,M
426.561117172,0,1000,4,1,2,3,4,5,1,0,0,250.0,train,0,M
490.547180176,2,1000,1,1,2,3,4,5,1,0,0,250.0,train,2,M
523.854970932,5,1000,2,1,2,3,4,5,1,0,0,250.0,train,5,M
474.550008774,0,1000,4,1,2,3,4,5,1,0,0,250.0,train,0,M
490.564107895,3,1000,0,0,2,3,4,5,1,0,0,250.0,train,2,M
442.583084106,0,1000,4,1,2,3,4,5,1,0,0,250.0,train,0,M
443.111896515,0,1000,4,1,2,3,4,5,1,0,0,250.0,train,0,M
633.08596611,5,1000,2,1,2,3,4,5,1,0,0,250.0,train,5,M
475.116968155,5,1000,2,1,2,3,4,5,1,0,0,250.0,train,5,M
650.614023209,4,1000,3,1,2,3,4,5,1,0,0,250.0,train,4,M
491.083145142,4,1000,3,1,2,3,4,5,1,0,0,250.0,train,4,M
666.476964951,3,1000,0,1,2,3,4,5,1,0,0,250.0,train,3,M
826.606988907,3,1000,0,1,2,3,4,5,1,0,0,250.0,train,3,M
458.452939987,5,1000,2,1,2,3,4,5,1,0,0,250.0,train,5,M
443.977832794,5,1000,2,1,2,3,4,5,1,0,0,250.0,train,5,M
411.829948425,5,1000,2,1,2,3,4,5,1,0,0,250.0,train,5,M
586.369991302,3,1000,0,1,2,3,4,5,1,0,0,250.0,train,3,M
459.831953049,5,1000,2,1,2,3,4,5,1,0,0,250.0,train,5,M
506.376981735,0,1000,4,1,2,3,4,5,1,0,0,250.0,train,0,M
426.509857178,5,1000,2,1,2,3,4,5,1,0,0,250.0,train,5,M
442.440986633,5,1000,2,1,2,3,4,5,1,0,0,250.0,train,5,M
698.459863663,3,1000,0,1,2,3,4,5,1,0,0,250.0,train,3,M
571.879863739,1,1000,5,1,2,3,4,5,1,0,0,250.0,train,1,M
842.440128326,3,1000,0,1,2,3,4,5,1,0,0,250.0,train,3,M
443.930864334,3,1000,0,1,2,3,4,5,1,0,0,250.0,train,3,M
378.561019897,3,1000,0,1,2,3,4,5,1,0,0,250.0,train,3,M
603.965044022,2,1000,1,1,2,3,4,5,1,0,0,250.0,train,2,M
458.504915237,5,1000,2,1,2,3,4,5,1,0,0,250.0,train,5,M
1194.54598427,4,1000,3,1,2,3,4,5,1,0,0,250.0,train,4,M
473.115921021,2,1000,1,1,2,3,4,5,1,0,0,250.0,train,2,M
555.942058563,5,1000,2,1,2,3,4,5,1,0,0,250.0,train,5,M
587.124109268,3,1000,0,1,2,3,4,5,1,0,0,250.0,train,3,M
714.627981186,4,1000,3,1,2,3,4,5,1,0,0,250.0,train,4,M
410.618066788,5,1000,2,1,2,3,4,5,1,0,0,250.0,train,5,M
377.272129059,5,1000,2,1,2,3,4,5,1,0,0,250.0,train,5,M
346.992969513,5,1000,2,1,2,3,4,5,1,0,0,250.0,train,5,M
618.465900421,1,1000,5,1,2,3,4,5,1,0,0,250.0,train,1,M
635.16497612,3,1000,0,1,2,3,4,5,1,0,0,250.0,train,3,M
458.527088165,4,1000,3,1,2,3,4,5,1,0,0,250.0,train,4,M
442.636013031,1,1000,5,1,2,3,4,5,1,0,0,250.0,train,1,M
554.515838623,4,1000,3,0,2,3,4,5,1,0,0,250.0,train,5,M
458.497047424,1,1000,5,1,2,3,4,5,1,0,0,250.0,train,1,M
794.564008713,3,1000,0,0,2,3,4,5,1,0,0,250.0,train,4,M
554.993152618,1,1000,5,1,2,3,4,5,1,0,0,250.0,train,1,M
460.011005402,0,1000,4,1,2,3,4,5,1,0,0,250.0,train,0,M
555.057048798,5,1000,2,1,2,3,4,5,1,0,0,250.0,train,5,M
442.38114357,1,1000,5,1,2,3,4,5,1,0,0,250.0,train,1,M
427.068948746,0,1000,4,1,2,3,4,5,1,0,0,250.0,train,0,M
378.471136093,1,1000,5,1,2,3,4,5,1,0,0,250.0,train,1,M
522.439002991,5,1000,2,1,2,3,4,5,1,0,0,250.0,train,5,M
474.421977997,1,1000,5,1,2,3,4,5,1,0,0,250.0,train,1,M
538.425207138,4,1000,3,1,2,3,4,5,1,0,0,250.0,train,4,M
522.381067276,2,1000,1,1,2,3,4,5,1,0,0,250.0,train,2,M
442.430019379,0,1000,4,1,2,3,4,5,1,0,0,250.0,train,0,M
409.918785095,2,1000,1,1,2,3,4,5,1,0,0,250.0,train,2,M
442.368030548,0,1000,4,1,2,3,4,5,1,0,0,250.0,train,0,M
507.884025574,1,1000,5,1,2,3,4,5,1,0,0,250.0,train,1,M
475.996017456,5,1000,2,1,2,3,4,5,1,0,0,250.0,train,5,M
426.386833191,0,1000,4,1,2,3,4,5,1,0,0,250.0,train,0,M
683.913946152,3,1000,0,0,2,3,4,5,1,0,0,250.0,train,2,M
442.525863647,1,1000,5,1,2,3,4,5,1,0,0,250.0,train,1,M
698.524951935,3,1000,0,1,2,3,4,5,1,0,0,250.0,train,3,M
635.944843292,4,1000,3,1,2,3,4,5,1,0,0,250.0,train,4,M
506.248950958,1,1000,5,1,2,3,4,5,1,0,0,250.0,train,1,M
570.569992065,5,1000,2,1,2,3,4,5,1,0,0,250.0,train,5,M
442.555904388,0,1000,4,1,2,3,4,5,1,0,0,250.0,train,0,M
458.561182022,5,1000,2,1,2,3,4,5,1,0,0,250.0,train,5,M
410.583972931,1,1000,5,1,2,3,4,5,1,0,0,250.0,train,1,M
778.554916382,3,1000,0,1,2,3,4,5,1,0,0,250.0,train,3,M
586.607933044,4,1000,3,1,2,3,4,5,1,0,0,250.0,train,4,M
522.270202637,5,1000,2,1,2,3,4,5,1,0,0,250.0,train,5,M
538.611888885,4,1000,3,1,2,3,4,5,1,0,0,250.0,train,4,M
954.596042633,3,1000,0,1,2,3,4,5,1,0,0,250.0,train,3,M
474.534988403,1,1000,5,1,2,3,4,5,1,0,0,250.0,train,1,M
442.616939545,1,1000,5,1,2,3,4,5,1,0,0,250.0,train,1,M
426.516056061,2,1000,1,1,2,3,4,5,1,0,0,250.0,train,2,M
474.366188049,3,1000,0,1,2,3,4,5,1,0,0,250.0,train,3,M
458.522796631,5,1000,2,1,2,3,4,5,1,0,0,250.0,train,5,M
427.981853485,0,1000,4,1,2,3,4,5,1,0,0,250.0,train,0,M
411.71503067,0,1000,4,1,2,3,4,5,1,0,0,250.0,train,0,M
588.051080704,5,1000,2,1,2,3,4,5,1,0,0,250.0,train,5,M
442.472934723,1,1000,5,1,2,3,4,5,1,0,0,250.0,train,1,M
378.468990326,1,1000,5,1,2,3,4,5,1,0,0,250.0,train,1,M
650.439977646,4,1000,3,1,2,3,4,5,1,0,0,250.0,train,4,M
490.489006042,5,1000,2,1,2,3,4,5,1,0,0,250.0,train,5,M
394.42896843,0,1000,4,1,2,3,4,5,1,0,0,250.0,train,0,M
602.344036102,3,1000,0,1,2,3,4,5,1,0,0,250.0,train,3,M
426.41711235,1,1000,5,1,2,3,4,5,1,0,0,250.0,train,1,M
458.328962326,0,1000,4,1,2,3,4,5,1,0,0,250.0,train,0,M
522.40395546,3,1000,0,1,2,3,4,5,1,0,0,250.0,train,3,M
378.440141678,1,1000,5,1,2,3,4,5,1,0,0,250.0,train,1,M
522.592067719,3,1000,0,1,2,3,4,5,1,0,0,250.0,train,3,M
459.993839264,0,1000,4,1,2,3,4,5,1,0,0,250.0,train,0,M
554.537057877,2,1000,1,1,2,3,4,5,1,0,0,250.0,train,2,M
490.473985672,5,1000,2,1,2,3,4,5,1,0,0,250.0,train,5,M
490.53812027,5,1000,2,1,2,3,4,5,1,0,0,250.0,train,5,M
699.841022491,3,1000,0,1,2,3,4,5,1,0,0,250.0,train,3,M
474.529981613,4,1000,3,1,2,3,4,5,1,0,0,250.0,train,4,M
379.028081894,5,1000,2,1,2,3,4,5,1,0,0,250.0,train,5,M
506.562948227,3,1000,0,1,2,3,4,5,1,0,0,250.0,train,3,M
427.135944366,4,1000,3,1,2,3,4,5,1,0,0,250.0,train,4,M
474.538087845,3,1000,0,1,2,3,4,5,1,0,0,250.0,train,3,M
458.572149277,1,1000,5,1,2,3,4,5,1,0,0,250.0,train,1,M
394.570112228,3,1000,0,1,2,3,4,5,1,0,0,250.0,train,3,M
411.104202271,1,1000,5,1,2,3,4,5,1,0,0,250.0,train,1,M
506.697893143,4,1000,3,1,2,3,4,5,1,0,0,250.0,train,4,M
347.122907639,5,1000,2,1,2,3,4,5,1,0,0,250.0,train,5,M
618.557929993,4,1000,3,1,2,3,4,5,1,0,0,250.0,train,4,M
459.136009216,0,1000,4,1,2,3,4,5,1,0,0,250.0,train,0,M
540.019035339,4,1000,3,1,2,3,4,5,1,0,0,250.0,train,4,M
507.216930389,1,1000,5,1,2,3,4,5,1,0,0,250.0,train,1,M
601.275920868,2,1000,1,1,2,3,4,5,1,0,0,250.0,train,2,M
443.036079407,0,1000,4,1,2,3,4,5,1,0,0,250.0,train,0,M
10378.2610893,4,1000,3,1,2,3,4,5,1,0,0,250.0,test,4,M
1882.34400749,0,1000,4,1,2,3,4,5,1,0,0,250.0,test,0,M
1210.39390564,2,1000,1,1,2,3,4,5,1,0,0,250.0,test,2,M
779.803991318,2,1000,1,1,2,3,4,5,1,0,0,250.0,test,2,M
1355.73577881,1,1000,5,1,2,3,4,5,1,0,0,250.0,test,1,M
1114.21179771,4,1000,3,1,2,3,4,5,1,0,0,250.0,test,4,M
1050.32491684,1,1000,5,1,2,3,4,5,1,0,0,250.0,test,1,M
762.304067612,2,1000,1,1,2,3,4,5,1,0,0,250.0,test,2,M
1690.4001236,4,1000,3,1,2,3,4,5,1,0,0,250.0,test,4,M
827.818155289,4,1000,3,1,2,3,4,5,1,0,0,250.0,test,4,M
1562.32500076,0,1000,4,1,2,3,4,5,1,0,0,250.0,test,0,M
667.79589653,2,1000,1,1,2,3,4,5,1,0,0,250.0,test,2,M
666.376113892,1,1000,5,1,2,3,4,5,1,0,0,250.0,test,1,M
1418.98298264,0,1000,4,1,2,3,4,5,1,0,0,250.0,test,0,M
810.409069061,1,1000,5,1,2,3,4,5,1,0,0,250.0,test,1,M
1306.33687973,0,1000,4,1,2,3,4,5,1,0,0,250.0,test,0,M
923.789024353,5,1000,2,1,2,3,4,5,1,0,0,250.0,test,5,M
762.316942215,1,1000,5,0,2,3,4,5,1,0,0,250.0,test,2,M
794.394016266,2,1000,1,1,2,3,4,5,1,0,0,250.0,test,2,M
1578.42803001,3,1000,0,0,2,3,4,5,1,0,0,250.0,test,0,M
715.758085251,1,1000,5,1,2,3,4,5,1,0,0,250.0,test,1,M
523.796081543,5,1000,2,1,2,3,4,5,1,0,0,250.0,test,5,M
1306.40983582,4,1000,3,1,2,3,4,5,1,0,0,250.0,test,4,M
731.715202332,2,1000,1,1,2,3,4,5,1,0,0,250.0,test,2,M
923.625946045,0,1000,4,1,2,3,4,5,1,0,0,250.0,test,0,M
730.320930481,2,1000,1,1,2,3,4,5,1,0,0,250.0,test,2,M
618.251085281,5,1000,2,1,2,3,4,5,1,0,0,250.0,test,5,M
586.261987686,5,1000,2,1,2,3,4,5,1,0,0,250.0,test,5,M
1626.37209892,0,1000,4,1,2,3,4,5,1,0,0,250.0,test,0,M
586.360931396,5,1000,2,1,2,3,4,5,1,0,0,250.0,test,5,M
747.709989548,1,1000,5,1,2,3,4,5,1,0,0,250.0,test,1,M
634.250879288,5,1000,2,1,2,3,4,5,1,0,0,250.0,test,5,M
587.731838226,5,1000,2,1,2,3,4,5,1,0,0,250.0,test,5,M
618.313789368,0,1000,4,1,2,3,4,5,1,0,0,250.0,test,0,M
522.29309082,2,1000,1,1,2,3,4,5,1,0,0,250.0,test,2,M
603.709936142,2,1000,1,1,2,3,4,5,1,0,0,250.0,test,2,M
1274.40595627,3,1000,0,0,2,3,4,5,1,0,0,250.0,test,4,M
731.714963913,1,1000,5,1,2,3,4,5,1,0,0,250.0,test,1,M
618.372917175,1,1000,5,1,2,3,4,5,1,0,0,250.0,test,1,M
1802.40106583,3,1000,0,1,2,3,4,5,1,0,0,250.0,test,3,M
1130.25307655,3,1000,0,1,2,3,4,5,1,0,0,250.0,test,3,M
794.370174408,4,1000,3,1,2,3,4,5,1,0,0,250.0,test,4,M
666.28408432,4,1000,3,1,2,3,4,5,1,0,0,250.0,test,4,M
618.372917175,0,1000,4,1,2,3,4,5,1,0,0,250.0,test,0,M
954.393863678,4,1000,3,1,2,3,4,5,1,0,0,250.0,test,4,M
602.403879166,5,1000,2,1,2,3,4,5,1,0,0,250.0,test,5,M
586.871862411,1,1000,5,1,2,3,4,5,1,0,0,250.0,test,1,M
538.288831711,0,1000,4,1,2,3,4,5,1,0,0,250.0,test,0,M
474.905967712,5,1000,2,1,2,3,4,5,1,0,0,250.0,test,5,M
1466.82405472,3,1000,0,1,2,3,4,5,1,0,0,250.0,test,3,M
666.369915009,2,1000,1,1,2,3,4,5,1,0,0,250.0,test,2,M
538.282871246,5,1000,2,1,2,3,4,5,1,0,0,250.0,test,5,M
587.811946869,2,1000,1,1,2,3,4,5,1,0,0,250.0,test,2,M
763.739824295,4,1000,3,1,2,3,4,5,1,0,0,250.0,test,4,M
411.74697876,3,1000,0,1,2,3,4,5,1,0,0,250.0,test,3,M
538.242816925,2,1000,1,1,2,3,4,5,1,0,0,250.0,test,2,M
442.214012146,1,1000,5,1,2,3,4,5,1,0,0,250.0,test,1,M
426.249027252,0,1000,4,1,2,3,4,5,1,0,0,250.0,test,0,M
618.275165558,2,1000,1,1,2,3,4,5,1,0,0,250.0,test,2,M
714.267015457,4,1000,3,1,2,3,4,5,1,0,0,250.0,test,4,M
538.26713562,5,1000,2,1,2,3,4,5,1,0,0,250.0,test,5,M
554.322004318,0,1000,4,1,2,3,4,5,1,0,0,250.0,test,0,M
522.286891937,0,1000,4,1,2,3,4,5,1,0,0,250.0,test,0,M
540.312051773,2,1000,1,1,2,3,4,5,1,0,0,250.0,test,2,M
378.285884857,1,1000,5,1,2,3,4,5,1,0,0,250.0,test,1,M
458.147764206,1,1000,5,1,2,3,4,5,1,0,0,250.0,test,1,M
475.77381134,3,1000,0,1,2,3,4,5,1,0,0,250.0,test,3,M
587.759971619,0,1000,4,1,2,3,4,5,1,0,0,250.0,test,0,M
1051.7680645,4,1000,3,1,2,3,4,5,1,0,0,250.0,test,4,M
587.794065475,0,1000,4,1,2,3,4,5,1,0,0,250.0,test,0,M
473.774909973,0,1000,4,1,2,3,4,5,1,0,0,250.0,test,0,M
923.820972443,3,1000,0,1,2,3,4,5,1,0,0,250.0,test,3,M
953.141927719,4,1000,3,1,2,3,4,5,1,0,0,250.0,test,4,M
522.3300457,4,1000,3,1,2,3,4,5,1,0,0,250.0,test,4,M
458.14204216,0,1000,4,1,2,3,4,5,1,0,0,250.0,test,0,M
618.421077728,2,1000,1,1,2,3,4,5,1,0,0,250.0,test,2,M
1402.46915817,3,1000,0,1,2,3,4,5,1,0,0,250.0,test,3,M
522.34005928,5,1000,2,1,2,3,4,5,1,0,0,250.0,test,5,M
523.75793457,0,1000,4,1,2,3,4,5,1,0,0,250.0,test,0,M
586.442947388,0,1000,4,1,2,3,4,5,1,0,0,250.0,test,0,M
890.290975571,3,1000,0,0,2,3,4,5,1,0,0,250.0,test,1,M
699.679136276,2,1000,1,1,2,3,4,5,1,0,0,250.0,test,2,M
538.34104538,0,1000,4,1,2,3,4,5,1,0,0,250.0,test,0,M
555.675983429,5,1000,2,1,2,3,4,5,1,0,0,250.0,test,5,M
731.730937958,3,1000,0,1,2,3,4,5,1,0,0,250.0,test,3,M
571.706056595,5,1000,2,1,2,3,4,5,1,0,0,250.0,test,5,M
475.787878036,4,1000,3,1,2,3,4,5,1,0,0,250.0,test,4,M
587.723016739,0,1000,4,1,2,3,4,5,1,0,0,250.0,test,0,M
474.323987961,1,1000,5,1,2,3,4,5,1,0,0,250.0,test,1,M
553.163051605,5,1000,2,1,2,3,4,5,1,0,0,250.0,test,5,M
585.110187531,4,1000,3,1,2,3,4,5,1,0,0,250.0,test,4,M
554.177999496,4,1000,3,1,2,3,4,5,1,0,0,250.0,test,4,M
650.284051895,2,1000,1,1,2,3,4,5,1,0,0,250.0,test,2,M
538.332939148,0,1000,4,1,2,3,4,5,1,0,0,250.0,test,0,M
570.861101151,0,1000,4,1,2,3,4,5,1,0,0,250.0,test,0,M
587.729215622,2,1000,1,1,2,3,4,5,1,0,0,250.0,test,2,M
554.893016815,5,1000,2,1,2,3,4,5,1,0,0,250.0,test,5,M
443.758964539,5,1000,2,1,2,3,4,5,1,0,0,250.0,test,5,M
490.923166275,5,1000,2,1,2,3,4,5,1,0,0,250.0,test,5,M
346.965074539,5,1000,2,1,2,3,4,5,1,0,0,250.0,test,5,M
505.193948746,2,1000,1,1,2,3,4,5,1,0,0,250.0,test,2,M
379.767179489,4,1000,3,0,2,3,4,5,1,0,0,250.0,test,1,M
570.198059082,1,1000,5,1,2,3,4,5,1,0,0,250.0,test,1,M
554.122924805,5,1000,2,1,2,3,4,5,1,0,0,250.0,test,5,M
1018.253088,4,1000,3,1,2,3,4,5,1,0,0,250.0,test,4,M
554.34012413,5,1000,2,1,2,3,4,5,1,0,0,250.0,test,5,M
570.295095444,0,1000,4,1,2,3,4,5,1,0,0,250.0,test,0,M
571.76399231,1,1000,5,1,2,3,4,5,1,0,0,250.0,test,1,M
602.22697258,5,1000,2,1,2,3,4,5,1,0,0,250.0,test,5,M
442.418813705,5,1000,2,1,2,3,4,5,1,0,0,250.0,test,5,M
874.32718277,4,1000,3,1,2,3,4,5,1,0,0,250.0,test,4,M
489.109992981,5,1000,2,1,2,3,4,5,1,0,0,250.0,test,5,M
586.339950562,2,1000,1,1,2,3,4,5,1,0,0,250.0,test,2,M
762.387990952,3,1000,0,1,2,3,4,5,1,0,0,250.0,test,3,M
682.283878326,1,1000,5,0,2,3,4,5,1,0,0,250.0,test,0,M
522.37200737,1,1000,5,1,2,3,4,5,1,0,0,250.0,test,1,M
505.671024323,5,1000,2,1,2,3,4,5,1,0,0,250.0,test,5,M
618.273019791,0,1000,4,1,2,3,4,5,1,0,0,250.0,test,0,M
714.063882828,2,1000,1,1,2,3,4,5,1,0,0,250.0,test,2,M
1083.21881294,0,1000,4,1,2,3,4,5,1,0,0,250.0,test,0,M
507.812023163,1,1000,5,1,2,3,4,5,1,0,0,250.0,test,1,M
523.531198502,5,1000,2,1,2,3,4,5,1,0,0,250.0,test,5,M
587.671995163,3,1000,0,1,2,3,4,5,1,0,0,250.0,test,3,M
395.421981812,4,1000,3,1,2,3,4,5,1,0,0,250.0,test,4,M
698.333978653,4,1000,3,1,2,3,4,5,1,0,0,250.0,test,4,M
682.303905487,3,1000,0,1,2,3,4,5,1,0,0,250.0,test,3,M
634.398937225,0,1000,4,1,2,3,4,5,1,0,0,250.0,test,0,M
538.859128952,5,1000,2,1,2,3,4,5,1,0,0,250.0,test,5,M
699.818849564,3,1000,0,0,2,3,4,5,1,0,0,250.0,test,4,M
1083.84013176,3,1000,0,1,2,3,4,5,1,0,0,250.0,test,3,M
570.338010788,0,1000,4,1,2,3,4,5,1,0,0,250.0,test,0,M
555.794000626,1,1000,5,1,2,3,4,5,1,0,0,250.0,test,1,M
1466.87197685,4,1000,3,1,2,3,4,5,1,0,0,250.0,test,4,M
571.857213974,2,1000,1,1,2,3,4,5,1,0,0,250.0,test,2,M
522.383928299,1,1000,5,1,2,3,4,5,1,0,0,250.0,test,1,M
826.11989975,3,1000,0,1,2,3,4,5,1,0,0,250.0,test,3,M
523.730039597,4,1000,3,1,2,3,4,5,1,0,0,250.0,test,4,M
538.364887238,2,1000,1,1,2,3,4,5,1,0,0,250.0,test,2,M
538.321018219,0,1000,4,1,2,3,4,5,1,0,0,250.0,test,0,M
554.404973984,2,1000,1,1,2,3,4,5,1,0,0,250.0,test,2,M
586.277961731,0,1000,4,1,2,3,4,5,1,0,0,250.0,test,0,M
1034.42311287,4,1000,3,1,2,3,4,5,1,0,0,250.0,test,4,M
571.773052216,0,1000,4,1,2,3,4,5,1,0,0,250.0,test,0,M
1467.80180931,3,1000,0,1,2,3,4,5,1,0,0,250.0,test,3,M
634.366989136,1,1000,5,1,2,3,4,5,1,0,0,250.0,test,1,M
394.828081131,2,1000,1,1,2,3,4,5,1,0,0,250.0,test,2,M
507.775068283,4,1000,3,1,2,3,4,5,1,0,0,250.0,test,4,M
522.841930389,5,1000,2,1,2,3,4,5,1,0,0,250.0,test,5,M
603.757858276,0,1000,4,1,2,3,4,5,1,0,0,250.0,test,0,M
586.305141449,0,1000,4,1,2,3,4,5,1,0,0,250.0,test,0,M
443.727970123,3,1000,0,1,2,3,4,5,1,0,0,250.0,test,3,M
538.225889206,0,1000,4,1,2,3,4,5,1,0,0,250.0,test,0,M
587.826967239,2,1000,1,0,2,3,4,5,1,0,0,250.0,test,1,M
1018.34893227,4,1000,3,1,2,3,4,5,1,0,0,250.0,test,4,M
570.247888565,5,1000,2,1,2,3,4,5,1,0,0,250.0,test,5,M
954.341888428,3,1000,0,1,2,3,4,5,1,0,0,250.0,test,3,M
506.319046021,0,1000,4,1,2,3,4,5,1,0,0,250.0,test,0,M
602.288007736,3,1000,0,1,2,3,4,5,1,0,0,250.0,test,3,M
538.30909729,5,1000,2,1,2,3,4,5,1,0,0,250.0,test,5,M
634.255886078,4,1000,3,1,2,3,4,5,1,0,0,250.0,test,4,M
587.707996368,0,1000,4,1,2,3,4,5,1,0,0,250.0,test,0,M
650.320053101,2,1000,1,1,2,3,4,5,1,0,0,250.0,test,2,M
570.338010788,3,1000,0,1,2,3,4,5,1,0,0,250.0,test,3,M
587.778091431,1,1000,5,1,2,3,4,5,1,0,0,250.0,test,1,M
458.240032196,4,1000,3,1,2,3,4,5,1,0,0,250.0,test,4,M
523.744821548,0,1000,4,1,2,3,4,5,1,0,0,250.0,test,0,M
1050.39787292,3,1000,0,1,2,3,4,5,1,0,0,250.0,test,3,M
538.426876068,5,1000,2,1,2,3,4,5,1,0,0,250.0,test,5,M
490.373134613,5,1000,2,1,2,3,4,5,1,0,0,250.0,test,5,M
698.421955109,1,1000,5,1,2,3,4,5,1,0,0,250.0,test,1,M
554.323911667,2,1000,1,1,2,3,4,5,1,0,0,250.0,test,2,M
506.309986115,2,1000,1,1,2,3,4,5,1,0,0,250.0,test,2,M
442.318916321,2,1000,1,1,2,3,4,5,1,0,0,250.0,test,2,M
362.248897552,2,1000,1,1,2,3,4,5,1,0,0,250.0,test,2,M
491.739988327,3,1000,0,1,2,3,4,5,1,0,0,250.0,test,3,M
522.314071655,5,1000,2,1,2,3,4,5,1,0,0,250.0,test,5,M
602.300167084,0,1000,4,1,2,3,4,5,1,0,0,250.0,test,0,M
970.360994339,4,1000,3,1,2,3,4,5,1,0,0,250.0,test,4,M
490.416049957,5,1000,2,1,2,3,4,5,1,0,0,250.0,test,5,M
554.404973984,0,1000,4,0,2,3,4,5,1,0,0,250.0,test,2,M
650.332927704,3,1000,0,1,2,3,4,5,1,0,0,250.0,test,3,M
571.762084961,1,1000,5,1,2,3,4,5,1,0,0,250.0,test,1,M
538.293123245,5,1000,2,1,2,3,4,5,1,0,0,250.0,test,5,M
426.295995712,1,1000,5,1,2,3,4,5,1,0,0,250.0,test,1,M
1386.36898994,3,1000,0,1,2,3,4,5,1,0,0,250.0,test,3,M
475.579977036,5,1000,2,1,2,3,4,5,1,0,0,250.0,test,5,M
539.558172226,2,1000,1,1,2,3,4,5,1,0,0,250.0,test,2,M
986.330032349,3,1000,0,1,2,3,4,5,1,0,0,250.0,test,3,M
666.182041168,4,1000,3,1,2,3,4,5,1,0,0,250.0,test,4,M
666.170835495,4,1000,3,1,2,3,4,5,1,0,0,250.0,test,4,M
762.265205383,3,1000,0,1,2,3,4,5,1,0,0,250.0,test,3,M
475.697994232,3,1000,0,1,2,3,4,5,1,0,0,250.0,test,3,M
410.305976868,3,1000,0,1,2,3,4,5,1,0,0,250.0,test,3,M
459.839105606,4,1000,3,1,2,3,4,5,1,0,0,250.0,test,4,M
346.339941025,4,1000,3,1,2,3,4,5,1,0,0,250.0,test,4,M
539.780139923,3,1000,0,1,2,3,4,5,1,0,0,250.0,test,3,M
586.236953735,2,1000,1,1,2,3,4,5,1,0,0,250.0,test,2,M
539.839982986,5,1000,2,1,2,3,4,5,1,0,0,250.0,test,5,M
554.350852966,4,1000,3,1,2,3,4,5,1,0,0,250.0,test,4,M
859.76600647,0,1000,4,1,2,3,4,5,1,0,0,250.0,test,0,M
522.37701416,3,1000,0,1,2,3,4,5,1,0,0,250.0,test,3,M
506.37793541,5,1000,2,1,2,3,4,5,1,0,0,250.0,test,5,M
362.283229828,4,1000,3,1,2,3,4,5,1,0,0,250.0,test,4,M
330.286979675,4,1000,3,1,2,3,4,5,1,0,0,250.0,test,4,M
554.366111755,2,1000,1,1,2,3,4,5,1,0,0,250.0,test,2,M
650.381803513,3,1000,0,1,2,3,4,5,1,0,0,250.0,test,3,M
618.348121643,2,1000,1,1,2,3,4,5,1,0,0,250.0,test,2,M
506.396055222,5,1000,2,1,2,3,4,5,1,0,0,250.0,test,5,M
746.40583992,1,1000,5,1,2,3,4,5,1,0,0,250.0,test,1,M
506.354808807,4,1000,3,1,2,3,4,5,1,0,0,250.0,test,4,M
538.360834122,5,1000,2,0,2,3,4,5,1,0,0,250.0,test,4,M
474.323987961,5,1000,2,1,2,3,4,5,1,0,0,250.0,test,5,M
539.780855179,0,1000,4,1,2,3,4,5,1,0,0,250.0,test,0,M
427.742004395,0,1000,4,1,2,3,4,5,1,0,0,250.0,test,0,M
491.781949997,4,1000,3,1,2,3,4,5,1,0,0,250.0,test,4,M
522.243022919,5,1000,2,1,2,3,4,5,1,0,0,250.0,test,5,M
859.773159027,3,1000,0,1,2,3,4,5,1,0,0,250.0,test,3,M
362.873077393,4,1000,3,1,2,3,4,5,1,0,0,250.0,test,4,M
443.62282753,4,1000,3,1,2,3,4,5,1,0,0,250.0,test,4,M
569.797992706,0,1000,4,1,2,3,4,5,1,0,0,250.0,test,0,M
363.565921783,1,1000,5,1,2,3,4,5,1,0,0,250.0,test,1,M
586.935043335,3,1000,0,1,2,3,4,5,1,0,0,250.0,test,3,M
506.239891052,5,1000,2,1,2,3,4,5,1,0,0,250.0,test,5,M
506.88290596,4,1000,3,1,2,3,4,5,1,0,0,250.0,test,4,M
603.78909111,0,1000,4,1,2,3,4,5,1,0,0,250.0,test,0,M
586.405992508,2,1000,1,1,2,3,4,5,1,0,0,250.0,test,2,M
491.801977158,5,1000,2,1,2,3,4,5,1,0,0,250.0,test,5,M
619.783878326,0,1000,4,1,2,3,4,5,1,0,0,250.0,test,0,M
938.329935074,4,1000,3,1,2,3,4,5,1,0,0,250.0,test,4,M
522.881031036,2,1000,1,1,2,3,4,5,1,0,0,250.0,test,2,M
603.72710228,3,1000,0,0,2,3,4,5,1,0,0,250.0,test,4,M
586.359977722,2,1000,1,1,2,3,4,5,1,0,0,250.0,test,2,M
474.248170853,5,1000,2,1,2,3,4,5,1,0,0,250.0,test,5,M
490.311145782,2,1000,1,1,2,3,4,5,1,0,0,250.0,test,2,M
410.385131836,5,1000,2,1,2,3,4,5,1,0,0,250.0,test,5,M
490.329027176,2,1000,1,1,2,3,4,5,1,0,0,250.0,test,2,M
538.378000259,0,1000,4,1,2,3,4,5,1,0,0,250.0,test,0,M
410.274982452,0,1000,4,1,2,3,4,5,1,0,0,250.0,test,0,M
554.327011108,2,1000,1,1,2,3,4,5,1,0,0,250.0,test,2,M
522.33505249,4,1000,3,1,2,3,4,5,1,0,0,250.0,test,4,M
490.411996841,2,1000,1,1,2,3,4,5,1,0,0,250.0,test,2,M
474.230051041,4,1000,3,1,2,3,4,5,1,0,0,250.0,test,4,M
538.2771492,3,1000,0,0,2,3,4,5,1,0,0,250.0,test,2,M
682.336807251,1,1000,5,1,2,3,4,5,1,0,0,250.0,test,1,M
570.975065231,4,1000,3,1,2,3,4,5,1,0,0,250.0,test,4,M
635.797977448,0,1000,4,1,2,3,4,5,1,0,0,250.0,test,0,M
538.336038589,5,1000,2,1,2,3,4,5,1,0,0,250.0,test,5,M
522.294998169,5,1000,2,1,2,3,4,5,1,0,0,250.0,test,5,M
507.777929306,1,1000,5,1,2,3,4,5,1,0,0,250.0,test,1,M
507.776021957,4,1000,3,1,2,3,4,5,1,0,0,250.0,test,4,M
