RT,correct_response,ms-prestimblank,curstim,correct,SRmap_1,SRmap_0,SRmap_3,SRmap_2,SRmap_5,SRmap_4,ms-precue,ntrials,type,response,condition
10847.4638462,3,1000,2,0,4,2,5,3,1,0,0,250.0,train,0,H+
2640.01202583,1,1000,5,1,4,2,5,3,1,0,0,250.0,train,1,H+
11103.7180424,5,1000,3,0,4,2,5,3,1,0,0,250.0,train,4,H+
2112.1571064,3,1000,2,1,4,2,5,3,1,0,0,250.0,train,3,H+
1519.9611187,1,1000,5,1,4,2,5,3,1,0,0,250.0,train,1,H+
1232.24592209,1,1000,5,1,4,2,5,3,1,0,0,250.0,train,1,H+
816.329956055,1,1000,5,1,4,2,5,3,1,0,0,250.0,train,1,H+
2208.28795433,0,1000,4,1,4,2,5,3,1,0,0,250.0,train,0,H+
1855.34501076,3,1000,2,1,4,2,5,3,1,0,0,250.0,train,3,H+
2143.95403862,4,1000,1,1,4,2,5,3,1,0,0,250.0,train,4,H+
2143.89896393,2,1000,0,1,4,2,5,3,1,0,0,250.0,train,2,H+
784.235954285,1,1000,5,1,4,2,5,3,1,0,0,250.0,train,1,H+
1983.89697075,4,1000,1,1,4,2,5,3,1,0,0,250.0,train,4,H+
8511.94596291,5,1000,3,1,4,2,5,3,1,0,0,250.0,train,5,H+
2928.17902565,2,1000,0,1,4,2,5,3,1,0,0,250.0,train,2,H+
2368.25013161,4,1000,1,1,4,2,5,3,1,0,0,250.0,train,4,H+
2144.20294762,5,1000,3,1,4,2,5,3,1,0,0,250.0,train,5,H+
736.28616333,1,1000,5,1,4,2,5,3,1,0,0,250.0,train,1,H+
816.154956818,5,1000,3,0,4,2,5,3,1,0,0,250.0,train,4,H+
1696.31195068,3,1000,2,1,4,2,5,3,1,0,0,250.0,train,3,H+
1472.22113609,4,1000,1,1,4,2,5,3,1,0,0,250.0,train,4,H+
1184.31401253,3,1000,2,1,4,2,5,3,1,0,0,250.0,train,3,H+
816.248893738,1,1000,5,1,4,2,5,3,1,0,0,250.0,train,1,H+
1120.25117874,4,1000,1,0,4,2,5,3,1,0,0,250.0,train,5,H+
1040.37284851,0,1000,4,1,4,2,5,3,1,0,0,250.0,train,0,H+
336.366891861,2,1000,0,0,4,2,5,3,1,0,0,250.0,train,1,H+
1376.04594231,0,1000,4,1,4,2,5,3,1,0,0,250.0,train,0,H+
2271.94809914,2,1000,0,1,4,2,5,3,1,0,0,250.0,train,2,H+
1327.62408257,5,1000,3,1,4,2,5,3,1,0,0,250.0,train,5,H+
1632.29584694,5,1000,3,1,4,2,5,3,1,0,0,250.0,train,5,H+
1536.08202934,3,1000,2,0,4,2,5,3,1,0,0,250.0,train,4,H+
2768.09406281,2,1000,0,0,4,2,5,3,1,0,0,250.0,train,1,H+
3071.22302055,2,1000,0,1,4,2,5,3,1,0,0,250.0,train,2,H+
2192.66796112,0,1000,4,1,4,2,5,3,1,0,0,250.0,train,0,H+
1520.1280117,0,1000,4,1,4,2,5,3,1,0,0,250.0,train,0,H+
687.739849091,0,1000,4,1,4,2,5,3,1,0,0,250.0,train,0,H+
832.221984863,0,1000,4,1,4,2,5,3,1,0,0,250.0,train,0,H+
1087.8739357,3,1000,2,1,4,2,5,3,1,0,0,250.0,train,3,H+
1855.66878319,2,1000,0,1,4,2,5,3,1,0,0,250.0,train,2,H+
800.168991089,3,1000,2,0,4,2,5,3,1,0,0,250.0,train,5,H+
1199.41902161,0,1000,4,1,4,2,5,3,1,0,0,250.0,train,0,H+
767.597198486,1,1000,5,1,4,2,5,3,1,0,0,250.0,train,1,H+
576.078891754,0,1000,4,1,4,2,5,3,1,0,0,250.0,train,0,H+
511.430025101,5,1000,3,1,4,2,5,3,1,0,0,250.0,train,5,H+
655.633926392,1,1000,5,1,4,2,5,3,1,0,0,250.0,train,1,H+
992.191076279,3,1000,2,0,4,2,5,3,1,0,0,250.0,train,4,H+
1375.77700615,4,1000,1,0,4,2,5,3,1,0,0,250.0,train,5,H+
575.839996338,4,1000,1,1,4,2,5,3,1,0,0,250.0,train,4,H+
1183.55917931,5,1000,3,1,4,2,5,3,1,0,0,250.0,train,5,H+
560.307025909,0,1000,4,1,4,2,5,3,1,0,0,250.0,train,0,H+
1887.81619072,5,1000,3,1,4,2,5,3,1,0,0,250.0,train,5,H+
1103.54995728,1,1000,5,1,4,2,5,3,1,0,0,250.0,train,1,H+
1311.88893318,2,1000,0,1,4,2,5,3,1,0,0,250.0,train,2,H+
784.376859665,3,1000,2,0,4,2,5,3,1,0,0,250.0,train,4,H+
896.353960037,1,1000,5,1,4,2,5,3,1,0,0,250.0,train,1,H+
3248.29316139,5,1000,3,1,4,2,5,3,1,0,0,250.0,train,5,H+
591.788053513,5,1000,3,1,4,2,5,3,1,0,0,250.0,train,5,H+
863.448858261,1,1000,5,1,4,2,5,3,1,0,0,250.0,train,1,H+
1152.78601646,5,1000,3,1,4,2,5,3,1,0,0,250.0,train,5,H+
1040.817976,3,1000,2,0,4,2,5,3,1,0,0,250.0,train,4,H+
848.310947418,4,1000,1,0,4,2,5,3,1,0,0,250.0,train,5,H+
1504.17804718,2,1000,0,1,4,2,5,3,1,0,0,250.0,train,2,H+
1503.83019447,0,1000,4,1,4,2,5,3,1,0,0,250.0,train,0,H+
5519.37294006,2,1000,0,1,4,2,5,3,1,0,0,250.0,train,2,H+
911.660909653,3,1000,2,1,4,2,5,3,1,0,0,250.0,train,3,H+
703.923940659,1,1000,5,1,4,2,5,3,1,0,0,250.0,train,1,H+
911.92483902,5,1000,3,1,4,2,5,3,1,0,0,250.0,train,5,H+
1232.24210739,2,1000,0,1,4,2,5,3,1,0,0,250.0,train,2,H+
959.967136383,4,1000,1,1,4,2,5,3,1,0,0,250.0,train,4,H+
1136.77310944,5,1000,3,1,4,2,5,3,1,0,0,250.0,train,5,H+
1776.21984482,3,1000,2,0,4,2,5,3,1,0,0,250.0,train,2,H+
816.216945648,1,1000,5,1,4,2,5,3,1,0,0,250.0,train,1,H+
1647.71795273,2,1000,0,0,4,2,5,3,1,0,0,250.0,train,1,H+
779.11901474,5,1000,3,1,4,2,5,3,1,0,0,250.0,train,5,H+
816.380977631,3,1000,2,0,4,2,5,3,1,0,0,250.0,train,2,H+
1216.32003784,0,1000,4,1,4,2,5,3,1,0,0,250.0,train,0,H+
752.265930176,0,1000,4,1,4,2,5,3,1,0,0,250.0,train,0,H+
784.166097641,5,1000,3,1,4,2,5,3,1,0,0,250.0,train,5,H+
704.216003418,4,1000,1,1,4,2,5,3,1,0,0,250.0,train,4,H+
927.802085876,1,1000,5,1,4,2,5,3,1,0,0,250.0,train,1,H+
351.781129837,3,1000,2,1,4,2,5,3,1,0,0,250.0,train,3,H+
399.824142456,1,1000,5,1,4,2,5,3,1,0,0,250.0,train,1,H+
688.409090042,1,1000,5,1,4,2,5,3,1,0,0,250.0,train,1,H+
592.285871506,0,1000,4,1,4,2,5,3,1,0,0,250.0,train,0,H+
496.801137924,5,1000,3,1,4,2,5,3,1,0,0,250.0,train,5,H+
640.730857849,1,1000,5,1,4,2,5,3,1,0,0,250.0,train,1,H+
607.586145401,1,1000,5,1,4,2,5,3,1,0,0,250.0,train,1,H+
1024.19400215,4,1000,1,1,4,2,5,3,1,0,0,250.0,train,4,H+
895.701169968,2,1000,0,0,4,2,5,3,1,0,0,250.0,train,1,H+
2415.44103622,5,1000,3,1,4,2,5,3,1,0,0,250.0,train,5,H+
383.576154709,3,1000,2,1,4,2,5,3,1,0,0,250.0,train,3,H+
799.829006195,4,1000,1,1,4,2,5,3,1,0,0,250.0,train,4,H+
415.719985962,3,1000,2,1,4,2,5,3,1,0,0,250.0,train,3,H+
511.924982071,1,1000,5,1,4,2,5,3,1,0,0,250.0,train,1,H+
351.947069168,2,1000,0,0,4,2,5,3,1,0,0,250.0,train,0,H+
511.714935303,3,1000,2,1,4,2,5,3,1,0,0,250.0,train,3,H+
367.938995361,5,1000,3,0,4,2,5,3,1,0,0,250.0,train,1,H+
383.656024933,3,1000,2,1,4,2,5,3,1,0,0,250.0,train,3,H+
480.612039566,3,1000,2,1,4,2,5,3,1,0,0,250.0,train,3,H+
1088.40417862,4,1000,1,1,4,2,5,3,1,0,0,250.0,train,4,H+
1184.50188637,2,1000,0,1,4,2,5,3,1,0,0,250.0,train,2,H+
528.074026108,2,1000,0,1,4,2,5,3,1,0,0,250.0,train,2,H+
1136.2760067,5,1000,3,1,4,2,5,3,1,0,0,250.0,train,5,H+
704.3800354,4,1000,1,1,4,2,5,3,1,0,0,250.0,train,4,H+
256.299972534,3,1000,2,1,4,2,5,3,1,0,0,250.0,train,3,H+
559.892892838,2,1000,0,1,4,2,5,3,1,0,0,250.0,train,2,H+
544.203996658,1,1000,5,0,4,2,5,3,1,0,0,250.0,train,0,H+
671.797037125,5,1000,3,1,4,2,5,3,1,0,0,250.0,train,5,H+
495.717048645,3,1000,2,0,4,2,5,3,1,0,0,250.0,train,4,H+
1599.71284866,0,1000,4,1,4,2,5,3,1,0,0,250.0,train,0,H+
672.196149826,2,1000,0,0,4,2,5,3,1,0,0,250.0,train,1,H+
544.224977493,2,1000,0,0,4,2,5,3,1,0,0,250.0,train,1,H+
912.159919739,5,1000,3,1,4,2,5,3,1,0,0,250.0,train,5,H+
2319.59700584,1,1000,5,1,4,2,5,3,1,0,0,250.0,train,1,H+
688.114881516,0,1000,4,1,4,2,5,3,1,0,0,250.0,train,0,H+
2048.34914207,1,1000,5,1,4,2,5,3,1,0,0,250.0,train,1,H+
799.692869186,0,1000,4,1,4,2,5,3,1,0,0,250.0,train,0,H+
1104.2470932,3,1000,2,1,4,2,5,3,1,0,0,250.0,train,3,H+
767.85492897,0,1000,4,1,4,2,5,3,1,0,0,250.0,train,0,H+
607.338905334,0,1000,4,1,4,2,5,3,1,0,0,250.0,train,0,H+
1535.41278839,5,1000,3,1,4,2,5,3,1,0,0,250.0,train,5,H+
1136.11793518,1,1000,5,1,4,2,5,3,1,0,0,250.0,train,1,H+
959.091901779,2,1000,0,1,4,2,5,3,1,0,0,250.0,train,2,H+
815.682172775,0,1000,4,1,4,2,5,3,1,0,0,250.0,train,0,H+
991.746902466,3,1000,2,1,4,2,5,3,1,0,0,250.0,train,3,H+
703.528165817,1,1000,5,1,4,2,5,3,1,0,0,250.0,train,1,H+
831.759929657,5,1000,3,1,4,2,5,3,1,0,0,250.0,train,5,H+
976.040124893,2,1000,0,1,4,2,5,3,1,0,0,250.0,train,2,H+
944.005966187,0,1000,4,1,4,2,5,3,1,0,0,250.0,train,0,H+
591.891765594,3,1000,2,1,4,2,5,3,1,0,0,250.0,train,3,H+
800.631999969,4,1000,1,0,4,2,5,3,1,0,0,250.0,train,5,H+
719.825029373,4,1000,1,1,4,2,5,3,1,0,0,250.0,train,4,H+
608.132123947,1,1000,5,1,4,2,5,3,1,0,0,250.0,train,1,H+
463.915109634,0,1000,4,1,4,2,5,3,1,0,0,250.0,train,0,H+
543.894052505,0,1000,4,1,4,2,5,3,1,0,0,250.0,train,0,H+
543.810844421,3,1000,2,1,4,2,5,3,1,0,0,250.0,train,3,H+
960.336923599,2,1000,0,1,4,2,5,3,1,0,0,250.0,train,2,H+
672.379970551,4,1000,1,1,4,2,5,3,1,0,0,250.0,train,4,H+
384.171962738,1,1000,5,1,4,2,5,3,1,0,0,250.0,train,1,H+
736.274957657,4,1000,1,1,4,2,5,3,1,0,0,250.0,train,4,H+
559.964895248,2,1000,0,0,4,2,5,3,1,0,0,250.0,train,0,H+
560.244083405,3,1000,2,1,4,2,5,3,1,0,0,250.0,train,3,H+
624.281167984,4,1000,1,1,4,2,5,3,1,0,0,250.0,train,4,H+
512.687921524,3,1000,2,1,4,2,5,3,1,0,0,250.0,train,3,H+
992.24615097,2,1000,0,1,4,2,5,3,1,0,0,250.0,train,2,H+
751.864910126,2,1000,0,1,4,2,5,3,1,0,0,250.0,train,2,H+
560.371875763,2,1000,0,1,4,2,5,3,1,0,0,250.0,train,2,H+
2448.22692871,1,1000,5,1,4,2,5,3,1,0,0,250.0,train,1,H+
847.754001617,2,1000,0,1,4,2,5,3,1,0,0,250.0,train,2,H+
720.157146454,3,1000,2,1,4,2,5,3,1,0,0,250.0,train,3,H+
528.241872787,0,1000,4,1,4,2,5,3,1,0,0,250.0,train,0,H+
496.684074402,5,1000,3,1,4,2,5,3,1,0,0,250.0,train,5,H+
784.31391716,1,1000,5,1,4,2,5,3,1,0,0,250.0,train,1,H+
688.211917877,5,1000,3,1,4,2,5,3,1,0,0,250.0,train,5,H+
528.387069702,2,1000,0,1,4,2,5,3,1,0,0,250.0,train,2,H+
575.766086578,5,1000,3,1,4,2,5,3,1,0,0,250.0,train,5,H+
528.674840927,3,1000,2,1,4,2,5,3,1,0,0,250.0,train,3,H+
464.236021042,3,1000,2,1,4,2,5,3,1,0,0,250.0,train,3,H+
736.266136169,1,1000,5,0,4,2,5,3,1,0,0,250.0,train,2,H+
512.245178223,1,1000,5,0,4,2,5,3,1,0,0,250.0,train,2,H+
608.340024948,0,1000,4,1,4,2,5,3,1,0,0,250.0,train,0,H+
704.238891602,1,1000,5,1,4,2,5,3,1,0,0,250.0,train,1,H+
719.955921173,5,1000,3,1,4,2,5,3,1,0,0,250.0,train,5,H+
1071.94185257,5,1000,3,1,4,2,5,3,1,0,0,250.0,train,5,H+
703.888893127,4,1000,1,1,4,2,5,3,1,0,0,250.0,train,4,H+
640.686035156,2,1000,0,0,4,2,5,3,1,0,0,250.0,train,0,H+
511.750221252,3,1000,2,1,4,2,5,3,1,0,0,250.0,train,3,H+
479.867935181,3,1000,2,1,4,2,5,3,1,0,0,250.0,train,3,H+
480.240821838,5,1000,3,1,4,2,5,3,1,0,0,250.0,train,5,H+
703.768968582,1,1000,5,1,4,2,5,3,1,0,0,250.0,train,1,H+
927.813053131,2,1000,0,1,4,2,5,3,1,0,0,250.0,train,2,H+
671.848058701,4,1000,1,1,4,2,5,3,1,0,0,250.0,train,4,H+
207.981824875,1,1000,5,0,4,2,5,3,1,0,0,250.0,train,3,H+
143.682956696,1,1000,5,0,4,2,5,3,1,0,0,250.0,train,3,H+
79.6859264374,5,1000,3,0,4,2,5,3,1,0,0,250.0,train,3,H+
639.738798141,4,1000,1,1,4,2,5,3,1,0,0,250.0,train,4,H+
31.998872757,5,1000,3,0,4,2,5,3,1,0,0,250.0,train,3,H+
175.827980042,5,1000,3,0,4,2,5,3,1,0,0,250.0,train,3,H+
575.892210007,0,1000,4,1,4,2,5,3,1,0,0,250.0,train,0,H+
671.923160553,0,1000,4,1,4,2,5,3,1,0,0,250.0,train,0,H+
607.717990875,4,1000,1,1,4,2,5,3,1,0,0,250.0,train,4,H+
447.698116302,3,1000,2,0,4,2,5,3,1,0,0,250.0,train,4,H+
703.763008118,1,1000,5,1,4,2,5,3,1,0,0,250.0,train,1,H+
527.635097504,2,1000,0,0,4,2,5,3,1,0,0,250.0,train,0,H+
479.804039001,3,1000,2,1,4,2,5,3,1,0,0,250.0,train,3,H+
672.593832016,1,1000,5,1,4,2,5,3,1,0,0,250.0,train,1,H+
480.37314415,3,1000,2,1,4,2,5,3,1,0,0,250.0,train,3,H+
1216.23897552,2,1000,0,1,4,2,5,3,1,0,0,250.0,train,2,H+
576.383113861,2,1000,0,1,4,2,5,3,1,0,0,250.0,train,2,H+
576.074123383,1,1000,5,1,4,2,5,3,1,0,0,250.0,train,1,H+
512.005090714,3,1000,2,1,4,2,5,3,1,0,0,250.0,train,3,H+
623.776912689,0,1000,4,1,4,2,5,3,1,0,0,250.0,train,0,H+
496.365070343,4,1000,1,1,4,2,5,3,1,0,0,250.0,train,4,H+
560.319900513,5,1000,3,1,4,2,5,3,1,0,0,250.0,train,5,H+
463.932991028,1,1000,5,1,4,2,5,3,1,0,0,250.0,train,1,H+
591.886997223,4,1000,1,1,4,2,5,3,1,0,0,250.0,train,4,H+
623.857021332,5,1000,3,1,4,2,5,3,1,0,0,250.0,train,5,H+
544.368028641,3,1000,2,1,4,2,5,3,1,0,0,250.0,train,3,H+
496.380805969,3,1000,2,1,4,2,5,3,1,0,0,250.0,train,3,H+
528.222084045,0,1000,4,0,4,2,5,3,1,0,0,250.0,train,1,H+
591.631889343,0,1000,4,1,4,2,5,3,1,0,0,250.0,train,0,H+
511.626958847,3,1000,2,1,4,2,5,3,1,0,0,250.0,train,3,H+
559.959888458,3,1000,2,1,4,2,5,3,1,0,0,250.0,train,3,H+
559.818029404,2,1000,0,0,4,2,5,3,1,0,0,250.0,train,0,H+
672.202825546,5,1000,3,1,4,2,5,3,1,0,0,250.0,train,5,H+
575.931072235,0,1000,4,1,4,2,5,3,1,0,0,250.0,train,0,H+
831.758975983,4,1000,1,1,4,2,5,3,1,0,0,250.0,train,4,H+
863.658905029,2,1000,0,1,4,2,5,3,1,0,0,250.0,train,2,H+
416.677951813,3,1000,2,1,4,2,5,3,1,0,0,250.0,train,3,H+
3839.61296082,4,1000,1,1,4,2,5,3,1,0,0,250.0,train,4,H+
671.603918076,4,1000,1,0,4,2,5,3,1,0,0,250.0,train,3,H+
559.672832489,5,1000,3,1,4,2,5,3,1,0,0,250.0,train,5,H+
608.011007309,0,1000,4,1,4,2,5,3,1,0,0,250.0,train,0,H+
639.878988266,2,1000,0,1,4,2,5,3,1,0,0,250.0,train,2,H+
399.913072586,2,1000,0,1,4,2,5,3,1,0,0,250.0,train,2,H+
479.974985123,3,1000,2,1,4,2,5,3,1,0,0,250.0,train,3,H+
1232.66506195,5,1000,3,0,4,2,5,3,1,0,0,250.0,train,4,H+
751.913070679,4,1000,1,1,4,2,5,3,1,0,0,250.0,train,4,H+
576.344966888,4,1000,1,0,4,2,5,3,1,0,0,250.0,train,3,H+
1248.75807762,0,1000,4,1,4,2,5,3,1,0,0,250.0,train,0,H+
607.722043991,4,1000,1,1,4,2,5,3,1,0,0,250.0,train,4,H+
751.754999161,1,1000,5,1,4,2,5,3,1,0,0,250.0,train,1,H+
671.854019165,5,1000,3,1,4,2,5,3,1,0,0,250.0,train,5,H+
527.920007706,5,1000,3,1,4,2,5,3,1,0,0,250.0,train,5,H+
2111.78183556,2,1000,0,1,4,2,5,3,1,0,0,250.0,train,2,H+
495.934009552,0,1000,4,1,4,2,5,3,1,0,0,250.0,train,0,H+
784.359931946,1,1000,5,1,4,2,5,3,1,0,0,250.0,train,1,H+
1344.34008598,4,1000,1,1,4,2,5,3,1,0,0,250.0,train,4,H+
544.245004654,3,1000,2,1,4,2,5,3,1,0,0,250.0,train,3,H+
880.336046219,1,1000,5,1,4,2,5,3,1,0,0,250.0,train,1,H+
719.678878784,0,1000,4,1,4,2,5,3,1,0,0,250.0,train,0,H+
1423.85292053,3,1000,2,1,4,2,5,3,1,0,0,250.0,train,3,H+
1663.65599632,2,1000,0,1,4,2,5,3,1,0,0,250.0,train,2,H+
479.813098907,0,1000,4,1,4,2,5,3,1,0,0,250.0,train,0,H+
511.898994446,0,1000,4,1,4,2,5,3,1,0,0,250.0,train,0,H+
447.999954224,0,1000,4,1,4,2,5,3,1,0,0,250.0,train,0,H+
896.779060364,2,1000,0,1,4,2,5,3,1,0,0,250.0,train,2,H+
720.134973526,2,1000,0,1,4,2,5,3,1,0,0,250.0,train,2,H+
1471.91095352,4,1000,1,1,4,2,5,3,1,0,0,250.0,train,4,H+
560.750007629,3,1000,2,1,4,2,5,3,1,0,0,250.0,train,3,H+
1488.30413818,1,1000,5,1,4,2,5,3,1,0,0,250.0,train,1,H+
608.788967133,2,1000,0,0,4,2,5,3,1,0,0,250.0,train,0,H+
352.295160294,2,1000,0,1,4,2,5,3,1,0,0,250.0,train,2,H+
592.010974884,5,1000,3,1,4,2,5,3,1,0,0,250.0,train,5,H+
447.923898697,3,1000,2,1,4,2,5,3,1,0,0,250.0,train,3,H+
399.708032608,1,1000,5,0,4,2,5,3,1,0,0,250.0,train,4,H+
704.277992249,5,1000,3,1,4,2,5,3,1,0,0,250.0,train,5,H+
544.214963913,0,1000,4,1,4,2,5,3,1,0,0,250.0,train,0,H+
527.729988098,5,1000,3,1,4,2,5,3,1,0,0,250.0,train,5,H+
463.908910751,0,1000,4,1,4,2,5,3,1,0,0,250.0,train,0,H+
720.124959946,2,1000,0,0,4,2,5,3,1,0,0,250.0,test,0,H+
688.248157501,0,1000,4,1,4,2,5,3,1,0,0,250.0,test,0,H+
928.578138351,1,1000,5,1,4,2,5,3,1,0,0,250.0,test,1,H+
736.029863358,0,1000,4,1,4,2,5,3,1,0,0,250.0,test,0,H+
671.600103378,1,1000,5,1,4,2,5,3,1,0,0,250.0,test,1,H+
591.753005981,0,1000,4,1,4,2,5,3,1,0,0,250.0,test,0,H+
751.684904099,5,1000,3,1,4,2,5,3,1,0,0,250.0,test,5,H+
1807.48391151,2,1000,0,1,4,2,5,3,1,0,0,250.0,test,2,H+
655.76004982,0,1000,4,1,4,2,5,3,1,0,0,250.0,test,0,H+
751.881837845,0,1000,4,1,4,2,5,3,1,0,0,250.0,test,0,H+
607.717990875,1,1000,5,1,4,2,5,3,1,0,0,250.0,test,1,H+
1424.08299446,2,1000,0,1,4,2,5,3,1,0,0,250.0,test,2,H+
975.797176361,4,1000,1,0,4,2,5,3,1,0,0,250.0,test,5,H+
735.643148422,5,1000,3,1,4,2,5,3,1,0,0,250.0,test,5,H+
624.727010727,1,1000,5,1,4,2,5,3,1,0,0,250.0,test,1,H+
927.833080292,4,1000,1,1,4,2,5,3,1,0,0,250.0,test,4,H+
559.653997421,1,1000,5,1,4,2,5,3,1,0,0,250.0,test,1,H+
655.136108398,0,1000,4,1,4,2,5,3,1,0,0,250.0,test,0,H+
848.728179932,5,1000,3,1,4,2,5,3,1,0,0,250.0,test,5,H+
1855.64804077,2,1000,0,0,4,2,5,3,1,0,0,250.0,test,1,H+
655.747890472,1,1000,5,1,4,2,5,3,1,0,0,250.0,test,1,H+
559.908151627,2,1000,0,0,4,2,5,3,1,0,0,250.0,test,0,H+
1072.16596603,3,1000,2,1,4,2,5,3,1,0,0,250.0,test,3,H+
543.935060501,5,1000,3,1,4,2,5,3,1,0,0,250.0,test,5,H+
495.559930801,3,1000,2,1,4,2,5,3,1,0,0,250.0,test,3,H+
495.576858521,0,1000,4,1,4,2,5,3,1,0,0,250.0,test,0,H+
495.922088623,0,1000,4,1,4,2,5,3,1,0,0,250.0,test,0,H+
1407.93395042,2,1000,0,1,4,2,5,3,1,0,0,250.0,test,2,H+
512.312889099,3,1000,2,1,4,2,5,3,1,0,0,250.0,test,3,H+
1104.30788994,4,1000,1,1,4,2,5,3,1,0,0,250.0,test,4,H+
783.892154694,0,1000,4,1,4,2,5,3,1,0,0,250.0,test,0,H+
1184.39006805,2,1000,0,1,4,2,5,3,1,0,0,250.0,test,2,H+
2303.76601219,2,1000,0,1,4,2,5,3,1,0,0,250.0,test,2,H+
912.643909454,1,1000,5,1,4,2,5,3,1,0,0,250.0,test,1,H+
576.060056686,3,1000,2,1,4,2,5,3,1,0,0,250.0,test,3,H+
128.502130508,0,1000,4,0,4,2,5,3,1,0,0,250.0,test,4,H+
1103.66892815,4,1000,1,1,4,2,5,3,1,0,0,250.0,test,4,H+
592.401981354,4,1000,1,1,4,2,5,3,1,0,0,250.0,test,4,H+
720.322847366,3,1000,2,1,4,2,5,3,1,0,0,250.0,test,3,H+
1663.79880905,2,1000,0,1,4,2,5,3,1,0,0,250.0,test,2,H+
815.599918365,4,1000,1,1,4,2,5,3,1,0,0,250.0,test,4,H+
527.974128723,1,1000,5,1,4,2,5,3,1,0,0,250.0,test,1,H+
671.874046326,3,1000,2,1,4,2,5,3,1,0,0,250.0,test,3,H+
639.855861664,4,1000,1,1,4,2,5,3,1,0,0,250.0,test,4,H+
687.861919403,0,1000,4,1,4,2,5,3,1,0,0,250.0,test,0,H+
703.833818436,4,1000,1,1,4,2,5,3,1,0,0,250.0,test,4,H+
784.077882767,4,1000,1,1,4,2,5,3,1,0,0,250.0,test,4,H+
1088.01913261,0,1000,4,1,4,2,5,3,1,0,0,250.0,test,0,H+
495.932817459,5,1000,3,1,4,2,5,3,1,0,0,250.0,test,5,H+
736.27281189,1,1000,5,1,4,2,5,3,1,0,0,250.0,test,1,H+
1632.73191452,2,1000,0,1,4,2,5,3,1,0,0,250.0,test,2,H+
864.802837372,0,1000,4,1,4,2,5,3,1,0,0,250.0,test,0,H+
671.947002411,4,1000,1,1,4,2,5,3,1,0,0,250.0,test,4,H+
591.073989868,1,1000,5,1,4,2,5,3,1,0,0,250.0,test,1,H+
480.120897293,1,1000,5,1,4,2,5,3,1,0,0,250.0,test,1,H+
448.559999466,3,1000,2,0,4,2,5,3,1,0,0,250.0,test,4,H+
480.142116547,3,1000,2,1,4,2,5,3,1,0,0,250.0,test,3,H+
527.945041656,0,1000,4,1,4,2,5,3,1,0,0,250.0,test,0,H+
544.206857681,4,1000,1,1,4,2,5,3,1,0,0,250.0,test,4,H+
496.90413475,2,1000,0,0,4,2,5,3,1,0,0,250.0,test,1,H+
544.100046158,5,1000,3,1,4,2,5,3,1,0,0,250.0,test,5,H+
463.865995407,5,1000,3,1,4,2,5,3,1,0,0,250.0,test,5,H+
432.334899902,3,1000,2,1,4,2,5,3,1,0,0,250.0,test,3,H+
656.25,3,1000,2,1,4,2,5,3,1,0,0,250.0,test,3,H+
607.969045639,3,1000,2,1,4,2,5,3,1,0,0,250.0,test,3,H+
0.0569820404053,0,1000,4,0,4,2,5,3,1,0,0,250.0,test,3,H+
783.874988556,2,1000,0,1,4,2,5,3,1,0,0,250.0,test,2,H+
704.339981079,0,1000,4,1,4,2,5,3,1,0,0,250.0,test,0,H+
1136.01708412,2,1000,0,1,4,2,5,3,1,0,0,250.0,test,2,H+
432.453155518,3,1000,2,1,4,2,5,3,1,0,0,250.0,test,3,H+
80.3830623627,3,1000,2,1,4,2,5,3,1,0,0,250.0,test,3,H+
224.197864532,3,1000,2,1,4,2,5,3,1,0,0,250.0,test,3,H+
672.852993011,4,1000,1,1,4,2,5,3,1,0,0,250.0,test,4,H+
1168.23196411,0,1000,4,0,4,2,5,3,1,0,0,250.0,test,2,H+
975.879907608,4,1000,1,1,4,2,5,3,1,0,0,250.0,test,4,H+
32.1238040924,4,1000,1,1,4,2,5,3,1,0,0,250.0,test,4,H+
960.251092911,1,1000,5,1,4,2,5,3,1,0,0,250.0,test,1,H+
1712.3208046,4,1000,1,1,4,2,5,3,1,0,0,250.0,test,4,H+
32.1381092072,5,1000,3,0,4,2,5,3,1,0,0,250.0,test,4,H+
704.220056534,2,1000,0,1,4,2,5,3,1,0,0,250.0,test,2,H+
496.200084686,5,1000,3,1,4,2,5,3,1,0,0,250.0,test,5,H+
576.153993607,0,1000,4,1,4,2,5,3,1,0,0,250.0,test,0,H+
448.190927505,3,1000,2,1,4,2,5,3,1,0,0,250.0,test,3,H+
335.927963257,3,1000,2,1,4,2,5,3,1,0,0,250.0,test,3,H+
384.006977081,3,1000,2,1,4,2,5,3,1,0,0,250.0,test,3,H+
543.525934219,0,1000,4,1,4,2,5,3,1,0,0,250.0,test,0,H+
512.235879898,3,1000,2,1,4,2,5,3,1,0,0,250.0,test,3,H+
656.083106995,3,1000,2,1,4,2,5,3,1,0,0,250.0,test,3,H+
48.5239028931,5,1000,3,0,4,2,5,3,1,0,0,250.0,test,3,H+
704.056978226,2,1000,0,1,4,2,5,3,1,0,0,250.0,test,2,H+
624.814987183,5,1000,3,1,4,2,5,3,1,0,0,250.0,test,5,H+
560.761213303,3,1000,2,1,4,2,5,3,1,0,0,250.0,test,3,H+
1184.09895897,1,1000,5,1,4,2,5,3,1,0,0,250.0,test,1,H+
512.006044388,5,1000,3,1,4,2,5,3,1,0,0,250.0,test,5,H+
560.310840607,0,1000,4,1,4,2,5,3,1,0,0,250.0,test,0,H+
671.638011932,1,1000,5,1,4,2,5,3,1,0,0,250.0,test,1,H+
624.660015106,2,1000,0,1,4,2,5,3,1,0,0,250.0,test,2,H+
591.877937317,4,1000,1,0,4,2,5,3,1,0,0,250.0,test,3,H+
1135.84518433,0,1000,4,1,4,2,5,3,1,0,0,250.0,test,0,H+
496.072053909,3,1000,2,1,4,2,5,3,1,0,0,250.0,test,3,H+
768.31817627,1,1000,5,1,4,2,5,3,1,0,0,250.0,test,1,H+
575.904846191,5,1000,3,1,4,2,5,3,1,0,0,250.0,test,5,H+
383.965015411,3,1000,2,1,4,2,5,3,1,0,0,250.0,test,3,H+
655.753135681,3,1000,2,1,4,2,5,3,1,0,0,250.0,test,3,H+
128.361940384,0,1000,4,0,4,2,5,3,1,0,0,250.0,test,3,H+
559.787034988,0,1000,4,1,4,2,5,3,1,0,0,250.0,test,0,H+
480.226993561,0,1000,4,1,4,2,5,3,1,0,0,250.0,test,0,H+
736.306905746,2,1000,0,1,4,2,5,3,1,0,0,250.0,test,2,H+
0.0660419464111,1,1000,5,0,4,2,5,3,1,0,0,250.0,test,2,H+
672.32298851,2,1000,0,1,4,2,5,3,1,0,0,250.0,test,2,H+
495.895862579,0,1000,4,1,4,2,5,3,1,0,0,250.0,test,0,H+
400.266885757,3,1000,2,1,4,2,5,3,1,0,0,250.0,test,3,H+
15.8231258392,3,1000,2,1,4,2,5,3,1,0,0,250.0,test,3,H+
1008.23807716,2,1000,0,1,4,2,5,3,1,0,0,250.0,test,2,H+
575.940847397,5,1000,3,1,4,2,5,3,1,0,0,250.0,test,5,H+
591.772079468,4,1000,1,1,4,2,5,3,1,0,0,250.0,test,4,H+
736.145973206,4,1000,1,1,4,2,5,3,1,0,0,250.0,test,4,H+
688.383817673,1,1000,5,1,4,2,5,3,1,0,0,250.0,test,1,H+
592.242002487,0,1000,4,1,4,2,5,3,1,0,0,250.0,test,0,H+
832.000017166,4,1000,1,1,4,2,5,3,1,0,0,250.0,test,4,H+
767.546892166,1,1000,5,1,4,2,5,3,1,0,0,250.0,test,1,H+
784.138917923,0,1000,4,1,4,2,5,3,1,0,0,250.0,test,0,H+
575.872898102,2,1000,0,0,4,2,5,3,1,0,0,250.0,test,1,H+
528.06186676,5,1000,3,1,4,2,5,3,1,0,0,250.0,test,5,H+
944.123983383,4,1000,1,1,4,2,5,3,1,0,0,250.0,test,4,H+
480.07106781,0,1000,4,1,4,2,5,3,1,0,0,250.0,test,0,H+
512.700796127,4,1000,1,1,4,2,5,3,1,0,0,250.0,test,4,H+
496.068000793,1,1000,5,1,4,2,5,3,1,0,0,250.0,test,1,H+
464.724779129,4,1000,1,0,4,2,5,3,1,0,0,250.0,test,5,H+
576.743841171,0,1000,4,1,4,2,5,3,1,0,0,250.0,test,0,H+
895.992994308,0,1000,4,1,4,2,5,3,1,0,0,250.0,test,0,H+
1056.24485016,2,1000,0,1,4,2,5,3,1,0,0,250.0,test,2,H+
544.415950775,2,1000,0,1,4,2,5,3,1,0,0,250.0,test,2,H+
591.970205307,5,1000,3,1,4,2,5,3,1,0,0,250.0,test,5,H+
479.905128479,4,1000,1,0,4,2,5,3,1,0,0,250.0,test,5,H+
560.002803802,2,1000,0,1,4,2,5,3,1,0,0,250.0,test,2,H+
1439.55683708,1,1000,5,1,4,2,5,3,1,0,0,250.0,test,1,H+
1728.0819416,2,1000,0,1,4,2,5,3,1,0,0,250.0,test,2,H+
720.046043396,3,1000,2,1,4,2,5,3,1,0,0,250.0,test,3,H+
640.079021454,1,1000,5,1,4,2,5,3,1,0,0,250.0,test,1,H+
576.512098312,4,1000,1,1,4,2,5,3,1,0,0,250.0,test,4,H+
512.201070786,3,1000,2,1,4,2,5,3,1,0,0,250.0,test,3,H+
592.080116272,3,1000,2,1,4,2,5,3,1,0,0,250.0,test,3,H+
576.066970825,2,1000,0,1,4,2,5,3,1,0,0,250.0,test,2,H+
576.236963272,4,1000,1,1,4,2,5,3,1,0,0,250.0,test,4,H+
736.186027527,1,1000,5,1,4,2,5,3,1,0,0,250.0,test,1,H+
432.184934616,1,1000,5,1,4,2,5,3,1,0,0,250.0,test,1,H+
480.051994324,1,1000,5,1,4,2,5,3,1,0,0,250.0,test,1,H+
511.89494133,1,1000,5,1,4,2,5,3,1,0,0,250.0,test,1,H+
511.736869812,0,1000,4,1,4,2,5,3,1,0,0,250.0,test,0,H+
544.178009033,4,1000,1,1,4,2,5,3,1,0,0,250.0,test,4,H+
640.092849731,1,1000,5,1,4,2,5,3,1,0,0,250.0,test,1,H+
432.155847549,3,1000,2,1,4,2,5,3,1,0,0,250.0,test,3,H+
832.165002823,0,1000,4,1,4,2,5,3,1,0,0,250.0,test,0,H+
304.425954819,3,1000,2,1,4,2,5,3,1,0,0,250.0,test,3,H+
624.089002609,0,1000,4,0,4,2,5,3,1,0,0,250.0,test,1,H+
592.654943466,1,1000,5,1,4,2,5,3,1,0,0,250.0,test,1,H+
527.770996094,0,1000,4,1,4,2,5,3,1,0,0,250.0,test,0,H+
512.293100357,3,1000,2,1,4,2,5,3,1,0,0,250.0,test,3,H+
351.633071899,3,1000,2,1,4,2,5,3,1,0,0,250.0,test,3,H+
271.913051605,3,1000,2,1,4,2,5,3,1,0,0,250.0,test,3,H+
271.156072617,5,1000,3,0,4,2,5,3,1,0,0,250.0,test,1,H+
559.520959854,0,1000,4,1,4,2,5,3,1,0,0,250.0,test,0,H+
736.011981964,2,1000,0,0,4,2,5,3,1,0,0,250.0,test,1,H+
464.361906052,3,1000,2,1,4,2,5,3,1,0,0,250.0,test,3,H+
671.840906143,0,1000,4,0,4,2,5,3,1,0,0,250.0,test,1,H+
480.726003647,3,1000,2,1,4,2,5,3,1,0,0,250.0,test,3,H+
496.298074722,5,1000,3,1,4,2,5,3,1,0,0,250.0,test,5,H+
527.981042862,5,1000,3,1,4,2,5,3,1,0,0,250.0,test,5,H+
431.903123856,0,1000,4,1,4,2,5,3,1,0,0,250.0,test,0,H+
559.93103981,4,1000,1,1,4,2,5,3,1,0,0,250.0,test,4,H+
543.848991394,4,1000,1,1,4,2,5,3,1,0,0,250.0,test,4,H+
319.656848907,4,1000,1,1,4,2,5,3,1,0,0,250.0,test,4,H+
495.640993118,1,1000,5,1,4,2,5,3,1,0,0,250.0,test,1,H+
560.845136642,2,1000,0,1,4,2,5,3,1,0,0,250.0,test,2,H+
720.237016678,3,1000,2,1,4,2,5,3,1,0,0,250.0,test,3,H+
160.079956055,4,1000,1,0,4,2,5,3,1,0,0,250.0,test,3,H+
704.332113266,1,1000,5,1,4,2,5,3,1,0,0,250.0,test,1,H+
560.319900513,0,1000,4,1,4,2,5,3,1,0,0,250.0,test,0,H+
592.239141464,4,1000,1,1,4,2,5,3,1,0,0,250.0,test,4,H+
560.00995636,0,1000,4,1,4,2,5,3,1,0,0,250.0,test,0,H+
559.808969498,4,1000,1,1,4,2,5,3,1,0,0,250.0,test,4,H+
560.297966003,0,1000,4,1,4,2,5,3,1,0,0,250.0,test,0,H+
624.253988266,2,1000,0,1,4,2,5,3,1,0,0,250.0,test,2,H+
912.261962891,5,1000,3,1,4,2,5,3,1,0,0,250.0,test,5,H+
543.608903885,3,1000,2,1,4,2,5,3,1,0,0,250.0,test,3,H+
672.250986099,4,1000,1,0,4,2,5,3,1,0,0,250.0,test,5,H+
592.177152634,2,1000,0,1,4,2,5,3,1,0,0,250.0,test,2,H+
496.117115021,4,1000,1,1,4,2,5,3,1,0,0,250.0,test,4,H+
639.867067337,2,1000,0,1,4,2,5,3,1,0,0,250.0,test,2,H+
463.908910751,2,1000,0,1,4,2,5,3,1,0,0,250.0,test,2,H+
799.883127213,4,1000,1,1,4,2,5,3,1,0,0,250.0,test,4,H+
751.569032669,1,1000,5,0,4,2,5,3,1,0,0,250.0,test,2,H+
575.690031052,1,1000,5,0,4,2,5,3,1,0,0,250.0,test,2,H+
479.110002518,1,1000,5,1,4,2,5,3,1,0,0,250.0,test,1,H+
799.855947495,4,1000,1,1,4,2,5,3,1,0,0,250.0,test,4,H+
816.351890564,1,1000,5,0,4,2,5,3,1,0,0,250.0,test,4,H+
464.718103409,1,1000,5,1,4,2,5,3,1,0,0,250.0,test,1,H+
528.349876404,3,1000,2,1,4,2,5,3,1,0,0,250.0,test,3,H+
1664.19506073,4,1000,1,1,4,2,5,3,1,0,0,250.0,test,4,H+
703.848838806,0,1000,4,1,4,2,5,3,1,0,0,250.0,test,0,H+
496.758937836,1,1000,5,1,4,2,5,3,1,0,0,250.0,test,1,H+
496.45113945,3,1000,2,1,4,2,5,3,1,0,0,250.0,test,3,H+
688.452959061,5,1000,3,1,4,2,5,3,1,0,0,250.0,test,5,H+
624.704122543,4,1000,1,1,4,2,5,3,1,0,0,250.0,test,4,H+
736.304044724,2,1000,0,0,4,2,5,3,1,0,0,250.0,test,1,H+
480.345010757,3,1000,2,1,4,2,5,3,1,0,0,250.0,test,3,H+
368.274927139,3,1000,2,1,4,2,5,3,1,0,0,250.0,test,3,H+
1136.50608063,2,1000,0,1,4,2,5,3,1,0,0,250.0,test,2,H+
575.918197632,0,1000,4,1,4,2,5,3,1,0,0,250.0,test,0,H+
591.886997223,2,1000,0,1,4,2,5,3,1,0,0,250.0,test,2,H+
688.069105148,4,1000,1,1,4,2,5,3,1,0,0,250.0,test,4,H+
367.899894714,4,1000,1,1,4,2,5,3,1,0,0,250.0,test,4,H+
640.287876129,4,1000,1,1,4,2,5,3,1,0,0,250.0,test,4,H+
672.420024872,2,1000,0,1,4,2,5,3,1,0,0,250.0,test,2,H+
576.370954514,0,1000,4,1,4,2,5,3,1,0,0,250.0,test,0,H+
495.988130569,4,1000,1,1,4,2,5,3,1,0,0,250.0,test,4,H+
847.754001617,1,1000,5,1,4,2,5,3,1,0,0,250.0,test,1,H+
607.861995697,4,1000,1,0,4,2,5,3,1,0,0,250.0,test,5,H+
719.752788544,5,1000,3,1,4,2,5,3,1,0,0,250.0,test,5,H+
431.890964508,5,1000,3,1,4,2,5,3,1,0,0,250.0,test,5,H+
464.298963547,4,1000,1,1,4,2,5,3,1,0,0,250.0,test,4,H+
704.191923141,3,1000,2,1,4,2,5,3,1,0,0,250.0,test,3,H+
479.651927948,5,1000,3,1,4,2,5,3,1,0,0,250.0,test,5,H+
511.551141739,3,1000,2,1,4,2,5,3,1,0,0,250.0,test,3,H+
896.777868271,0,1000,4,1,4,2,5,3,1,0,0,250.0,test,0,H+
479.754924774,3,1000,2,1,4,2,5,3,1,0,0,250.0,test,3,H+
543.819904327,3,1000,2,1,4,2,5,3,1,0,0,250.0,test,3,H+
847.874879837,1,1000,5,1,4,2,5,3,1,0,0,250.0,test,1,H+
527.737855911,4,1000,1,1,4,2,5,3,1,0,0,250.0,test,4,H+
351.881980896,4,1000,1,1,4,2,5,3,1,0,0,250.0,test,4,H+
767.781972885,1,1000,5,1,4,2,5,3,1,0,0,250.0,test,1,H+
448.68183136,1,1000,5,1,4,2,5,3,1,0,0,250.0,test,1,H+
511.949062347,5,1000,3,1,4,2,5,3,1,0,0,250.0,test,5,H+
367.777824402,5,1000,3,1,4,2,5,3,1,0,0,250.0,test,5,H+
511.866092682,3,1000,2,1,4,2,5,3,1,0,0,250.0,test,3,H+
543.886899948,0,1000,4,1,4,2,5,3,1,0,0,250.0,test,0,H+
1951.64608955,2,1000,0,1,4,2,5,3,1,0,0,250.0,test,2,H+
543.72382164,1,1000,5,0,4,2,5,3,1,0,0,250.0,test,3,H+
543.735980988,5,1000,3,1,4,2,5,3,1,0,0,250.0,test,5,H+
639.878034592,1,1000,5,1,4,2,5,3,1,0,0,250.0,test,1,H+
479.732036591,1,1000,5,1,4,2,5,3,1,0,0,250.0,test,1,H+
831.708192825,2,1000,0,0,4,2,5,3,1,0,0,250.0,test,1,H+
543.677091599,2,1000,0,1,4,2,5,3,1,0,0,250.0,test,2,H+
511.918067932,0,1000,4,1,4,2,5,3,1,0,0,250.0,test,0,H+
448.235034943,3,1000,2,1,4,2,5,3,1,0,0,250.0,test,3,H+
463.809013367,0,1000,4,1,4,2,5,3,1,0,0,250.0,test,0,H+
544.42191124,0,1000,4,1,4,2,5,3,1,0,0,250.0,test,0,H+
416.511058807,3,1000,2,1,4,2,5,3,1,0,0,250.0,test,3,H+
527.884960175,4,1000,1,1,4,2,5,3,1,0,0,250.0,test,4,H+
