RT,correct_response,ms-prestimblank,curstim,correct,SRmap_1,SRmap_0,SRmap_3,SRmap_2,SRmap_5,SRmap_4,ms-precue,ntrials,type,response,condition
5609.86995697,0,1000,4,1,1,4,3,5,2,0,0,250.0,train,0,H-
4138.38386536,3,1000,3,1,1,4,3,5,2,0,0,250.0,train,3,H-
2394.40107346,4,1000,0,0,1,4,3,5,2,0,0,250.0,train,5,H-
2234.36999321,1,1000,1,1,1,4,3,5,2,0,0,250.0,train,1,H-
3227.8470993,5,1000,2,1,1,4,3,5,2,0,0,250.0,train,5,H-
1914.34001923,1,1000,1,1,1,4,3,5,2,0,0,250.0,train,1,H-
1370.35107613,1,1000,1,1,1,4,3,5,2,0,0,250.0,train,1,H-
1066.25294685,1,1000,1,1,1,4,3,5,2,0,0,250.0,train,1,H-
1226.32884979,2,1000,5,1,1,4,3,5,2,0,0,250.0,train,2,H-
1434.41081047,5,1000,2,1,1,4,3,5,2,0,0,250.0,train,5,H-
2043.16210747,4,1000,0,1,1,4,3,5,2,0,0,250.0,train,4,H-
922.400951385,3,1000,3,1,1,4,3,5,2,0,0,250.0,train,3,H-
507.754087448,3,1000,3,1,1,4,3,5,2,0,0,250.0,train,3,H-
1802.37221718,4,1000,0,1,1,4,3,5,2,0,0,250.0,train,4,H-
1754.45413589,5,1000,2,1,1,4,3,5,2,0,0,250.0,train,5,H-
2090.42406082,4,1000,0,1,1,4,3,5,2,0,0,250.0,train,4,H-
1642.41981506,2,1000,5,1,1,4,3,5,2,0,0,250.0,train,2,H-
1034.37304497,1,1000,1,0,1,4,3,5,2,0,0,250.0,train,5,H-
1146.38113976,3,1000,3,1,1,4,3,5,2,0,0,250.0,train,3,H-
907.141923904,3,1000,3,1,1,4,3,5,2,0,0,250.0,train,3,H-
410.357952118,3,1000,3,1,1,4,3,5,2,0,0,250.0,train,3,H-
458.339929581,3,1000,3,1,1,4,3,5,2,0,0,250.0,train,3,H-
1258.35990906,5,1000,2,1,1,4,3,5,2,0,0,250.0,train,5,H-
2122.43390083,2,1000,5,1,1,4,3,5,2,0,0,250.0,train,2,H-
683.809041977,3,1000,3,1,1,4,3,5,2,0,0,250.0,train,3,H-
1019.7789669,2,1000,5,0,1,4,3,5,2,0,0,250.0,train,1,H-
2874.45092201,0,1000,4,1,1,4,3,5,2,0,0,250.0,train,0,H-
938.302993774,5,1000,2,1,1,4,3,5,2,0,0,250.0,train,5,H-
1339.65706825,2,1000,5,1,1,4,3,5,2,0,0,250.0,train,2,H-
1226.45497322,2,1000,5,1,1,4,3,5,2,0,0,250.0,train,2,H-
794.422864914,3,1000,3,1,1,4,3,5,2,0,0,250.0,train,3,H-
1626.36303902,4,1000,0,1,1,4,3,5,2,0,0,250.0,train,4,H-
922.361850739,5,1000,2,1,1,4,3,5,2,0,0,250.0,train,5,H-
1066.39194489,1,1000,1,1,1,4,3,5,2,0,0,250.0,train,1,H-
2219.20609474,4,1000,0,1,1,4,3,5,2,0,0,250.0,train,4,H-
619.826078415,3,1000,3,1,1,4,3,5,2,0,0,250.0,train,3,H-
874.305009842,5,1000,2,1,1,4,3,5,2,0,0,250.0,train,5,H-
1514.4200325,2,1000,5,1,1,4,3,5,2,0,0,250.0,train,2,H-
1611.86218262,0,1000,4,1,1,4,3,5,2,0,0,250.0,train,0,H-
682.345151901,0,1000,4,1,1,4,3,5,2,0,0,250.0,train,0,H-
763.1919384,3,1000,3,1,1,4,3,5,2,0,0,250.0,train,3,H-
970.438957214,0,1000,4,1,1,4,3,5,2,0,0,250.0,train,0,H-
394.368171692,0,1000,4,1,1,4,3,5,2,0,0,250.0,train,0,H-
538.244962692,3,1000,3,1,1,4,3,5,2,0,0,250.0,train,3,H-
571.736812592,5,1000,2,1,1,4,3,5,2,0,0,250.0,train,5,H-
618.469953537,5,1000,2,1,1,4,3,5,2,0,0,250.0,train,5,H-
410.314083099,5,1000,2,1,1,4,3,5,2,0,0,250.0,train,5,H-
1435.81604958,0,1000,4,1,1,4,3,5,2,0,0,250.0,train,0,H-
811.820983887,1,1000,1,0,1,4,3,5,2,0,0,250.0,train,5,H-
650.301218033,5,1000,2,1,1,4,3,5,2,0,0,250.0,train,5,H-
826.308012009,2,1000,5,0,1,4,3,5,2,0,0,250.0,train,1,H-
634.308099747,3,1000,3,1,1,4,3,5,2,0,0,250.0,train,3,H-
2010.43915749,1,1000,1,1,1,4,3,5,2,0,0,250.0,train,1,H-
1178.37715149,5,1000,2,1,1,4,3,5,2,0,0,250.0,train,5,H-
842.354059219,1,1000,1,0,1,4,3,5,2,0,0,250.0,train,0,H-
1658.34903717,4,1000,0,1,1,4,3,5,2,0,0,250.0,train,4,H-
666.34106636,5,1000,2,1,1,4,3,5,2,0,0,250.0,train,5,H-
1146.40712738,1,1000,1,1,1,4,3,5,2,0,0,250.0,train,1,H-
1930.39107323,4,1000,0,1,1,4,3,5,2,0,0,250.0,train,4,H-
634.369134903,3,1000,3,1,1,4,3,5,2,0,0,250.0,train,3,H-
1386.3260746,2,1000,5,1,1,4,3,5,2,0,0,250.0,train,2,H-
1738.44003677,4,1000,0,1,1,4,3,5,2,0,0,250.0,train,4,H-
362.404108047,4,1000,0,1,1,4,3,5,2,0,0,250.0,train,4,H-
522.250890732,3,1000,3,1,1,4,3,5,2,0,0,250.0,train,3,H-
634.42492485,4,1000,0,1,1,4,3,5,2,0,0,250.0,train,4,H-
442.249059677,5,1000,2,1,1,4,3,5,2,0,0,250.0,train,5,H-
1034.18803215,2,1000,5,1,1,4,3,5,2,0,0,250.0,train,2,H-
586.384057999,1,1000,1,0,1,4,3,5,2,0,0,250.0,train,5,H-
730.590105057,1,1000,1,1,1,4,3,5,2,0,0,250.0,train,1,H-
906.419992447,0,1000,4,0,1,4,3,5,2,0,0,250.0,train,4,H-
1210.99090576,2,1000,5,0,1,4,3,5,2,0,0,250.0,train,1,H-
1083.77695084,5,1000,2,1,1,4,3,5,2,0,0,250.0,train,5,H-
603.84106636,3,1000,3,1,1,4,3,5,2,0,0,250.0,train,3,H-
538.36107254,5,1000,2,1,1,4,3,5,2,0,0,250.0,train,5,H-
490.272045135,3,1000,3,1,1,4,3,5,2,0,0,250.0,train,3,H-
362.223863602,3,1000,3,1,1,4,3,5,2,0,0,250.0,train,3,H-
955.116987228,0,1000,4,1,1,4,3,5,2,0,0,250.0,train,0,H-
426.327943802,0,1000,4,1,1,4,3,5,2,0,0,250.0,train,0,H-
794.29602623,1,1000,1,0,1,4,3,5,2,0,0,250.0,train,5,H-
602.220058441,5,1000,2,1,1,4,3,5,2,0,0,250.0,train,5,H-
859.802961349,4,1000,0,1,1,4,3,5,2,0,0,250.0,train,4,H-
379.82416153,4,1000,0,1,1,4,3,5,2,0,0,250.0,train,4,H-
555.786132812,4,1000,0,1,1,4,3,5,2,0,0,250.0,train,4,H-
347.767829895,4,1000,0,1,1,4,3,5,2,0,0,250.0,train,4,H-
282.284021378,4,1000,0,1,1,4,3,5,2,0,0,250.0,train,4,H-
986.467838287,0,1000,4,1,1,4,3,5,2,0,0,250.0,train,0,H-
539.194822311,3,1000,3,1,1,4,3,5,2,0,0,250.0,train,3,H-
905.139923096,4,1000,0,0,1,4,3,5,2,0,0,250.0,train,0,H-
1498.32391739,2,1000,5,1,1,4,3,5,2,0,0,250.0,train,2,H-
602.443933487,3,1000,3,1,1,4,3,5,2,0,0,250.0,train,3,H-
1226.33504868,2,1000,5,1,1,4,3,5,2,0,0,250.0,train,2,H-
954.297065735,1,1000,1,0,1,4,3,5,2,0,0,250.0,train,5,H-
1450.43706894,4,1000,0,1,1,4,3,5,2,0,0,250.0,train,4,H-
1194.31209564,2,1000,5,1,1,4,3,5,2,0,0,250.0,train,2,H-
666.388988495,1,1000,1,0,1,4,3,5,2,0,0,250.0,train,5,H-
1227.76794434,0,1000,4,1,1,4,3,5,2,0,0,250.0,train,0,H-
1099.60794449,0,1000,4,1,1,4,3,5,2,0,0,250.0,train,0,H-
2555.13095856,4,1000,0,1,1,4,3,5,2,0,0,250.0,train,4,H-
634.136915207,3,1000,3,1,1,4,3,5,2,0,0,250.0,train,3,H-
1499.72701073,1,1000,1,0,1,4,3,5,2,0,0,250.0,train,5,H-
938.395023346,0,1000,4,1,1,4,3,5,2,0,0,250.0,train,0,H-
1098.42586517,4,1000,0,0,1,4,3,5,2,0,0,250.0,train,2,H-
1018.42784882,4,1000,0,0,1,4,3,5,2,0,0,250.0,train,2,H-
1418.36094856,0,1000,4,1,1,4,3,5,2,0,0,250.0,train,0,H-
1291.16010666,5,1000,2,1,1,4,3,5,2,0,0,250.0,train,5,H-
617.095947266,3,1000,3,1,1,4,3,5,2,0,0,250.0,train,3,H-
1978.49202156,5,1000,2,1,1,4,3,5,2,0,0,250.0,train,5,H-
891.813993454,4,1000,0,1,1,4,3,5,2,0,0,250.0,train,4,H-
1018.5508728,5,1000,2,1,1,4,3,5,2,0,0,250.0,train,5,H-
537.109136581,5,1000,2,1,1,4,3,5,2,0,0,250.0,train,5,H-
730.399131775,0,1000,4,1,1,4,3,5,2,0,0,250.0,train,0,H-
746.279001236,5,1000,2,1,1,4,3,5,2,0,0,250.0,train,5,H-
890.492916107,4,1000,0,1,1,4,3,5,2,0,0,250.0,train,4,H-
1017.96793938,2,1000,5,1,1,4,3,5,2,0,0,250.0,train,2,H-
1194.42105293,5,1000,2,1,1,4,3,5,2,0,0,250.0,train,5,H-
1514.44196701,0,1000,4,1,1,4,3,5,2,0,0,250.0,train,0,H-
586.47608757,0,1000,4,1,1,4,3,5,2,0,0,250.0,train,0,H-
394.241094589,0,1000,4,1,1,4,3,5,2,0,0,250.0,train,0,H-
346.383810043,0,1000,4,1,1,4,3,5,2,0,0,250.0,train,0,H-
986.434936523,5,1000,2,1,1,4,3,5,2,0,0,250.0,train,5,H-
458.343029022,0,1000,4,0,1,4,3,5,2,0,0,250.0,train,5,H-
1242.374897,2,1000,5,1,1,4,3,5,2,0,0,250.0,train,2,H-
1002.48122215,2,1000,5,1,1,4,3,5,2,0,0,250.0,train,2,H-
539.438009262,2,1000,5,1,1,4,3,5,2,0,0,250.0,train,2,H-
1467.88287163,1,1000,1,0,1,4,3,5,2,0,0,250.0,train,0,H-
715.035915375,3,1000,3,1,1,4,3,5,2,0,0,250.0,train,3,H-
1499.93395805,2,1000,5,1,1,4,3,5,2,0,0,250.0,train,2,H-
1931.81395531,1,1000,1,0,1,4,3,5,2,0,0,250.0,train,0,H-
650.355100632,1,1000,1,1,1,4,3,5,2,0,0,250.0,train,1,H-
571.139097214,3,1000,3,1,1,4,3,5,2,0,0,250.0,train,3,H-
890.402078629,4,1000,0,0,1,4,3,5,2,0,0,250.0,train,2,H-
649.186849594,4,1000,0,1,1,4,3,5,2,0,0,250.0,train,4,H-
1003.13878059,0,1000,4,1,1,4,3,5,2,0,0,250.0,train,0,H-
858.392953873,5,1000,2,1,1,4,3,5,2,0,0,250.0,train,5,H-
1515.77305794,1,1000,1,1,1,4,3,5,2,0,0,250.0,train,1,H-
1465.16513824,2,1000,5,1,1,4,3,5,2,0,0,250.0,train,2,H-
651.825904846,3,1000,3,1,1,4,3,5,2,0,0,250.0,train,3,H-
683.109998703,0,1000,4,1,1,4,3,5,2,0,0,250.0,train,0,H-
826.416969299,5,1000,2,1,1,4,3,5,2,0,0,250.0,train,5,H-
826.406002045,5,1000,2,1,1,4,3,5,2,0,0,250.0,train,5,H-
746.387004852,3,1000,3,1,1,4,3,5,2,0,0,250.0,train,3,H-
1690.51599503,2,1000,5,1,1,4,3,5,2,0,0,250.0,train,2,H-
1546.3078022,1,1000,1,0,1,4,3,5,2,0,0,250.0,train,0,H-
714.325904846,3,1000,3,1,1,4,3,5,2,0,0,250.0,train,3,H-
1610.4528904,1,1000,1,1,1,4,3,5,2,0,0,250.0,train,1,H-
1610.50319672,1,1000,1,1,1,4,3,5,2,0,0,250.0,train,1,H-
1050.48704147,1,1000,1,0,1,4,3,5,2,0,0,250.0,train,5,H-
1114.37892914,2,1000,5,1,1,4,3,5,2,0,0,250.0,train,2,H-
570.331096649,3,1000,3,1,1,4,3,5,2,0,0,250.0,train,3,H-
1578.45401764,4,1000,0,1,1,4,3,5,2,0,0,250.0,train,4,H-
650.238990784,3,1000,3,1,1,4,3,5,2,0,0,250.0,train,3,H-
1083.83703232,5,1000,2,1,1,4,3,5,2,0,0,250.0,train,5,H-
874.388933182,0,1000,4,1,1,4,3,5,2,0,0,250.0,train,0,H-
1147.16815948,1,1000,1,1,1,4,3,5,2,0,0,250.0,train,1,H-
875.705003738,5,1000,2,1,1,4,3,5,2,0,0,250.0,train,5,H-
970.370054245,0,1000,4,1,1,4,3,5,2,0,0,250.0,train,0,H-
1290.36092758,2,1000,5,1,1,4,3,5,2,0,0,250.0,train,2,H-
1434.3829155,1,1000,1,1,1,4,3,5,2,0,0,250.0,train,1,H-
586.418151855,3,1000,3,1,1,4,3,5,2,0,0,250.0,train,3,H-
1034.41214561,2,1000,5,1,1,4,3,5,2,0,0,250.0,train,2,H-
1707.91220665,5,1000,2,1,1,4,3,5,2,0,0,250.0,train,5,H-
1467.2100544,5,1000,2,1,1,4,3,5,2,0,0,250.0,train,5,H-
587.798118591,5,1000,2,1,1,4,3,5,2,0,0,250.0,train,5,H-
1483.91294479,2,1000,5,1,1,4,3,5,2,0,0,250.0,train,2,H-
1721.27008438,4,1000,0,1,1,4,3,5,2,0,0,250.0,train,4,H-
2122.53403664,4,1000,0,1,1,4,3,5,2,0,0,250.0,train,4,H-
2954.55408096,0,1000,4,1,1,4,3,5,2,0,0,250.0,train,0,H-
1243.81494522,5,1000,2,1,1,4,3,5,2,0,0,250.0,train,5,H-
747.188091278,5,1000,2,1,1,4,3,5,2,0,0,250.0,train,5,H-
1594.39992905,4,1000,0,1,1,4,3,5,2,0,0,250.0,train,4,H-
1209.2218399,1,1000,1,1,1,4,3,5,2,0,0,250.0,train,1,H-
2266.45088196,4,1000,0,1,1,4,3,5,2,0,0,250.0,train,4,H-
634.299039841,3,1000,3,1,1,4,3,5,2,0,0,250.0,train,3,H-
1242.48099327,1,1000,1,1,1,4,3,5,2,0,0,250.0,train,1,H-
618.33190918,3,1000,3,1,1,4,3,5,2,0,0,250.0,train,3,H-
890.358924866,2,1000,5,1,1,4,3,5,2,0,0,250.0,train,2,H-
603.181838989,3,1000,3,1,1,4,3,5,2,0,0,250.0,train,3,H-
731.839179993,5,1000,2,1,1,4,3,5,2,0,0,250.0,train,5,H-
602.395057678,3,1000,3,1,1,4,3,5,2,0,0,250.0,train,3,H-
3354.60805893,4,1000,0,1,1,4,3,5,2,0,0,250.0,train,4,H-
2298.44999313,1,1000,1,1,1,4,3,5,2,0,0,250.0,train,1,H-
714.392900467,3,1000,3,1,1,4,3,5,2,0,0,250.0,train,3,H-
1738.44814301,1,1000,1,1,1,4,3,5,2,0,0,250.0,train,1,H-
1050.37617683,5,1000,2,1,1,4,3,5,2,0,0,250.0,train,5,H-
1210.41202545,0,1000,4,1,1,4,3,5,2,0,0,250.0,train,0,H-
1914.33191299,4,1000,0,1,1,4,3,5,2,0,0,250.0,train,4,H-
586.288928986,3,1000,3,1,1,4,3,5,2,0,0,250.0,train,3,H-
1338.49406242,0,1000,4,1,1,4,3,5,2,0,0,250.0,train,0,H-
602.375984192,5,1000,2,1,1,4,3,5,2,0,0,250.0,train,5,H-
491.853952408,3,1000,3,1,1,4,3,5,2,0,0,250.0,train,3,H-
1147.87888527,2,1000,5,1,1,4,3,5,2,0,0,250.0,train,2,H-
1370.36585808,5,1000,2,1,1,4,3,5,2,0,0,250.0,train,5,H-
1962.44812012,4,1000,0,1,1,4,3,5,2,0,0,250.0,train,4,H-
827.054977417,2,1000,5,1,1,4,3,5,2,0,0,250.0,train,2,H-
938.319921494,1,1000,1,1,1,4,3,5,2,0,0,250.0,train,1,H-
1642.38405228,4,1000,0,1,1,4,3,5,2,0,0,250.0,train,4,H-
730.383872986,3,1000,3,1,1,4,3,5,2,0,0,250.0,train,3,H-
1242.3760891,1,1000,1,1,1,4,3,5,2,0,0,250.0,train,1,H-
634.311914444,5,1000,2,1,1,4,3,5,2,0,0,250.0,train,5,H-
554.318189621,3,1000,3,1,1,4,3,5,2,0,0,250.0,train,3,H-
586.490869522,1,1000,1,0,1,4,3,5,2,0,0,250.0,train,5,H-
1418.38479042,1,1000,1,1,1,4,3,5,2,0,0,250.0,train,1,H-
1018.41592789,4,1000,0,0,1,4,3,5,2,0,0,250.0,train,2,H-
1339.41197395,1,1000,1,0,1,4,3,5,2,0,0,250.0,train,0,H-
1627.75707245,4,1000,0,1,1,4,3,5,2,0,0,250.0,train,4,H-
1226.37295723,2,1000,5,1,1,4,3,5,2,0,0,250.0,train,2,H-
778.429985046,2,1000,5,1,1,4,3,5,2,0,0,250.0,train,2,H-
747.808933258,5,1000,2,1,1,4,3,5,2,0,0,250.0,train,5,H-
1067.23499298,4,1000,0,1,1,4,3,5,2,0,0,250.0,train,4,H-
1882.44581223,5,1000,2,1,1,4,3,5,2,0,0,250.0,train,5,H-
1162.40811348,2,1000,5,1,1,4,3,5,2,0,0,250.0,train,2,H-
1434.46111679,5,1000,2,1,1,4,3,5,2,0,0,250.0,train,5,H-
1290.4920578,1,1000,1,1,1,4,3,5,2,0,0,250.0,train,1,H-
746.434926987,5,1000,2,1,1,4,3,5,2,0,0,250.0,train,5,H-
602.403879166,5,1000,2,1,1,4,3,5,2,0,0,250.0,train,5,H-
1098.40798378,2,1000,5,1,1,4,3,5,2,0,0,250.0,train,2,H-
539.811849594,5,1000,2,1,1,4,3,5,2,0,0,250.0,train,5,H-
1642.48204231,2,1000,5,1,1,4,3,5,2,0,0,250.0,train,2,H-
586.34185791,3,1000,3,0,1,4,3,5,2,0,0,250.0,train,4,H-
602.331876755,5,1000,2,1,1,4,3,5,2,0,0,250.0,train,5,H-
1689.12696838,4,1000,0,1,1,4,3,5,2,0,0,250.0,train,4,H-
1162.42003441,0,1000,4,0,1,4,3,5,2,0,0,250.0,train,2,H-
507.19499588,0,1000,4,1,1,4,3,5,2,0,0,250.0,train,0,H-
602.424144745,5,1000,2,1,1,4,3,5,2,0,0,250.0,train,5,H-
1819.24915314,1,1000,1,1,1,4,3,5,2,0,0,250.0,train,1,H-
714.308977127,5,1000,2,1,1,4,3,5,2,0,0,250.0,train,5,H-
954.31303978,2,1000,5,1,1,4,3,5,2,0,0,250.0,train,2,H-
955.257177353,2,1000,5,1,1,4,3,5,2,0,0,250.0,train,2,H-
587.774991989,3,1000,3,1,1,4,3,5,2,0,0,250.0,train,3,H-
970.453023911,2,1000,5,1,1,4,3,5,2,0,0,250.0,train,2,H-
587.819099426,1,1000,1,0,1,4,3,5,2,0,0,250.0,train,5,H-
2138.43107224,5,1000,2,1,1,4,3,5,2,0,0,250.0,train,5,H-
538.465976715,3,1000,3,1,1,4,3,5,2,0,0,250.0,train,3,H-
698.432922363,0,1000,4,1,1,4,3,5,2,0,0,250.0,train,0,H-
842.413187027,4,1000,0,1,1,4,3,5,2,0,0,250.0,train,4,H-
650.389909744,5,1000,2,1,1,4,3,5,2,0,0,250.0,train,5,H-
906.380176544,0,1000,4,1,1,4,3,5,2,0,0,250.0,train,0,H-
1050.3911972,4,1000,0,1,1,4,3,5,2,0,0,250.0,train,4,H-
1130.43093681,2,1000,5,1,1,4,3,5,2,0,0,250.0,train,2,H-
2234.41982269,2,1000,5,1,1,4,3,5,2,0,0,250.0,train,2,H-
1162.40906715,3,1000,3,1,1,4,3,5,2,0,0,250.0,train,3,H-
5306.62488937,2,1000,5,1,1,4,3,5,2,0,0,250.0,train,2,H-
1115.78702927,0,1000,4,1,1,4,3,5,2,0,0,250.0,train,0,H-
634.356021881,3,1000,3,1,1,4,3,5,2,0,0,250.0,train,3,H-
923.24090004,4,1000,0,0,1,4,3,5,2,0,0,250.0,train,2,H-
1642.40288734,0,1000,4,1,1,4,3,5,2,0,0,250.0,train,0,H-
1034.41405296,2,1000,5,1,1,4,3,5,2,0,0,250.0,train,2,H-
730.41009903,0,1000,4,1,1,4,3,5,2,0,0,250.0,train,0,H-
634.456157684,3,1000,3,1,1,4,3,5,2,0,0,250.0,train,3,H-
745.091915131,2,1000,5,1,1,4,3,5,2,0,0,250.0,train,2,H-
1498.3048439,4,1000,3,1,0,2,4,3,5,1,0,250.0,test,4,H-
1770.38002014,0,1000,1,1,0,2,4,3,5,1,0,250.0,test,0,H-
1771.21591568,2,1000,0,1,0,2,4,3,5,1,0,250.0,test,2,H-
1163.71798515,4,1000,3,1,0,2,4,3,5,1,0,250.0,test,4,H-
1642.37689972,0,1000,1,1,0,2,4,3,5,1,0,250.0,test,0,H-
1114.30907249,3,1000,2,1,0,2,4,3,5,1,0,250.0,test,3,H-
1851.76706314,5,1000,5,1,0,2,4,3,5,1,0,250.0,test,5,H-
922.284126282,5,1000,5,1,0,2,4,3,5,1,0,250.0,test,5,H-
730.379104614,4,1000,3,1,0,2,4,3,5,1,0,250.0,test,4,H-
1162.32705116,2,1000,0,0,0,2,4,3,5,1,0,250.0,test,5,H-
874.325990677,4,1000,3,1,0,2,4,3,5,1,0,250.0,test,4,H-
490.303039551,4,1000,3,1,0,2,4,3,5,1,0,250.0,test,4,H-
1210.36505699,5,1000,5,1,0,2,4,3,5,1,0,250.0,test,5,H-
1115.8080101,5,1000,5,1,0,2,4,3,5,1,0,250.0,test,5,H-
1387.81189919,0,1000,1,1,0,2,4,3,5,1,0,250.0,test,0,H-
1626.44791603,1,1000,4,1,0,2,4,3,5,1,0,250.0,test,1,H-
3242.55394936,0,1000,1,1,0,2,4,3,5,1,0,250.0,test,0,H-
507.75718689,0,1000,1,1,0,2,4,3,5,1,0,250.0,test,0,H-
746.387958527,4,1000,3,1,0,2,4,3,5,1,0,250.0,test,4,H-
1354.49004173,3,1000,2,1,0,2,4,3,5,1,0,250.0,test,3,H-
2586.4648819,1,1000,4,1,0,2,4,3,5,1,0,250.0,test,1,H-
1722.44906425,5,1000,5,1,0,2,4,3,5,1,0,250.0,test,5,H-
1595.16000748,2,1000,0,1,0,2,4,3,5,1,0,250.0,test,2,H-
2344.65193748,3,1000,2,1,0,2,4,3,5,1,0,250.0,test,3,H-
1371.83499336,5,1000,5,1,0,2,4,3,5,1,0,250.0,test,5,H-
2010.38098335,1,1000,4,1,0,2,4,3,5,1,0,250.0,test,1,H-
1291.81003571,2,1000,0,1,0,2,4,3,5,1,0,250.0,test,2,H-
2730.34715652,1,1000,4,1,0,2,4,3,5,1,0,250.0,test,1,H-
971.16112709,2,1000,0,1,0,2,4,3,5,1,0,250.0,test,2,H-
1755.63406944,5,1000,5,1,0,2,4,3,5,1,0,250.0,test,5,H-
2506.2289238,5,1000,5,1,0,2,4,3,5,1,0,250.0,test,5,H-
666.389942169,4,1000,3,1,0,2,4,3,5,1,0,250.0,test,4,H-
1162.45603561,5,1000,5,1,0,2,4,3,5,1,0,250.0,test,5,H-
1834.37204361,3,1000,2,1,0,2,4,3,5,1,0,250.0,test,3,H-
650.396823883,5,1000,5,1,0,2,4,3,5,1,0,250.0,test,5,H-
715.774059296,4,1000,3,1,0,2,4,3,5,1,0,250.0,test,4,H-
1579.34403419,1,1000,4,0,0,2,4,3,5,1,0,250.0,test,0,H-
1034.41691399,1,1000,4,1,0,2,4,3,5,1,0,250.0,test,1,H-
906.397104263,4,1000,3,0,0,2,4,3,5,1,0,250.0,test,5,H-
1482.36989975,1,1000,4,1,0,2,4,3,5,1,0,250.0,test,1,H-
618.324995041,4,1000,3,1,0,2,4,3,5,1,0,250.0,test,4,H-
1673.65121841,2,1000,0,1,0,2,4,3,5,1,0,250.0,test,2,H-
634.423017502,2,1000,0,1,0,2,4,3,5,1,0,250.0,test,2,H-
890.45381546,5,1000,5,1,0,2,4,3,5,1,0,250.0,test,5,H-
842.37408638,0,1000,1,1,0,2,4,3,5,1,0,250.0,test,0,H-
714.345932007,4,1000,3,1,0,2,4,3,5,1,0,250.0,test,4,H-
2395.00904083,3,1000,2,1,0,2,4,3,5,1,0,250.0,test,3,H-
1210.38603783,0,1000,1,1,0,2,4,3,5,1,0,250.0,test,0,H-
1610.46910286,3,1000,2,1,0,2,4,3,5,1,0,250.0,test,3,H-
1178.48086357,0,1000,1,1,0,2,4,3,5,1,0,250.0,test,0,H-
1178.42197418,0,1000,1,0,0,2,4,3,5,1,0,250.0,test,5,H-
3978.43003273,1,1000,4,1,0,2,4,3,5,1,0,250.0,test,1,H-
618.330955505,4,1000,3,1,0,2,4,3,5,1,0,250.0,test,4,H-
5019.67906952,3,1000,2,1,0,2,4,3,5,1,0,250.0,test,3,H-
1706.23397827,0,1000,1,1,0,2,4,3,5,1,0,250.0,test,0,H-
1515.28501511,2,1000,0,1,0,2,4,3,5,1,0,250.0,test,2,H-
586.483955383,4,1000,3,1,0,2,4,3,5,1,0,250.0,test,4,H-
1498.33488464,1,1000,4,1,0,2,4,3,5,1,0,250.0,test,1,H-
1083.14800262,0,1000,1,1,0,2,4,3,5,1,0,250.0,test,0,H-
506.346940994,0,1000,1,1,0,2,4,3,5,1,0,250.0,test,0,H-
810.441970825,1,1000,4,1,0,2,4,3,5,1,0,250.0,test,1,H-
1050.4128933,0,1000,1,1,0,2,4,3,5,1,0,250.0,test,0,H-
858.428955078,1,1000,4,1,0,2,4,3,5,1,0,250.0,test,1,H-
827.800035477,0,1000,1,1,0,2,4,3,5,1,0,250.0,test,0,H-
1866.47701263,3,1000,2,1,0,2,4,3,5,1,0,250.0,test,3,H-
1130.46884537,2,1000,0,1,0,2,4,3,5,1,0,250.0,test,2,H-
778.445005417,4,1000,3,1,0,2,4,3,5,1,0,250.0,test,4,H-
1178.39193344,4,1000,3,1,0,2,4,3,5,1,0,250.0,test,4,H-
1098.33812714,2,1000,0,1,0,2,4,3,5,1,0,250.0,test,2,H-
2138.35597038,3,1000,2,1,0,2,4,3,5,1,0,250.0,test,3,H-
570.455789566,3,1000,2,1,0,2,4,3,5,1,0,250.0,test,3,H-
1370.42403221,0,1000,1,1,0,2,4,3,5,1,0,250.0,test,0,H-
1691.27511978,1,1000,4,1,0,2,4,3,5,1,0,250.0,test,1,H-
1242.36297607,5,1000,5,0,0,2,4,3,5,1,0,250.0,test,1,H-
826.391220093,4,1000,3,1,0,2,4,3,5,1,0,250.0,test,4,H-
1354.47406769,2,1000,0,1,0,2,4,3,5,1,0,250.0,test,2,H-
619.600057602,4,1000,3,1,0,2,4,3,5,1,0,250.0,test,4,H-
1227.82278061,2,1000,0,1,0,2,4,3,5,1,0,250.0,test,2,H-
554.403066635,4,1000,3,1,0,2,4,3,5,1,0,250.0,test,4,H-
651.226043701,4,1000,3,1,0,2,4,3,5,1,0,250.0,test,4,H-
842.353105545,0,1000,1,0,0,2,4,3,5,1,0,250.0,test,2,H-
458.400964737,0,1000,1,1,0,2,4,3,5,1,0,250.0,test,0,H-
443.175077438,3,1000,2,0,0,2,4,3,5,1,0,250.0,test,0,H-
667.173862457,4,1000,3,1,0,2,4,3,5,1,0,250.0,test,4,H-
490.411996841,4,1000,3,1,0,2,4,3,5,1,0,250.0,test,4,H-
2522.50099182,1,1000,4,1,0,2,4,3,5,1,0,250.0,test,1,H-
1147.84789085,5,1000,5,1,0,2,4,3,5,1,0,250.0,test,5,H-
618.403911591,5,1000,5,1,0,2,4,3,5,1,0,250.0,test,5,H-
474.221944809,4,1000,3,1,0,2,4,3,5,1,0,250.0,test,4,H-
586.431980133,1,1000,4,0,0,2,4,3,5,1,0,250.0,test,0,H-
778.295993805,1,1000,4,1,0,2,4,3,5,1,0,250.0,test,1,H-
586.426973343,1,1000,4,1,0,2,4,3,5,1,0,250.0,test,1,H-
1034.4350338,0,1000,1,1,0,2,4,3,5,1,0,250.0,test,0,H-
539.124011993,4,1000,3,1,0,2,4,3,5,1,0,250.0,test,4,H-
1882.39789009,2,1000,0,1,0,2,4,3,5,1,0,250.0,test,2,H-
778.258085251,5,1000,5,1,0,2,4,3,5,1,0,250.0,test,5,H-
810.261964798,2,1000,0,1,0,2,4,3,5,1,0,250.0,test,2,H-
634.413957596,4,1000,3,1,0,2,4,3,5,1,0,250.0,test,4,H-
1018.34893227,2,1000,0,1,0,2,4,3,5,1,0,250.0,test,2,H-
667.876005173,1,1000,4,0,0,2,4,3,5,1,0,250.0,test,0,H-
970.363140106,0,1000,1,1,0,2,4,3,5,1,0,250.0,test,0,H-
778.987884521,1,1000,4,1,0,2,4,3,5,1,0,250.0,test,1,H-
523.613214493,1,1000,4,1,0,2,4,3,5,1,0,250.0,test,1,H-
907.181978226,5,1000,5,1,0,2,4,3,5,1,0,250.0,test,5,H-
843.804836273,0,1000,1,1,0,2,4,3,5,1,0,250.0,test,0,H-
746.258974075,5,1000,5,1,0,2,4,3,5,1,0,250.0,test,5,H-
1579.82301712,1,1000,4,1,0,2,4,3,5,1,0,250.0,test,1,H-
570.243120193,1,1000,4,1,0,2,4,3,5,1,0,250.0,test,1,H-
2266.36600494,1,1000,4,1,0,2,4,3,5,1,0,250.0,test,1,H-
506.036996841,4,1000,3,1,0,2,4,3,5,1,0,250.0,test,4,H-
874.3288517,0,1000,1,1,0,2,4,3,5,1,0,250.0,test,0,H-
842.313051224,5,1000,5,1,0,2,4,3,5,1,0,250.0,test,5,H-
699.229001999,5,1000,5,1,0,2,4,3,5,1,0,250.0,test,5,H-
826.461076736,0,1000,1,1,0,2,4,3,5,1,0,250.0,test,0,H-
698.348999023,0,1000,1,1,0,2,4,3,5,1,0,250.0,test,0,H-
491.800069809,0,1000,1,1,0,2,4,3,5,1,0,250.0,test,0,H-
891.9069767,5,1000,5,1,0,2,4,3,5,1,0,250.0,test,5,H-
554.490089417,4,1000,3,1,0,2,4,3,5,1,0,250.0,test,4,H-
1115.86284637,1,1000,4,1,0,2,4,3,5,1,0,250.0,test,1,H-
1209.15818214,3,1000,2,1,0,2,4,3,5,1,0,250.0,test,3,H-
843.783140182,5,1000,5,1,0,2,4,3,5,1,0,250.0,test,5,H-
986.960887909,0,1000,1,1,0,2,4,3,5,1,0,250.0,test,0,H-
1610.43405533,2,1000,0,1,0,2,4,3,5,1,0,250.0,test,2,H-
1850.48484802,3,1000,2,1,0,2,4,3,5,1,0,250.0,test,3,H-
827.162027359,5,1000,5,1,0,2,4,3,5,1,0,250.0,test,5,H-
522.346973419,4,1000,3,1,0,2,4,3,5,1,0,250.0,test,4,H-
1035.2461338,2,1000,0,1,0,2,4,3,5,1,0,250.0,test,2,H-
1881.10613823,3,1000,2,1,0,2,4,3,5,1,0,250.0,test,3,H-
730.450868607,5,1000,5,1,0,2,4,3,5,1,0,250.0,test,5,H-
1274.39904213,3,1000,2,1,0,2,4,3,5,1,0,250.0,test,3,H-
1546.35381699,5,1000,5,0,0,2,4,3,5,1,0,250.0,test,2,H-
778.3639431,1,1000,4,1,0,2,4,3,5,1,0,250.0,test,1,H-
586.267948151,4,1000,3,1,0,2,4,3,5,1,0,250.0,test,4,H-
1786.52501106,3,1000,2,1,0,2,4,3,5,1,0,250.0,test,3,H-
683.617115021,5,1000,5,1,0,2,4,3,5,1,0,250.0,test,5,H-
1083.81509781,2,1000,0,1,0,2,4,3,5,1,0,250.0,test,2,H-
969.120979309,0,1000,1,1,0,2,4,3,5,1,0,250.0,test,0,H-
1146.37112617,0,1000,1,1,0,2,4,3,5,1,0,250.0,test,0,H-
506.341218948,4,1000,3,1,0,2,4,3,5,1,0,250.0,test,4,H-
762.300014496,5,1000,5,1,0,2,4,3,5,1,0,250.0,test,5,H-
426.370859146,4,1000,3,1,0,2,4,3,5,1,0,250.0,test,4,H-
1930.32193184,3,1000,2,1,0,2,4,3,5,1,0,250.0,test,3,H-
1018.42212677,0,1000,1,1,0,2,4,3,5,1,0,250.0,test,0,H-
1450.43182373,3,1000,2,1,0,2,4,3,5,1,0,250.0,test,3,H-
474.385976791,4,1000,3,1,0,2,4,3,5,1,0,250.0,test,4,H-
1850.45313835,2,1000,0,0,0,2,4,3,5,1,0,250.0,test,1,H-
698.220014572,0,1000,1,1,0,2,4,3,5,1,0,250.0,test,0,H-
2715.93403816,2,1000,0,1,0,2,4,3,5,1,0,250.0,test,2,H-
938.431024551,5,1000,5,1,0,2,4,3,5,1,0,250.0,test,5,H-
1387.14599609,2,1000,0,1,0,2,4,3,5,1,0,250.0,test,2,H-
1370.47195435,1,1000,4,1,0,2,4,3,5,1,0,250.0,test,1,H-
1659.89017487,2,1000,0,1,0,2,4,3,5,1,0,250.0,test,2,H-
890.201091766,0,1000,1,1,0,2,4,3,5,1,0,250.0,test,0,H-
1034.51704979,2,1000,0,1,0,2,4,3,5,1,0,250.0,test,2,H-
1578.39488983,3,1000,2,1,0,2,4,3,5,1,0,250.0,test,3,H-
827.219009399,0,1000,1,1,0,2,4,3,5,1,0,250.0,test,0,H-
1018.31293106,5,1000,5,1,0,2,4,3,5,1,0,250.0,test,5,H-
1065.19699097,4,1000,3,1,0,2,4,3,5,1,0,250.0,test,4,H-
1114.42685127,3,1000,2,0,0,2,4,3,5,1,0,250.0,test,2,H-
570.208072662,4,1000,3,1,0,2,4,3,5,1,0,250.0,test,4,H-
1114.22204971,3,1000,2,1,0,2,4,3,5,1,0,250.0,test,3,H-
699.87988472,0,1000,1,1,0,2,4,3,5,1,0,250.0,test,0,H-
651.805877686,3,1000,2,0,0,2,4,3,5,1,0,250.0,test,0,H-
1626.37495995,1,1000,4,1,0,2,4,3,5,1,0,250.0,test,1,H-
443.156003952,1,1000,4,1,0,2,4,3,5,1,0,250.0,test,1,H-
1867.8381443,5,1000,5,1,0,2,4,3,5,1,0,250.0,test,5,H-
1258.50701332,3,1000,2,1,0,2,4,3,5,1,0,250.0,test,3,H-
553.05981636,3,1000,2,1,0,2,4,3,5,1,0,250.0,test,3,H-
682.413101196,5,1000,5,1,0,2,4,3,5,1,0,250.0,test,5,H-
618.386983871,5,1000,5,1,0,2,4,3,5,1,0,250.0,test,5,H-
3402.47416496,1,1000,4,1,0,2,4,3,5,1,0,250.0,test,1,H-
762.249946594,2,1000,0,0,0,2,4,3,5,1,0,250.0,test,5,H-
459.781885147,3,1000,2,1,0,2,4,3,5,1,0,250.0,test,3,H-
778.342962265,4,1000,3,1,0,2,4,3,5,1,0,250.0,test,4,H-
986.440896988,1,1000,4,1,0,2,4,3,5,1,0,250.0,test,1,H-
874.445915222,3,1000,2,1,0,2,4,3,5,1,0,250.0,test,3,H-
842.473983765,5,1000,5,1,0,2,4,3,5,1,0,250.0,test,5,H-
762.454032898,5,1000,5,1,0,2,4,3,5,1,0,250.0,test,5,H-
666.252851486,1,1000,4,1,0,2,4,3,5,1,0,250.0,test,1,H-
682.510852814,1,1000,4,1,0,2,4,3,5,1,0,250.0,test,1,H-
970.463991165,3,1000,2,1,0,2,4,3,5,1,0,250.0,test,3,H-
570.374011993,3,1000,2,1,0,2,4,3,5,1,0,250.0,test,3,H-
955.166816711,2,1000,0,0,0,2,4,3,5,1,0,250.0,test,1,H-
603.160142899,3,1000,2,1,0,2,4,3,5,1,0,250.0,test,3,H-
1434.46183205,0,1000,1,1,0,2,4,3,5,1,0,250.0,test,0,H-
730.443000793,2,1000,0,0,0,2,4,3,5,1,0,250.0,test,5,H-
1610.01110077,3,1000,2,1,0,2,4,3,5,1,0,250.0,test,3,H-
667.112827301,4,1000,3,1,0,2,4,3,5,1,0,250.0,test,4,H-
394.222974777,0,1000,1,0,0,2,4,3,5,1,0,250.0,test,3,H-
1162.44077682,3,1000,2,1,0,2,4,3,5,1,0,250.0,test,3,H-
442.249059677,3,1000,2,1,0,2,4,3,5,1,0,250.0,test,3,H-
555.791139603,0,1000,1,1,0,2,4,3,5,1,0,250.0,test,0,H-
507.606983185,3,1000,2,1,0,2,4,3,5,1,0,250.0,test,3,H-
1211.83180809,5,1000,5,1,0,2,4,3,5,1,0,250.0,test,5,H-
810.406923294,0,1000,1,0,0,2,4,3,5,1,0,250.0,test,3,H-
586.297988892,4,1000,3,1,0,2,4,3,5,1,0,250.0,test,4,H-
538.38300705,4,1000,3,1,0,2,4,3,5,1,0,250.0,test,4,H-
1050.45104027,0,1000,1,1,0,2,4,3,5,1,0,250.0,test,0,H-
1226.41301155,0,1000,1,1,0,2,4,3,5,1,0,250.0,test,0,H-
874.454021454,5,1000,5,1,0,2,4,3,5,1,0,250.0,test,5,H-
490.406990051,4,1000,3,1,0,2,4,3,5,1,0,250.0,test,4,H-
667.777061462,0,1000,1,1,0,2,4,3,5,1,0,250.0,test,0,H-
954.435110092,2,1000,0,1,0,2,4,3,5,1,0,250.0,test,2,H-
473.087072372,4,1000,3,1,0,2,4,3,5,1,0,250.0,test,4,H-
811.819076538,2,1000,0,1,0,2,4,3,5,1,0,250.0,test,2,H-
1179.48412895,3,1000,2,1,0,2,4,3,5,1,0,250.0,test,3,H-
1017.13490486,1,1000,4,1,0,2,4,3,5,1,0,250.0,test,1,H-
699.817180634,0,1000,1,1,0,2,4,3,5,1,0,250.0,test,0,H-
1019.18506622,2,1000,0,0,0,2,4,3,5,1,0,250.0,test,1,H-
1483.1969738,3,1000,2,1,0,2,4,3,5,1,0,250.0,test,3,H-
827.805042267,5,1000,5,1,0,2,4,3,5,1,0,250.0,test,5,H-
825.119018555,2,1000,0,1,0,2,4,3,5,1,0,250.0,test,2,H-
922.386884689,3,1000,2,1,0,2,4,3,5,1,0,250.0,test,3,H-
570.394992828,0,1000,1,1,0,2,4,3,5,1,0,250.0,test,0,H-
779.156923294,2,1000,0,1,0,2,4,3,5,1,0,250.0,test,2,H-
522.429943085,2,1000,0,1,0,2,4,3,5,1,0,250.0,test,2,H-
1706.43496513,1,1000,4,0,0,2,4,3,5,1,0,250.0,test,0,H-
858.404874802,2,1000,0,1,0,2,4,3,5,1,0,250.0,test,2,H-
826.40504837,0,1000,1,1,0,2,4,3,5,1,0,250.0,test,0,H-
587.808847427,0,1000,1,1,0,2,4,3,5,1,0,250.0,test,0,H-
923.129796982,5,1000,5,1,0,2,4,3,5,1,0,250.0,test,5,H-
555.790901184,4,1000,3,1,0,2,4,3,5,1,0,250.0,test,4,H-
650.33197403,5,1000,5,1,0,2,4,3,5,1,0,250.0,test,5,H-
715.838193893,5,1000,5,1,0,2,4,3,5,1,0,250.0,test,5,H-
427.634954453,5,1000,5,1,0,2,4,3,5,1,0,250.0,test,5,H-
538.34605217,5,1000,5,1,0,2,4,3,5,1,0,250.0,test,5,H-
602.34618187,4,1000,3,1,0,2,4,3,5,1,0,250.0,test,4,H-
794.367074966,3,1000,2,1,0,2,4,3,5,1,0,250.0,test,3,H-
922.397136688,1,1000,4,1,0,2,4,3,5,1,0,250.0,test,1,H-
1146.48318291,0,1000,1,1,0,2,4,3,5,1,0,250.0,test,0,H-
586.455106735,5,1000,5,1,0,2,4,3,5,1,0,250.0,test,5,H-
1067.86799431,1,1000,4,1,0,2,4,3,5,1,0,250.0,test,1,H-
1243.18504333,2,1000,0,1,0,2,4,3,5,1,0,250.0,test,2,H-
1082.3199749,3,1000,2,1,0,2,4,3,5,1,0,250.0,test,3,H-
747.802972794,5,1000,5,1,0,2,4,3,5,1,0,250.0,test,5,H-
682.317972183,3,1000,2,1,0,2,4,3,5,1,0,250.0,test,3,H-
490.323066711,3,1000,2,1,0,2,4,3,5,1,0,250.0,test,3,H-
379.155158997,3,1000,2,1,0,2,4,3,5,1,0,250.0,test,3,H-
1113.14797401,2,1000,0,0,0,2,4,3,5,1,0,250.0,test,1,H-
667.779922485,3,1000,2,1,0,2,4,3,5,1,0,250.0,test,3,H-
475.149869919,3,1000,2,1,0,2,4,3,5,1,0,250.0,test,3,H-
1050.36091805,2,1000,0,1,0,2,4,3,5,1,0,250.0,test,2,H-
2410.28189659,0,1000,1,1,0,2,4,3,5,1,0,250.0,test,0,H-
697.148084641,3,1000,2,1,0,2,4,3,5,1,0,250.0,test,3,H-
794.308900833,0,1000,1,1,0,2,4,3,5,1,0,250.0,test,0,H-
650.328159332,5,1000,5,1,0,2,4,3,5,1,0,250.0,test,5,H-
362.35499382,5,1000,5,1,0,2,4,3,5,1,0,250.0,test,5,H-
762.321949005,1,1000,4,0,0,2,4,3,5,1,0,250.0,test,0,H-
634.328126907,5,1000,5,1,0,2,4,3,5,1,0,250.0,test,5,H-
971.131801605,1,1000,4,1,0,2,4,3,5,1,0,250.0,test,1,H-
