RT,correct_response,ms-prestimblank,curstim,correct,SRmap_1,SRmap_0,SRmap_3,SRmap_2,SRmap_5,SRmap_4,ms-precue,ntrials,type,response,condition
6775.18510818,5,600,5,1,1,3,2,4,5,0,400,250.0,train,5,E+
535.609006882,5,600,5,1,1,3,2,4,5,0,400,250.0,train,5,E+
169.041156769,0,600,4,1,1,3,2,4,5,0,400,250.0,train,0,E+
663.554906845,4,600,2,1,1,3,2,4,5,0,400,250.0,train,4,E+
233.154058456,0,600,4,1,1,3,2,4,5,0,400,250.0,train,0,E+
232.474803925,5,600,5,1,1,3,2,4,5,0,400,250.0,train,5,E+
169.024944305,5,600,5,1,1,3,2,4,5,0,400,250.0,train,5,E+
104.375123978,2,600,3,0,1,3,2,4,5,0,400,250.0,train,4,E+
471.772909164,1,600,1,1,1,3,2,4,5,0,400,250.0,train,1,E+
215.768814087,1,600,1,1,1,3,2,4,5,0,400,250.0,train,1,E+
697.12305069,3,600,0,1,1,3,2,4,5,0,400,250.0,train,3,E+
135.902166367,1,600,1,1,1,3,2,4,5,0,400,250.0,train,1,E+
345.134973526,1,600,1,1,1,3,2,4,5,0,400,250.0,train,1,E+
89.1580581665,2,600,3,1,1,3,2,4,5,0,400,250.0,train,2,E+
89.2100334167,1,600,1,1,1,3,2,4,5,0,400,250.0,train,1,E+
392.687082291,4,600,2,0,1,3,2,4,5,0,400,250.0,train,5,E+
104.936122894,1,600,1,1,1,3,2,4,5,0,400,250.0,train,1,E+
729.159116745,3,600,0,1,1,3,2,4,5,0,400,250.0,train,3,E+
183.573007584,0,600,4,1,1,3,2,4,5,0,400,250.0,train,0,E+
679.592847824,2,600,3,1,1,3,2,4,5,0,400,250.0,train,2,E+
55.5610656738,2,600,3,1,1,3,2,4,5,0,400,250.0,train,2,E+
183.799982071,1,600,1,1,1,3,2,4,5,0,400,250.0,train,1,E+
503.610134125,2,600,3,1,1,3,2,4,5,0,400,250.0,train,2,E+
231.737852097,5,600,5,1,1,3,2,4,5,0,400,250.0,train,5,E+
343.446016312,4,600,2,1,1,3,2,4,5,0,400,250.0,train,4,E+
118.560791016,5,600,5,1,1,3,2,4,5,0,400,250.0,train,5,E+
185.041904449,3,600,0,1,1,3,2,4,5,0,400,250.0,train,3,E+
151.695013046,0,600,4,1,1,3,2,4,5,0,400,250.0,train,0,E+
311.681985855,3,600,0,1,1,3,2,4,5,0,400,250.0,train,3,E+
647.933006287,2,600,3,1,1,3,2,4,5,0,400,250.0,train,2,E+
71.7768669128,2,600,3,1,1,3,2,4,5,0,400,250.0,train,2,E+
423.768043518,2,600,3,1,1,3,2,4,5,0,400,250.0,train,2,E+
119.879961014,0,600,4,1,1,3,2,4,5,0,400,250.0,train,0,E+
615.882158279,5,600,5,1,1,3,2,4,5,0,400,250.0,train,5,E+
183.902978897,2,600,3,1,1,3,2,4,5,0,400,250.0,train,2,E+
215.892076492,3,600,0,1,1,3,2,4,5,0,400,250.0,train,3,E+
183.979034424,5,600,5,1,1,3,2,4,5,0,400,250.0,train,5,E+
71.8011856079,0,600,4,1,1,3,2,4,5,0,400,250.0,train,0,E+
57.1990013123,0,600,4,1,1,3,2,4,5,0,400,250.0,train,0,E+
119.784116745,0,600,4,1,1,3,2,4,5,0,400,250.0,train,0,E+
183.825969696,2,600,3,1,1,3,2,4,5,0,400,250.0,train,2,E+
57.265996933,2,600,3,1,1,3,2,4,5,0,400,250.0,train,2,E+
40.5750274658,1,600,1,1,1,3,2,4,5,0,400,250.0,train,1,E+
214.442968369,3,600,0,1,1,3,2,4,5,0,400,250.0,train,3,E+
231.85300827,2,600,3,1,1,3,2,4,5,0,400,250.0,train,2,E+
135.474920273,1,600,1,1,1,3,2,4,5,0,400,250.0,train,1,E+
375.74005127,3,600,0,1,1,3,2,4,5,0,400,250.0,train,3,E+
167.582988739,5,600,5,1,1,3,2,4,5,0,400,250.0,train,5,E+
183.683872223,2,600,3,0,1,3,2,4,5,0,400,250.0,train,1,E+
345.336914062,4,600,2,1,1,3,2,4,5,0,400,250.0,train,4,E+
136.582136154,3,600,0,1,1,3,2,4,5,0,400,250.0,train,3,E+
215.601921082,2,600,3,1,1,3,2,4,5,0,400,250.0,train,2,E+
89.1749858856,2,600,3,1,1,3,2,4,5,0,400,250.0,train,2,E+
119.709968567,1,600,1,1,1,3,2,4,5,0,400,250.0,train,1,E+
7.76791572571,1,600,1,1,1,3,2,4,5,0,400,250.0,train,1,E+
374.69291687,2,600,3,1,1,3,2,4,5,0,400,250.0,train,2,E+
23.6830711365,1,600,1,1,1,3,2,4,5,0,400,250.0,train,1,E+
231.731176376,5,600,5,1,1,3,2,4,5,0,400,250.0,train,5,E+
183.781862259,3,600,0,1,1,3,2,4,5,0,400,250.0,train,3,E+
167.873859406,3,600,0,1,1,3,2,4,5,0,400,250.0,train,3,E+
136.425018311,1,600,1,1,1,3,2,4,5,0,400,250.0,train,1,E+
167.8378582,5,600,5,1,1,3,2,4,5,0,400,250.0,train,5,E+
8.64887237549,5,600,5,1,1,3,2,4,5,0,400,250.0,train,5,E+
119.902133942,0,600,4,1,1,3,2,4,5,0,400,250.0,train,0,E+
71.9349384308,5,600,5,1,1,3,2,4,5,0,400,250.0,train,5,E+
503.895998001,1,600,1,1,1,3,2,4,5,0,400,250.0,train,1,E+
343.811988831,1,600,1,1,1,3,2,4,5,0,400,250.0,train,1,E+
57.1238994598,0,600,4,1,1,3,2,4,5,0,400,250.0,train,0,E+
295.779943466,5,600,5,1,1,3,2,4,5,0,400,250.0,train,5,E+
23.6301422119,3,600,0,1,1,3,2,4,5,0,400,250.0,train,3,E+
24.6489048004,5,600,5,1,1,3,2,4,5,0,400,250.0,train,5,E+
119.677066803,1,600,1,1,1,3,2,4,5,0,400,250.0,train,1,E+
264.633893967,4,600,2,1,1,3,2,4,5,0,400,250.0,train,4,E+
89.1969203949,0,600,4,1,1,3,2,4,5,0,400,250.0,train,0,E+
408.573865891,0,600,4,1,1,3,2,4,5,0,400,250.0,train,0,E+
185.228824615,3,600,0,1,1,3,2,4,5,0,400,250.0,train,3,E+
376.245975494,3,600,0,1,1,3,2,4,5,0,400,250.0,train,3,E+
311.558961868,3,600,0,1,1,3,2,4,5,0,400,250.0,train,3,E+
199.856996536,3,600,0,1,1,3,2,4,5,0,400,250.0,train,3,E+
279.716968536,2,600,3,1,1,3,2,4,5,0,400,250.0,train,2,E+
231.731891632,2,600,3,1,1,3,2,4,5,0,400,250.0,train,2,E+
311.635017395,2,600,3,1,1,3,2,4,5,0,400,250.0,train,2,E+
231.755971909,5,600,5,1,1,3,2,4,5,0,400,250.0,train,5,E+
169.64507103,3,600,0,1,1,3,2,4,5,0,400,250.0,train,3,E+
279.368162155,1,600,1,1,1,3,2,4,5,0,400,250.0,train,1,E+
89.1969203949,0,600,4,1,1,3,2,4,5,0,400,250.0,train,0,E+
376.451969147,4,600,2,1,1,3,2,4,5,0,400,250.0,train,4,E+
105.200052261,0,600,4,1,1,3,2,4,5,0,400,250.0,train,0,E+
520.517110825,0,600,4,1,1,3,2,4,5,0,400,250.0,train,0,E+
327.921152115,2,600,3,1,1,3,2,4,5,0,400,250.0,train,2,E+
24.4691371918,1,600,1,1,1,3,2,4,5,0,400,250.0,train,1,E+
471.884965897,4,600,2,1,1,3,2,4,5,0,400,250.0,train,4,E+
136.584043503,0,600,4,1,1,3,2,4,5,0,400,250.0,train,0,E+
151.859045029,3,600,0,1,1,3,2,4,5,0,400,250.0,train,3,E+
119.833946228,1,600,1,1,1,3,2,4,5,0,400,250.0,train,1,E+
167.896032333,5,600,5,1,1,3,2,4,5,0,400,250.0,train,5,E+
183.914899826,3,600,0,1,1,3,2,4,5,0,400,250.0,train,3,E+
359.949111938,4,600,2,1,1,3,2,4,5,0,400,250.0,train,4,E+
279.915094376,2,600,3,1,1,3,2,4,5,0,400,250.0,train,2,E+
39.9520397186,0,600,4,1,1,3,2,4,5,0,400,250.0,train,0,E+
103.875875473,3,600,0,1,1,3,2,4,5,0,400,250.0,train,3,E+
25.1541137695,0,600,4,1,1,3,2,4,5,0,400,250.0,train,0,E+
329.15687561,3,600,0,1,1,3,2,4,5,0,400,250.0,train,3,E+
166.476964951,2,600,3,1,1,3,2,4,5,0,400,250.0,train,2,E+
7.89904594421,0,600,4,1,1,3,2,4,5,0,400,250.0,train,0,E+
345.304012299,0,600,4,1,1,3,2,4,5,0,400,250.0,train,0,E+
185.328006744,3,600,0,1,1,3,2,4,5,0,400,250.0,train,3,E+
168.718099594,5,600,5,1,1,3,2,4,5,0,400,250.0,train,5,E+
185.190916061,0,600,4,1,1,3,2,4,5,0,400,250.0,train,0,E+
105.15499115,0,600,4,1,1,3,2,4,5,0,400,250.0,train,0,E+
265.136957169,0,600,4,1,1,3,2,4,5,0,400,250.0,train,0,E+
185.170173645,5,600,5,1,1,3,2,4,5,0,400,250.0,train,5,E+
263.767004013,2,600,3,1,1,3,2,4,5,0,400,250.0,train,2,E+
151.674985886,0,600,4,1,1,3,2,4,5,0,400,250.0,train,0,E+
87.7318382263,5,600,5,1,1,3,2,4,5,0,400,250.0,train,5,E+
151.536941528,2,600,3,1,1,3,2,4,5,0,400,250.0,train,2,E+
296.657800674,4,600,2,1,1,3,2,4,5,0,400,250.0,train,4,E+
41.2828922272,0,600,4,1,1,3,2,4,5,0,400,250.0,train,0,E+
73.2159614563,1,600,1,1,1,3,2,4,5,0,400,250.0,train,1,E+
55.713891983,0,600,4,1,1,3,2,4,5,0,400,250.0,train,0,E+
72.4830627441,5,600,5,1,1,3,2,4,5,0,400,250.0,train,5,E+
71.7880725861,3,600,0,1,1,3,2,4,5,0,400,250.0,train,3,E+
7.71498680115,1,600,1,1,1,3,2,4,5,0,400,250.0,train,1,E+
23.8170623779,5,600,5,1,1,3,2,4,5,0,400,250.0,train,5,E+
135.767936707,2,600,3,1,1,3,2,4,5,0,400,250.0,train,2,E+
7.8399181366,0,600,4,1,1,3,2,4,5,0,400,250.0,train,0,E+
375.771999359,0,600,4,1,1,3,2,4,5,0,400,250.0,train,0,E+
103.857040405,3,600,0,0,1,3,2,4,5,0,400,250.0,train,2,E+
151.817798615,4,600,2,1,1,3,2,4,5,0,400,250.0,train,4,E+
23.8449573517,0,600,4,1,1,3,2,4,5,0,400,250.0,train,0,E+
23.9210128784,0,600,4,1,1,3,2,4,5,0,400,250.0,train,0,E+
87.9089832306,0,600,4,1,1,3,2,4,5,0,400,250.0,train,0,E+
87.8441333771,0,600,4,1,1,3,2,4,5,0,400,250.0,train,0,E+
103.973150253,0,600,4,1,1,3,2,4,5,0,400,250.0,train,0,E+
311.902999878,4,600,2,1,1,3,2,4,5,0,400,250.0,train,4,E+
55.5992126465,0,600,4,1,1,3,2,4,5,0,400,250.0,train,0,E+
121.033191681,1,600,1,1,1,3,2,4,5,0,400,250.0,train,1,E+
120.665788651,1,600,1,1,1,3,2,4,5,0,400,250.0,train,1,E+
151.767969131,4,600,2,1,1,3,2,4,5,0,400,250.0,train,4,E+
72.5269317627,5,600,5,1,1,3,2,4,5,0,400,250.0,train,5,E+
89.3530845642,5,600,5,1,1,3,2,4,5,0,400,250.0,train,5,E+
89.3650054932,0,600,4,1,1,3,2,4,5,0,400,250.0,train,0,E+
39.7861003876,5,600,5,1,1,3,2,4,5,0,400,250.0,train,5,E+
57.3298931122,4,600,2,1,1,3,2,4,5,0,400,250.0,train,4,E+
407.66787529,3,600,0,1,1,3,2,4,5,0,400,250.0,train,3,E+
263.778924942,1,600,1,1,1,3,2,4,5,0,400,250.0,train,1,E+
153.152942657,5,600,5,1,1,3,2,4,5,0,400,250.0,train,5,E+
73.224067688,0,600,4,1,1,3,2,4,5,0,400,250.0,train,0,E+
103.672981262,1,600,1,1,1,3,2,4,5,0,400,250.0,train,1,E+
151.700973511,5,600,5,1,1,3,2,4,5,0,400,250.0,train,5,E+
71.6190338135,5,600,5,1,1,3,2,4,5,0,400,250.0,train,5,E+
119.730949402,0,600,4,1,1,3,2,4,5,0,400,250.0,train,0,E+
359.983921051,0,600,4,1,1,3,2,4,5,0,400,250.0,train,0,E+
71.6869831085,5,600,5,1,1,3,2,4,5,0,400,250.0,train,5,E+
200.577974319,4,600,2,1,1,3,2,4,5,0,400,250.0,train,4,E+
57.3019981384,4,600,2,1,1,3,2,4,5,0,400,250.0,train,4,E+
183.808088303,2,600,3,1,1,3,2,4,5,0,400,250.0,train,2,E+
119.703054428,4,600,2,1,1,3,2,4,5,0,400,250.0,train,4,E+
247.83706665,3,600,0,1,1,3,2,4,5,0,400,250.0,train,3,E+
104.991912842,4,600,2,1,1,3,2,4,5,0,400,250.0,train,4,E+
103.70182991,1,600,1,1,1,3,2,4,5,0,400,250.0,train,1,E+
55.7329654694,5,600,5,1,1,3,2,4,5,0,400,250.0,train,5,E+
103.852987289,3,600,0,1,1,3,2,4,5,0,400,250.0,train,3,E+
55.8431148529,3,600,0,1,1,3,2,4,5,0,400,250.0,train,3,E+
375.928163528,3,600,0,1,1,3,2,4,5,0,400,250.0,train,3,E+
71.7899799347,5,600,5,1,1,3,2,4,5,0,400,250.0,train,5,E+
424.53789711,5,600,5,1,1,3,2,4,5,0,400,250.0,train,5,E+
23.796081543,0,600,4,1,1,3,2,4,5,0,400,250.0,train,0,E+
72.478055954,1,600,1,1,1,3,2,4,5,0,400,250.0,train,1,E+
231.854915619,3,600,0,1,1,3,2,4,5,0,400,250.0,train,3,E+
232.01584816,1,600,1,1,1,3,2,4,5,0,400,250.0,train,1,E+
153.085231781,2,600,3,1,1,3,2,4,5,0,400,250.0,train,2,E+
231.930017471,3,600,0,1,1,3,2,4,5,0,400,250.0,train,3,E+
249.209880829,4,600,2,1,1,3,2,4,5,0,400,250.0,train,4,E+
216.104984283,5,600,5,1,1,3,2,4,5,0,400,250.0,train,5,E+
56.364774704,5,600,5,1,1,3,2,4,5,0,400,250.0,train,5,E+
121.256828308,5,600,5,1,1,3,2,4,5,0,400,250.0,train,5,E+
137.311935425,1,600,1,1,1,3,2,4,5,0,400,250.0,train,1,E+
407.752037048,3,600,0,1,1,3,2,4,5,0,400,250.0,train,3,E+
265.025854111,2,600,3,1,1,3,2,4,5,0,400,250.0,train,2,E+
151.648044586,2,600,3,1,1,3,2,4,5,0,400,250.0,train,2,E+
41.1829948425,1,600,1,1,1,3,2,4,5,0,400,250.0,train,1,E+
41.2170886993,0,600,4,1,1,3,2,4,5,0,400,250.0,train,0,E+
183.6810112,5,600,5,1,1,3,2,4,5,0,400,250.0,train,5,E+
264.59312439,3,600,0,1,1,3,2,4,5,0,400,250.0,train,3,E+
87.6297950745,1,600,1,1,1,3,2,4,5,0,400,250.0,train,1,E+
39.6690368652,0,600,4,1,1,3,2,4,5,0,400,250.0,train,0,E+
231.72211647,3,600,0,1,1,3,2,4,5,0,400,250.0,train,3,E+
169.393062592,1,600,1,1,1,3,2,4,5,0,400,250.0,train,1,E+
247.792005539,2,600,3,1,1,3,2,4,5,0,400,250.0,train,2,E+
329.167842865,0,600,4,1,1,3,2,4,5,0,400,250.0,train,0,E+
41.2349700928,0,600,4,1,1,3,2,4,5,0,400,250.0,train,0,E+
23.8280296326,1,600,1,1,1,3,2,4,5,0,400,250.0,train,1,E+
311.686992645,2,600,3,1,1,3,2,4,5,0,400,250.0,train,2,E+
265.165090561,4,600,2,1,1,3,2,4,5,0,400,250.0,train,4,E+
201.16686821,2,600,3,1,1,3,2,4,5,0,400,250.0,train,2,E+
25.1939296722,1,600,1,1,1,3,2,4,5,0,400,250.0,train,1,E+
38.7048721313,1,600,1,1,1,3,2,4,5,0,400,250.0,train,1,E+
185.281038284,2,600,3,1,1,3,2,4,5,0,400,250.0,train,2,E+
103.815078735,0,600,4,1,1,3,2,4,5,0,400,250.0,train,0,E+
151.782989502,0,600,4,1,1,3,2,4,5,0,400,250.0,train,0,E+
73.0948448181,5,600,5,1,1,3,2,4,5,0,400,250.0,train,5,E+
135.885000229,2,600,3,1,1,3,2,4,5,0,400,250.0,train,2,E+
151.855945587,3,600,0,1,1,3,2,4,5,0,400,250.0,train,3,E+
103.920936584,2,600,3,1,1,3,2,4,5,0,400,250.0,train,2,E+
279.902935028,4,600,2,1,1,3,2,4,5,0,400,250.0,train,4,E+
119.797945023,5,600,5,1,1,3,2,4,5,0,400,250.0,train,5,E+
87.9008769989,3,600,0,0,1,3,2,4,5,0,400,250.0,train,2,E+
199.872016907,2,600,3,1,1,3,2,4,5,0,400,250.0,train,2,E+
280.010938644,4,600,2,1,1,3,2,4,5,0,400,250.0,train,4,E+
201.175928116,3,600,0,1,1,3,2,4,5,0,400,250.0,train,3,E+
137.239933014,1,600,1,1,1,3,2,4,5,0,400,250.0,train,1,E+
313.28701973,4,600,2,1,1,3,2,4,5,0,400,250.0,train,4,E+
71.7880725861,4,600,2,1,1,3,2,4,5,0,400,250.0,train,4,E+
233.279943466,2,600,3,1,1,3,2,4,5,0,400,250.0,train,2,E+
136.729001999,5,600,5,1,1,3,2,4,5,0,400,250.0,train,5,E+
329.252004623,5,600,5,1,1,3,2,4,5,0,400,250.0,train,5,E+
167.768955231,2,600,3,1,1,3,2,4,5,0,400,250.0,train,2,E+
263.516187668,2,600,3,1,1,3,2,4,5,0,400,250.0,train,2,E+
375.810146332,3,600,0,1,1,3,2,4,5,0,400,250.0,train,3,E+
39.5820140839,3,600,0,1,1,3,2,4,5,0,400,250.0,train,3,E+
24.5959758759,3,600,0,1,1,3,2,4,5,0,400,250.0,train,3,E+
87.6939296722,5,600,5,1,1,3,2,4,5,0,400,250.0,train,5,E+
151.694059372,4,600,2,1,1,3,2,4,5,0,400,250.0,train,4,E+
151.631116867,4,600,2,1,1,3,2,4,5,0,400,250.0,train,4,E+
73.5459327698,5,600,5,1,1,3,2,4,5,0,400,250.0,train,5,E+
265.35820961,2,600,3,1,1,3,2,4,5,0,400,250.0,train,2,E+
313.276052475,4,600,2,1,1,3,2,4,5,0,400,250.0,train,4,E+
119.771003723,0,600,4,1,1,3,2,4,5,0,400,250.0,train,0,E+
377.249002457,3,600,0,1,1,3,2,4,5,0,400,250.0,train,3,E+
217.293024063,3,600,0,1,1,3,2,4,5,0,400,250.0,train,3,E+
216.531038284,2,600,3,1,1,3,2,4,5,0,400,250.0,train,2,E+
136.541128159,2,600,3,1,1,3,2,4,5,0,400,250.0,train,2,E+
151.712179184,2,600,3,1,1,3,2,4,5,0,400,250.0,train,2,E+
23.777961731,1,600,1,1,1,3,2,4,5,0,400,250.0,train,1,E+
87.6979827881,1,600,1,1,1,3,2,4,5,0,400,250.0,train,1,E+
87.7809524536,2,600,3,1,1,3,2,4,5,0,400,250.0,train,2,E+
55.7868480682,2,600,3,1,1,3,2,4,5,0,400,250.0,train,2,E+
183.785915375,4,600,2,1,1,3,2,4,5,0,400,250.0,train,4,E+
137.145042419,5,600,5,1,1,3,2,4,5,0,400,250.0,train,5,E+
7.86209106445,0,600,4,1,1,3,2,4,5,0,400,250.0,train,0,E+
169.111013412,3,600,0,1,1,3,2,4,5,0,400,250.0,train,3,E+
55.8598041534,5,600,5,1,1,3,2,4,5,0,400,250.0,train,5,E+
39.9339199066,5,600,5,1,1,3,2,4,5,0,400,250.0,train,5,E+
87.9330635071,1,600,1,1,1,3,2,4,5,0,400,250.0,train,1,E+
327.855110168,2,600,3,1,1,3,2,4,5,0,400,250.0,train,2,E+
104.682922363,2,600,3,1,1,3,2,4,5,0,400,250.0,train,2,E+
119.894981384,4,600,2,1,1,3,2,4,5,0,400,250.0,train,4,E+
152.13394165,5,600,5,1,1,3,2,4,5,0,400,250.0,train,5,E+
217.226982117,3,600,0,1,1,3,2,4,5,0,400,250.0,train,3,E+
1287.71901131,2,1000,3,1,1,3,2,4,5,0,0,250.0,test,2,E+
406.063079834,1,1000,1,1,1,3,2,4,5,0,0,250.0,test,1,E+
534.860134125,4,1000,2,1,1,3,2,4,5,0,0,250.0,test,4,E+
438.177108765,0,1000,4,1,1,3,2,4,5,0,0,250.0,test,0,E+
486.889123917,4,1000,2,1,1,3,2,4,5,0,0,250.0,test,4,E+
359.522104263,1,1000,1,1,1,3,2,4,5,0,0,250.0,test,1,E+
438.945770264,2,1000,3,1,1,3,2,4,5,0,0,250.0,test,2,E+
343.883991241,1,1000,1,0,1,3,2,4,5,0,0,250.0,test,0,E+
423.898935318,1,1000,1,1,1,3,2,4,5,0,0,250.0,test,1,E+
519.62518692,4,1000,2,1,1,3,2,4,5,0,0,250.0,test,4,E+
503.882884979,1,1000,1,1,1,3,2,4,5,0,0,250.0,test,1,E+
582.188129425,5,1000,5,1,1,3,2,4,5,0,0,250.0,test,5,E+
455.801963806,1,1000,1,1,1,3,2,4,5,0,0,250.0,test,1,E+
392.72403717,1,1000,1,1,1,3,2,4,5,0,0,250.0,test,1,E+
582.144975662,5,1000,5,1,1,3,2,4,5,0,0,250.0,test,5,E+
376.035928726,0,1000,4,1,1,3,2,4,5,0,0,250.0,test,0,E+
436.951160431,1,1000,1,1,1,3,2,4,5,0,0,250.0,test,1,E+
392.624855042,0,1000,4,1,1,3,2,4,5,0,0,250.0,test,0,E+
615.905046463,3,1000,0,1,1,3,2,4,5,0,0,250.0,test,3,E+
503.916025162,1,1000,1,1,1,3,2,4,5,0,0,250.0,test,1,E+
677.781105042,4,1000,2,1,1,3,2,4,5,0,0,250.0,test,4,E+
454.257965088,5,1000,5,1,1,3,2,4,5,0,0,250.0,test,5,E+
566.273927689,3,1000,0,1,1,3,2,4,5,0,0,250.0,test,3,E+
439.867973328,0,1000,4,1,1,3,2,4,5,0,0,250.0,test,0,E+
470.176935196,4,1000,2,1,1,3,2,4,5,0,0,250.0,test,4,E+
454.080104828,0,1000,4,1,1,3,2,4,5,0,0,250.0,test,0,E+
441.248893738,4,1000,2,1,1,3,2,4,5,0,0,250.0,test,4,E+
422.044038773,4,1000,2,1,1,3,2,4,5,0,0,250.0,test,4,E+
454.197883606,1,1000,1,1,1,3,2,4,5,0,0,250.0,test,1,E+
423.488140106,3,1000,0,0,1,3,2,4,5,0,0,250.0,test,4,E+
646.036863327,2,1000,3,1,1,3,2,4,5,0,0,250.0,test,2,E+
422.930002213,0,1000,4,1,1,3,2,4,5,0,0,250.0,test,0,E+
471.771001816,2,1000,3,1,1,3,2,4,5,0,0,250.0,test,2,E+
422.961950302,0,1000,4,1,1,3,2,4,5,0,0,250.0,test,0,E+
455.652952194,2,1000,3,1,1,3,2,4,5,0,0,250.0,test,2,E+
470.921039581,3,1000,0,1,1,3,2,4,5,0,0,250.0,test,3,E+
487.607955933,1,1000,1,1,1,3,2,4,5,0,0,250.0,test,1,E+
567.018032074,3,1000,0,1,1,3,2,4,5,0,0,250.0,test,3,E+
394.173145294,3,1000,0,1,1,3,2,4,5,0,0,250.0,test,3,E+
422.883033752,1,1000,1,1,1,3,2,4,5,0,0,250.0,test,1,E+
519.994974136,5,1000,5,1,1,3,2,4,5,0,0,250.0,test,5,E+
598.90794754,5,1000,5,1,1,3,2,4,5,0,0,250.0,test,5,E+
472.602128983,1,1000,1,1,1,3,2,4,5,0,0,250.0,test,1,E+
391.731977463,5,1000,5,1,1,3,2,4,5,0,0,250.0,test,5,E+
567.050933838,2,1000,3,0,1,3,2,4,5,0,0,250.0,test,3,E+
711.977005005,3,1000,0,1,1,3,2,4,5,0,0,250.0,test,3,E+
407.968997955,3,1000,0,1,1,3,2,4,5,0,0,250.0,test,3,E+
487.910985947,0,1000,4,1,1,3,2,4,5,0,0,250.0,test,0,E+
567.342042923,3,1000,0,1,1,3,2,4,5,0,0,250.0,test,3,E+
584.630966187,2,1000,3,1,1,3,2,4,5,0,0,250.0,test,2,E+
329.282999039,1,1000,1,1,1,3,2,4,5,0,0,250.0,test,1,E+
406.864881516,2,1000,3,0,1,3,2,4,5,0,0,250.0,test,1,E+
374.069929123,2,1000,3,1,1,3,2,4,5,0,0,250.0,test,2,E+
473.104000092,3,1000,0,1,1,3,2,4,5,0,0,250.0,test,3,E+
358.110904694,3,1000,0,1,1,3,2,4,5,0,0,250.0,test,3,E+
471.076011658,0,1000,4,1,1,3,2,4,5,0,0,250.0,test,0,E+
534.145832062,5,1000,5,1,1,3,2,4,5,0,0,250.0,test,5,E+
374.241828918,5,1000,5,1,1,3,2,4,5,0,0,250.0,test,5,E+
360.416889191,5,1000,5,1,1,3,2,4,5,0,0,250.0,test,5,E+
520.617008209,2,1000,3,1,1,3,2,4,5,0,0,250.0,test,2,E+
425.982952118,5,1000,5,1,1,3,2,4,5,0,0,250.0,test,5,E+
407.27686882,2,1000,3,1,1,3,2,4,5,0,0,250.0,test,2,E+
375.584125519,2,1000,3,1,1,3,2,4,5,0,0,250.0,test,2,E+
568.666934967,4,1000,2,1,1,3,2,4,5,0,0,250.0,test,4,E+
471.431016922,0,1000,4,1,1,3,2,4,5,0,0,250.0,test,0,E+
551.207065582,3,1000,0,1,1,3,2,4,5,0,0,250.0,test,3,E+
439.810037613,3,1000,0,0,1,3,2,4,5,0,0,250.0,test,2,E+
503.758907318,5,1000,5,1,1,3,2,4,5,0,0,250.0,test,5,E+
519.280910492,3,1000,0,1,1,3,2,4,5,0,0,250.0,test,3,E+
551.925897598,2,1000,3,1,1,3,2,4,5,0,0,250.0,test,2,E+
470.254182816,0,1000,4,1,1,3,2,4,5,0,0,250.0,test,0,E+
519.822120667,4,1000,2,1,1,3,2,4,5,0,0,250.0,test,4,E+
552.561998367,1,1000,1,1,1,3,2,4,5,0,0,250.0,test,1,E+
535.82406044,5,1000,5,1,1,3,2,4,5,0,0,250.0,test,5,E+
439.301967621,5,1000,5,1,1,3,2,4,5,0,0,250.0,test,5,E+
455.909967422,0,1000,4,1,1,3,2,4,5,0,0,250.0,test,0,E+
519.124984741,3,1000,0,1,1,3,2,4,5,0,0,250.0,test,3,E+
390.053033829,3,1000,0,1,1,3,2,4,5,0,0,250.0,test,3,E+
503.373146057,3,1000,0,1,1,3,2,4,5,0,0,250.0,test,3,E+
583.62197876,4,1000,2,1,1,3,2,4,5,0,0,250.0,test,4,E+
438.17615509,0,1000,4,1,1,3,2,4,5,0,0,250.0,test,0,E+
361.215114594,1,1000,1,1,1,3,2,4,5,0,0,250.0,test,1,E+
296.741962433,2,1000,3,1,1,3,2,4,5,0,0,250.0,test,2,E+
612.9322052,4,1000,2,1,1,3,2,4,5,0,0,250.0,test,4,E+
534.857988358,2,1000,3,1,1,3,2,4,5,0,0,250.0,test,2,E+
537.175893784,5,1000,5,1,1,3,2,4,5,0,0,250.0,test,5,E+
470.973014832,1,1000,1,1,1,3,2,4,5,0,0,250.0,test,1,E+
550.612926483,4,1000,2,1,1,3,2,4,5,0,0,250.0,test,4,E+
471.018791199,0,1000,4,1,1,3,2,4,5,0,0,250.0,test,0,E+
361.190795898,1,1000,1,1,1,3,2,4,5,0,0,250.0,test,1,E+
648.643016815,3,1000,0,1,1,3,2,4,5,0,0,250.0,test,3,E+
438.091993332,3,1000,0,1,1,3,2,4,5,0,0,250.0,test,3,E+
406.908035278,4,1000,2,1,1,3,2,4,5,0,0,250.0,test,4,E+
422.169923782,3,1000,0,1,1,3,2,4,5,0,0,250.0,test,3,E+
534.961938858,0,1000,4,1,1,3,2,4,5,0,0,250.0,test,0,E+
455.704927444,3,1000,0,1,1,3,2,4,5,0,0,250.0,test,3,E+
390.897989273,0,1000,4,1,1,3,2,4,5,0,0,250.0,test,0,E+
423.666000366,2,1000,3,0,1,3,2,4,5,0,0,250.0,test,1,E+
551.58996582,4,1000,2,1,1,3,2,4,5,0,0,250.0,test,4,E+
440.587043762,4,1000,2,1,1,3,2,4,5,0,0,250.0,test,4,E+
407.528877258,0,1000,4,1,1,3,2,4,5,0,0,250.0,test,0,E+
374.528169632,0,1000,4,1,1,3,2,4,5,0,0,250.0,test,0,E+
647.547006607,3,1000,0,1,1,3,2,4,5,0,0,250.0,test,3,E+
327.708005905,3,1000,0,1,1,3,2,4,5,0,0,250.0,test,3,E+
551.991939545,5,1000,5,1,1,3,2,4,5,0,0,250.0,test,5,E+
678.310871124,1,1000,1,1,1,3,2,4,5,0,0,250.0,test,1,E+
423.925876617,0,1000,4,1,1,3,2,4,5,0,0,250.0,test,0,E+
390.22397995,1,1000,1,1,1,3,2,4,5,0,0,250.0,test,1,E+
503.94320488,5,1000,5,1,1,3,2,4,5,0,0,250.0,test,5,E+
375.991106033,0,1000,4,1,1,3,2,4,5,0,0,250.0,test,0,E+
471.90284729,2,1000,3,1,1,3,2,4,5,0,0,250.0,test,2,E+
392.624139786,2,1000,3,1,1,3,2,4,5,0,0,250.0,test,2,E+
457.30805397,1,1000,1,1,1,3,2,4,5,0,0,250.0,test,1,E+
470.766067505,4,1000,2,1,1,3,2,4,5,0,0,250.0,test,4,E+
486.118078232,1,1000,1,1,1,3,2,4,5,0,0,250.0,test,1,E+
488.677978516,5,1000,5,1,1,3,2,4,5,0,0,250.0,test,5,E+
406.069993973,2,1000,3,0,1,3,2,4,5,0,0,250.0,test,1,E+
502.11596489,1,1000,1,1,1,3,2,4,5,0,0,250.0,test,1,E+
695.439815521,5,1000,5,1,1,3,2,4,5,0,0,250.0,test,5,E+
502.104997635,4,1000,2,1,1,3,2,4,5,0,0,250.0,test,4,E+
342.944860458,3,1000,0,1,1,3,2,4,5,0,0,250.0,test,3,E+
502.106904984,5,1000,5,1,1,3,2,4,5,0,0,250.0,test,5,E+
470.957040787,0,1000,4,1,1,3,2,4,5,0,0,250.0,test,0,E+
534.790039062,5,1000,5,1,1,3,2,4,5,0,0,250.0,test,5,E+
470.162153244,1,1000,1,1,1,3,2,4,5,0,0,250.0,test,1,E+
553.99107933,3,1000,0,1,1,3,2,4,5,0,0,250.0,test,3,E+
486.260890961,5,1000,5,1,1,3,2,4,5,0,0,250.0,test,5,E+
518.263101578,0,1000,4,1,1,3,2,4,5,0,0,250.0,test,0,E+
599.848985672,2,1000,3,1,1,3,2,4,5,0,0,250.0,test,2,E+
711.630105972,4,1000,2,1,1,3,2,4,5,0,0,250.0,test,4,E+
439.931869507,0,1000,4,1,1,3,2,4,5,0,0,250.0,test,0,E+
551.542043686,5,1000,5,1,1,3,2,4,5,0,0,250.0,test,5,E+
454.95390892,2,1000,3,1,1,3,2,4,5,0,0,250.0,test,2,E+
391.889095306,0,1000,4,1,1,3,2,4,5,0,0,250.0,test,0,E+
471.984863281,1,1000,1,1,1,3,2,4,5,0,0,250.0,test,1,E+
455.825090408,5,1000,5,1,1,3,2,4,5,0,0,250.0,test,5,E+
343.811035156,4,1000,2,1,1,3,2,4,5,0,0,250.0,test,4,E+
408.03194046,5,1000,5,1,1,3,2,4,5,0,0,250.0,test,5,E+
328.747034073,4,1000,2,1,1,3,2,4,5,0,0,250.0,test,4,E+
425.322055817,5,1000,5,1,1,3,2,4,5,0,0,250.0,test,5,E+
438.321113586,1,1000,1,0,1,3,2,4,5,0,0,250.0,test,3,E+
454.153060913,5,1000,5,1,1,3,2,4,5,0,0,250.0,test,5,E+
375.772953033,4,1000,2,1,1,3,2,4,5,0,0,250.0,test,4,E+
422.257900238,1,1000,1,1,1,3,2,4,5,0,0,250.0,test,1,E+
422.166824341,4,1000,2,1,1,3,2,4,5,0,0,250.0,test,4,E+
424.62182045,2,1000,3,1,1,3,2,4,5,0,0,250.0,test,2,E+
438.157081604,5,1000,5,1,1,3,2,4,5,0,0,250.0,test,5,E+
358.903884888,5,1000,5,1,1,3,2,4,5,0,0,250.0,test,5,E+
457.077026367,2,1000,3,1,1,3,2,4,5,0,0,250.0,test,2,E+
438.953876495,1,1000,1,1,1,3,2,4,5,0,0,250.0,test,1,E+
582.082986832,2,1000,3,1,1,3,2,4,5,0,0,250.0,test,2,E+
390.970945358,0,1000,4,1,1,3,2,4,5,0,0,250.0,test,0,E+
534.210205078,5,1000,5,1,1,3,2,4,5,0,0,250.0,test,5,E+
439.061880112,5,1000,5,1,1,3,2,4,5,0,0,250.0,test,5,E+
534.161090851,3,1000,0,1,1,3,2,4,5,0,0,250.0,test,3,E+
438.503980637,0,1000,4,0,1,3,2,4,5,0,0,250.0,test,2,E+
518.177032471,5,1000,5,1,1,3,2,4,5,0,0,250.0,test,5,E+
566.172122955,4,1000,2,1,1,3,2,4,5,0,0,250.0,test,4,E+
759.698152542,4,1000,2,1,1,3,2,4,5,0,0,250.0,test,4,E+
358.544826508,4,1000,2,1,1,3,2,4,5,0,0,250.0,test,4,E+
518.285989761,3,1000,0,1,1,3,2,4,5,0,0,250.0,test,3,E+
470.48997879,5,1000,5,1,1,3,2,4,5,0,0,250.0,test,5,E+
391.301870346,0,1000,4,1,1,3,2,4,5,0,0,250.0,test,0,E+
327.667951584,1,1000,1,1,1,3,2,4,5,0,0,250.0,test,1,E+
311.728954315,2,1000,3,1,1,3,2,4,5,0,0,250.0,test,2,E+
487.837076187,3,1000,0,1,1,3,2,4,5,0,0,250.0,test,3,E+
424.592018127,0,1000,4,1,1,3,2,4,5,0,0,250.0,test,0,E+
503.099918365,3,1000,0,1,1,3,2,4,5,0,0,250.0,test,3,E+
408.637046814,1,1000,1,1,1,3,2,4,5,0,0,250.0,test,1,E+
423.852920532,0,1000,4,1,1,3,2,4,5,0,0,250.0,test,0,E+
247.782945633,1,1000,1,1,1,3,2,4,5,0,0,250.0,test,1,E+
406.947851181,0,1000,4,1,1,3,2,4,5,0,0,250.0,test,0,E+
408.108949661,0,1000,4,1,1,3,2,4,5,0,0,250.0,test,0,E+
343.948125839,1,1000,1,1,1,3,2,4,5,0,0,250.0,test,1,E+
359.908103943,0,1000,4,1,1,3,2,4,5,0,0,250.0,test,0,E+
358.118057251,2,1000,3,1,1,3,2,4,5,0,0,250.0,test,2,E+
582.20410347,5,1000,5,1,1,3,2,4,5,0,0,250.0,test,5,E+
486.135005951,4,1000,2,0,1,3,2,4,5,0,0,250.0,test,3,E+
440.400838852,5,1000,5,1,1,3,2,4,5,0,0,250.0,test,5,E+
889.214038849,2,1000,3,1,1,3,2,4,5,0,0,250.0,test,2,E+
375.602006912,0,1000,4,1,1,3,2,4,5,0,0,250.0,test,0,E+
440.909147263,0,1000,4,1,1,3,2,4,5,0,0,250.0,test,0,E+
696.609973907,3,1000,0,1,1,3,2,4,5,0,0,250.0,test,3,E+
489.104986191,1,1000,1,1,1,3,2,4,5,0,0,250.0,test,1,E+
501.254081726,2,1000,3,0,1,3,2,4,5,0,0,250.0,test,1,E+
534.071922302,5,1000,5,1,1,3,2,4,5,0,0,250.0,test,5,E+
533.582925797,2,1000,3,1,1,3,2,4,5,0,0,250.0,test,2,E+
407.176971436,0,1000,4,1,1,3,2,4,5,0,0,250.0,test,0,E+
502.16794014,5,1000,5,1,1,3,2,4,5,0,0,250.0,test,5,E+
438.137054443,4,1000,2,1,1,3,2,4,5,0,0,250.0,test,4,E+
487.637996674,2,1000,3,1,1,3,2,4,5,0,0,250.0,test,2,E+
549.895048141,5,1000,5,1,1,3,2,4,5,0,0,250.0,test,5,E+
486.200094223,4,1000,2,1,1,3,2,4,5,0,0,250.0,test,4,E+
535.274982452,1,1000,1,1,1,3,2,4,5,0,0,250.0,test,1,E+
455.677986145,4,1000,2,1,1,3,2,4,5,0,0,250.0,test,4,E+
456.586122513,5,1000,5,1,1,3,2,4,5,0,0,250.0,test,5,E+
486.219882965,4,1000,2,1,1,3,2,4,5,0,0,250.0,test,4,E+
567.161083221,2,1000,3,1,1,3,2,4,5,0,0,250.0,test,2,E+
503.538131714,3,1000,0,1,1,3,2,4,5,0,0,250.0,test,3,E+
422.124862671,3,1000,0,1,1,3,2,4,5,0,0,250.0,test,3,E+
535.835981369,2,1000,3,1,1,3,2,4,5,0,0,250.0,test,2,E+
343.075990677,2,1000,3,1,1,3,2,4,5,0,0,250.0,test,2,E+
503.700971603,5,1000,5,1,1,3,2,4,5,0,0,250.0,test,5,E+
503.456830978,2,1000,3,1,1,3,2,4,5,0,0,250.0,test,2,E+
536.063909531,3,1000,0,1,1,3,2,4,5,0,0,250.0,test,3,E+
533.945083618,1,1000,1,1,1,3,2,4,5,0,0,250.0,test,1,E+
311.945199966,0,1000,4,1,1,3,2,4,5,0,0,250.0,test,0,E+
311.355113983,0,1000,4,0,1,3,2,4,5,0,0,250.0,test,1,E+
790.051937103,3,1000,0,1,1,3,2,4,5,0,0,250.0,test,3,E+
406.193971634,0,1000,4,1,1,3,2,4,5,0,0,250.0,test,0,E+
472.805023193,2,1000,3,1,1,3,2,4,5,0,0,250.0,test,2,E+
358.13999176,2,1000,3,1,1,3,2,4,5,0,0,250.0,test,2,E+
375.83398819,2,1000,3,1,1,3,2,4,5,0,0,250.0,test,2,E+
297.394990921,2,1000,3,1,1,3,2,4,5,0,0,250.0,test,2,E+
616.888999939,3,1000,0,1,1,3,2,4,5,0,0,250.0,test,3,E+
582.056999207,5,1000,5,1,1,3,2,4,5,0,0,250.0,test,5,E+
473.363876343,2,1000,3,1,1,3,2,4,5,0,0,250.0,test,2,E+
310.221910477,2,1000,3,1,1,3,2,4,5,0,0,250.0,test,2,E+
409.092187881,1,1000,1,1,1,3,2,4,5,0,0,250.0,test,1,E+
566.978931427,4,1000,2,1,1,3,2,4,5,0,0,250.0,test,4,E+
470.045089722,3,1000,0,1,1,3,2,4,5,0,0,250.0,test,3,E+
326.909780502,3,1000,0,1,1,3,2,4,5,0,0,250.0,test,3,E+
438.032150269,5,1000,5,1,1,3,2,4,5,0,0,250.0,test,5,E+
344.32387352,0,1000,4,1,1,3,2,4,5,0,0,250.0,test,0,E+
519.700050354,4,1000,2,1,1,3,2,4,5,0,0,250.0,test,4,E+
422.15013504,3,1000,0,1,1,3,2,4,5,0,0,250.0,test,3,E+
425.238132477,5,1000,5,1,1,3,2,4,5,0,0,250.0,test,5,E+
293.518066406,0,1000,4,1,1,3,2,4,5,0,0,250.0,test,0,E+
631.626844406,3,1000,0,1,1,3,2,4,5,0,0,250.0,test,3,E+
503.885030746,2,1000,3,1,1,3,2,4,5,0,0,250.0,test,2,E+
567.898035049,4,1000,2,1,1,3,2,4,5,0,0,250.0,test,4,E+
343.461036682,0,1000,4,1,1,3,2,4,5,0,0,250.0,test,0,E+
502.717018127,5,1000,5,1,1,3,2,4,5,0,0,250.0,test,5,E+
391.760826111,1,1000,1,1,1,3,2,4,5,0,0,250.0,test,1,E+
375.936985016,0,1000,4,1,1,3,2,4,5,0,0,250.0,test,0,E+
311.843156815,0,1000,4,0,1,3,2,4,5,0,0,250.0,test,1,E+
455.315113068,1,1000,1,1,1,3,2,4,5,0,0,250.0,test,1,E+
647.608995438,3,1000,0,1,1,3,2,4,5,0,0,250.0,test,3,E+
342.890024185,4,1000,2,1,1,3,2,4,5,0,0,250.0,test,4,E+
615.583181381,2,1000,3,1,1,3,2,4,5,0,0,250.0,test,2,E+
503.321886063,1,1000,1,0,1,3,2,4,5,0,0,250.0,test,0,E+
471.839904785,3,1000,0,1,1,3,2,4,5,0,0,250.0,test,3,E+
423.826932907,5,1000,5,1,1,3,2,4,5,0,0,250.0,test,5,E+
375.874042511,5,1000,5,1,1,3,2,4,5,0,0,250.0,test,5,E+
580.87182045,3,1000,0,1,1,3,2,4,5,0,0,250.0,test,3,E+
374.156951904,1,1000,1,1,1,3,2,4,5,0,0,250.0,test,1,E+
470.175981522,4,1000,2,1,1,3,2,4,5,0,0,250.0,test,4,E+
489.359855652,4,1000,2,0,1,3,2,4,5,0,0,250.0,test,1,E+
457.221984863,0,1000,4,1,1,3,2,4,5,0,0,250.0,test,0,E+
566.329956055,3,1000,0,1,1,3,2,4,5,0,0,250.0,test,3,E+
