RT,correct_response,ms-prestimblank,curstim,correct,SRmap_1,SRmap_0,SRmap_3,SRmap_2,SRmap_5,SRmap_4,ms-precue,ntrials,type,response,condition
6158.45012665,0,600,4,1,2,4,5,3,1,0,400,250.0,train,0,E-
1006.99281693,5,600,3,1,2,4,5,3,1,0,400,250.0,train,5,E-
895.183086395,4,600,0,1,2,4,5,3,1,0,400,250.0,train,4,E-
415.1699543,1,600,5,1,2,4,5,3,1,0,400,250.0,train,1,E-
559.1340065,2,600,1,1,2,4,5,3,1,0,400,250.0,train,2,E-
383.113145828,3,600,2,1,2,4,5,3,1,0,400,250.0,train,3,E-
831.226825714,4,600,0,1,2,4,5,3,1,0,400,250.0,train,4,E-
287.300109863,3,600,2,1,2,4,5,3,1,0,400,250.0,train,3,E-
734.891176224,2,600,1,1,2,4,5,3,1,0,400,250.0,train,2,E-
925.463914871,3,600,2,1,2,4,5,3,1,0,400,250.0,train,3,E-
398.751974106,3,600,2,1,2,4,5,3,1,0,400,250.0,train,3,E-
350.775957108,3,600,2,1,2,4,5,3,1,0,400,250.0,train,3,E-
333.959102631,3,600,2,1,2,4,5,3,1,0,400,250.0,train,3,E-
462.291002274,2,600,1,1,2,4,5,3,1,0,400,250.0,train,2,E-
351.147890091,0,600,4,1,2,4,5,3,1,0,400,250.0,train,0,E-
191.140890121,0,600,4,1,2,4,5,3,1,0,400,250.0,train,0,E-
239.237070084,1,600,5,1,2,4,5,3,1,0,400,250.0,train,1,E-
271.550178528,5,600,3,1,2,4,5,3,1,0,400,250.0,train,5,E-
223.360061646,0,600,4,1,2,4,5,3,1,0,400,250.0,train,0,E-
127.619028091,4,600,0,1,2,4,5,3,1,0,400,250.0,train,4,E-
46.3359355927,0,600,4,1,2,4,5,3,1,0,400,250.0,train,0,E-
143.519878387,1,600,5,1,2,4,5,3,1,0,400,250.0,train,1,E-
207.448005676,3,600,2,0,2,4,5,3,1,0,400,250.0,train,2,E-
607.653141022,3,600,2,1,2,4,5,3,1,0,400,250.0,train,3,E-
127.007007599,1,600,5,1,2,4,5,3,1,0,400,250.0,train,1,E-
238.153934479,3,600,2,1,2,4,5,3,1,0,400,250.0,train,3,E-
110.502958298,1,600,5,0,2,4,5,3,1,0,400,250.0,train,0,E-
1071.08402252,4,600,0,1,2,4,5,3,1,0,400,250.0,train,4,E-
175.10509491,1,600,5,1,2,4,5,3,1,0,400,250.0,train,1,E-
719.177007675,3,600,2,1,2,4,5,3,1,0,400,250.0,train,3,E-
159.377813339,4,600,0,1,2,4,5,3,1,0,400,250.0,train,4,E-
95.2060222626,1,600,5,1,2,4,5,3,1,0,400,250.0,train,1,E-
143.528938293,2,600,1,1,2,4,5,3,1,0,400,250.0,train,2,E-
270.399093628,2,600,1,1,2,4,5,3,1,0,400,250.0,train,2,E-
63.1790161133,0,600,4,1,2,4,5,3,1,0,400,250.0,train,0,E-
463.096141815,3,600,2,1,2,4,5,3,1,0,400,250.0,train,3,E-
111.289024353,0,600,4,1,2,4,5,3,1,0,400,250.0,train,0,E-
223.288059235,2,600,1,1,2,4,5,3,1,0,400,250.0,train,2,E-
110.93711853,1,600,5,1,2,4,5,3,1,0,400,250.0,train,1,E-
238.492012024,1,600,5,1,2,4,5,3,1,0,400,250.0,train,1,E-
303.034067154,5,600,3,1,2,4,5,3,1,0,400,250.0,train,5,E-
175.554990768,3,600,2,1,2,4,5,3,1,0,400,250.0,train,3,E-
527.437925339,1,600,5,1,2,4,5,3,1,0,400,250.0,train,1,E-
399.549007416,5,600,3,1,2,4,5,3,1,0,400,250.0,train,5,E-
127.673149109,1,600,5,1,2,4,5,3,1,0,400,250.0,train,1,E-
271.55995369,4,600,0,0,2,4,5,3,1,0,400,250.0,train,3,E-
239.007949829,4,600,0,1,2,4,5,3,1,0,400,250.0,train,4,E-
63.2131099701,3,600,2,1,2,4,5,3,1,0,400,250.0,train,3,E-
143.383026123,3,600,2,1,2,4,5,3,1,0,400,250.0,train,3,E-
239.075899124,2,600,1,1,2,4,5,3,1,0,400,250.0,train,2,E-
63.6241436005,0,600,4,1,2,4,5,3,1,0,400,250.0,train,0,E-
142.184019089,2,600,1,1,2,4,5,3,1,0,400,250.0,train,2,E-
111.614942551,2,600,1,1,2,4,5,3,1,0,400,250.0,train,2,E-
271.478176117,4,600,0,1,2,4,5,3,1,0,400,250.0,train,4,E-
175.498008728,2,600,1,1,2,4,5,3,1,0,400,250.0,train,2,E-
94.0630435944,3,600,2,1,2,4,5,3,1,0,400,250.0,train,3,E-
207.536935806,5,600,3,1,2,4,5,3,1,0,400,250.0,train,5,E-
415.518045425,2,600,1,1,2,4,5,3,1,0,400,250.0,train,2,E-
174.139976501,3,600,2,1,2,4,5,3,1,0,400,250.0,train,3,E-
191.041946411,2,600,1,1,2,4,5,3,1,0,400,250.0,train,2,E-
110.556125641,0,600,4,1,2,4,5,3,1,0,400,250.0,train,0,E-
111.205101013,1,600,5,1,2,4,5,3,1,0,400,250.0,train,1,E-
158.294916153,1,600,5,1,2,4,5,3,1,0,400,250.0,train,1,E-
399.541139603,3,600,2,1,2,4,5,3,1,0,400,250.0,train,3,E-
110.330104828,1,600,5,1,2,4,5,3,1,0,400,250.0,train,1,E-
78.8259506226,2,600,1,1,2,4,5,3,1,0,400,250.0,train,2,E-
367.568969727,5,600,3,1,2,4,5,3,1,0,400,250.0,train,5,E-
158.60581398,4,600,0,1,2,4,5,3,1,0,400,250.0,train,4,E-
142.417907715,2,600,1,1,2,4,5,3,1,0,400,250.0,train,2,E-
334.626913071,3,600,2,1,2,4,5,3,1,0,400,250.0,train,3,E-
111.674070358,1,600,5,1,2,4,5,3,1,0,400,250.0,train,1,E-
175.16207695,1,600,5,1,2,4,5,3,1,0,400,250.0,train,1,E-
159.546136856,5,600,3,1,2,4,5,3,1,0,400,250.0,train,5,E-
95.5910682678,4,600,0,1,2,4,5,3,1,0,400,250.0,train,4,E-
143.648862839,3,600,2,1,2,4,5,3,1,0,400,250.0,train,3,E-
350.549936295,3,600,2,1,2,4,5,3,1,0,400,250.0,train,3,E-
174.364089966,4,600,0,1,2,4,5,3,1,0,400,250.0,train,4,E-
303.152084351,1,600,5,1,2,4,5,3,1,0,400,250.0,train,1,E-
446.495056152,4,600,0,1,2,4,5,3,1,0,400,250.0,train,4,E-
238.330841064,5,600,3,1,2,4,5,3,1,0,400,250.0,train,5,E-
255.615949631,1,600,5,0,2,4,5,3,1,0,400,250.0,train,3,E-
239.608049393,3,600,2,1,2,4,5,3,1,0,400,250.0,train,3,E-
207.545995712,3,600,2,1,2,4,5,3,1,0,400,250.0,train,3,E-
431.664943695,2,600,1,1,2,4,5,3,1,0,400,250.0,train,2,E-
143.676042557,4,600,0,1,2,4,5,3,1,0,400,250.0,train,4,E-
398.950099945,5,600,3,1,2,4,5,3,1,0,400,250.0,train,5,E-
254.998922348,3,600,2,1,2,4,5,3,1,0,400,250.0,train,3,E-
223.611831665,5,600,3,1,2,4,5,3,1,0,400,250.0,train,5,E-
63.6148452759,3,600,2,1,2,4,5,3,1,0,400,250.0,train,3,E-
511.229038239,3,600,2,1,2,4,5,3,1,0,400,250.0,train,3,E-
350.461006165,2,600,1,1,2,4,5,3,1,0,400,250.0,train,2,E-
126.425027847,1,600,5,1,2,4,5,3,1,0,400,250.0,train,1,E-
399.632930756,4,600,0,1,2,4,5,3,1,0,400,250.0,train,4,E-
190.225124359,0,600,4,1,2,4,5,3,1,0,400,250.0,train,0,E-
95.1840877533,5,600,3,1,2,4,5,3,1,0,400,250.0,train,5,E-
239.210128784,2,600,1,1,2,4,5,3,1,0,400,250.0,train,2,E-
142.341852188,1,600,5,1,2,4,5,3,1,0,400,250.0,train,1,E-
110.40186882,5,600,3,1,2,4,5,3,1,0,400,250.0,train,5,E-
78.4678459167,1,600,5,1,2,4,5,3,1,0,400,250.0,train,1,E-
109.865188599,0,600,4,1,2,4,5,3,1,0,400,250.0,train,0,E-
126.325845718,1,600,5,1,2,4,5,3,1,0,400,250.0,train,1,E-
110.433101654,0,600,4,1,2,4,5,3,1,0,400,250.0,train,0,E-
318.475961685,3,600,2,1,2,4,5,3,1,0,400,250.0,train,3,E-
254.996061325,5,600,3,1,2,4,5,3,1,0,400,250.0,train,5,E-
94.3400859833,2,600,1,0,2,4,5,3,1,0,400,250.0,train,1,E-
94.5448875427,0,600,4,1,2,4,5,3,1,0,400,250.0,train,0,E-
30.5700302124,0,600,4,1,2,4,5,3,1,0,400,250.0,train,0,E-
0.0519752502441,0,600,4,1,2,4,5,3,1,0,400,250.0,train,0,E-
62.3619556427,1,600,5,1,2,4,5,3,1,0,400,250.0,train,1,E-
223.557949066,5,600,3,1,2,4,5,3,1,0,400,250.0,train,5,E-
239.106893539,1,600,5,1,2,4,5,3,1,0,400,250.0,train,1,E-
159.600973129,5,600,3,1,2,4,5,3,1,0,400,250.0,train,5,E-
110.852003098,4,600,0,1,2,4,5,3,1,0,400,250.0,train,4,E-
255.539894104,2,600,1,1,2,4,5,3,1,0,400,250.0,train,2,E-
95.5369472504,0,600,4,1,2,4,5,3,1,0,400,250.0,train,0,E-
383.562088013,4,600,0,1,2,4,5,3,1,0,400,250.0,train,4,E-
270.770072937,0,600,4,1,2,4,5,3,1,0,400,250.0,train,0,E-
399.570941925,2,600,1,1,2,4,5,3,1,0,400,250.0,train,2,E-
526.832103729,5,600,3,1,2,4,5,3,1,0,400,250.0,train,5,E-
158.982038498,2,600,1,1,2,4,5,3,1,0,400,250.0,train,2,E-
78.625202179,2,600,1,1,2,4,5,3,1,0,400,250.0,train,2,E-
1055.00197411,2,600,1,1,2,4,5,3,1,0,400,250.0,train,2,E-
206.336975098,5,600,3,1,2,4,5,3,1,0,400,250.0,train,5,E-
159.065008163,4,600,0,1,2,4,5,3,1,0,400,250.0,train,4,E-
286.883831024,1,600,5,1,2,4,5,3,1,0,400,250.0,train,1,E-
287.541866302,3,600,2,1,2,4,5,3,1,0,400,250.0,train,3,E-
221.987009048,5,600,3,1,2,4,5,3,1,0,400,250.0,train,5,E-
111.05298996,0,600,4,1,2,4,5,3,1,0,400,250.0,train,0,E-
366.425037384,3,600,2,1,2,4,5,3,1,0,400,250.0,train,3,E-
190.17791748,1,600,5,1,2,4,5,3,1,0,400,250.0,train,1,E-
447.526931763,4,600,0,1,2,4,5,3,1,0,400,250.0,train,4,E-
159.466981888,1,600,5,1,2,4,5,3,1,0,400,250.0,train,1,E-
303.480148315,3,600,2,1,2,4,5,3,1,0,400,250.0,train,3,E-
367.569923401,4,600,0,1,2,4,5,3,1,0,400,250.0,train,4,E-
111.63020134,4,600,0,1,2,4,5,3,1,0,400,250.0,train,4,E-
127.449989319,1,600,5,1,2,4,5,3,1,0,400,250.0,train,1,E-
127.585887909,5,600,3,1,2,4,5,3,1,0,400,250.0,train,5,E-
447.555065155,3,600,2,1,2,4,5,3,1,0,400,250.0,train,3,E-
0.0650882720947,3,600,2,1,2,4,5,3,1,0,400,250.0,train,3,E-
495.488882065,5,600,3,1,2,4,5,3,1,0,400,250.0,train,5,E-
79.0212154388,4,600,0,1,2,4,5,3,1,0,400,250.0,train,4,E-
223.443984985,2,600,1,1,2,4,5,3,1,0,400,250.0,train,2,E-
95.4749584198,1,600,5,1,2,4,5,3,1,0,400,250.0,train,1,E-
95.7059860229,0,600,4,1,2,4,5,3,1,0,400,250.0,train,0,E-
447.62301445,3,600,2,1,2,4,5,3,1,0,400,250.0,train,3,E-
95.0679779053,0,600,4,1,2,4,5,3,1,0,400,250.0,train,0,E-
191.476106644,5,600,3,1,2,4,5,3,1,0,400,250.0,train,5,E-
239.594936371,4,600,0,1,2,4,5,3,1,0,400,250.0,train,4,E-
47.003030777,0,600,4,1,2,4,5,3,1,0,400,250.0,train,0,E-
238.497972488,4,600,0,1,2,4,5,3,1,0,400,250.0,train,4,E-
0.0550746917725,0,600,4,1,2,4,5,3,1,0,400,250.0,train,0,E-
111.215829849,1,600,5,1,2,4,5,3,1,0,400,250.0,train,1,E-
159.100055695,5,600,3,1,2,4,5,3,1,0,400,250.0,train,5,E-
206.4909935,2,600,1,1,2,4,5,3,1,0,400,250.0,train,2,E-
142.957210541,5,600,3,1,2,4,5,3,1,0,400,250.0,train,5,E-
127.661943436,3,600,2,1,2,4,5,3,1,0,400,250.0,train,3,E-
175.524950027,2,600,1,1,2,4,5,3,1,0,400,250.0,train,2,E-
30.9679508209,1,600,5,1,2,4,5,3,1,0,400,250.0,train,1,E-
15.6319141388,0,600,4,1,2,4,5,3,1,0,400,250.0,train,0,E-
45.9218025208,1,600,5,1,2,4,5,3,1,0,400,250.0,train,1,E-
63.0960464478,1,600,5,1,2,4,5,3,1,0,400,250.0,train,1,E-
287.5020504,3,600,2,1,2,4,5,3,1,0,400,250.0,train,3,E-
95.2401161194,1,600,5,1,2,4,5,3,1,0,400,250.0,train,1,E-
174.259901047,5,600,3,1,2,4,5,3,1,0,400,250.0,train,5,E-
62.4461174011,0,600,4,1,2,4,5,3,1,0,400,250.0,train,0,E-
206.371068954,2,600,1,1,2,4,5,3,1,0,400,250.0,train,2,E-
62.8020763397,3,600,2,1,2,4,5,3,1,0,400,250.0,train,3,E-
15.5348777771,4,600,0,1,2,4,5,3,1,0,400,250.0,train,4,E-
30.5328369141,0,600,4,1,2,4,5,3,1,0,400,250.0,train,0,E-
111.111164093,2,600,1,1,2,4,5,3,1,0,400,250.0,train,2,E-
126.32894516,3,600,2,1,2,4,5,3,1,0,400,250.0,train,3,E-
110.597133636,1,600,5,1,2,4,5,3,1,0,400,250.0,train,1,E-
270.421981812,0,600,4,1,2,4,5,3,1,0,400,250.0,train,0,E-
0.0560283660889,0,600,4,1,2,4,5,3,1,0,400,250.0,train,0,E-
318.552017212,2,600,1,1,2,4,5,3,1,0,400,250.0,train,2,E-
350.544929504,4,600,0,1,2,4,5,3,1,0,400,250.0,train,4,E-
62.4611377716,1,600,5,1,2,4,5,3,1,0,400,250.0,train,1,E-
159.597873688,5,600,3,1,2,4,5,3,1,0,400,250.0,train,5,E-
767.591953278,0,600,4,1,2,4,5,3,1,0,400,250.0,train,0,E-
270.932912827,5,600,3,1,2,4,5,3,1,0,400,250.0,train,5,E-
62.8769397736,0,600,4,1,2,4,5,3,1,0,400,250.0,train,0,E-
414.491176605,4,600,0,1,2,4,5,3,1,0,400,250.0,train,4,E-
29.60896492,0,600,4,1,2,4,5,3,1,0,400,250.0,train,0,E-
159.195899963,2,600,1,1,2,4,5,3,1,0,400,250.0,train,2,E-
222.285032272,3,600,2,1,2,4,5,3,1,0,400,250.0,train,3,E-
190.710067749,4,600,0,1,2,4,5,3,1,0,400,250.0,train,4,E-
110.118150711,5,600,3,1,2,4,5,3,1,0,400,250.0,train,5,E-
158.318996429,2,600,1,1,2,4,5,3,1,0,400,250.0,train,2,E-
94.1078662872,0,600,4,1,2,4,5,3,1,0,400,250.0,train,0,E-
222.357988358,3,600,2,1,2,4,5,3,1,0,400,250.0,train,3,E-
47.7340221405,0,600,4,1,2,4,5,3,1,0,400,250.0,train,0,E-
95.5450534821,2,600,1,1,2,4,5,3,1,0,400,250.0,train,2,E-
175.559043884,1,600,5,1,2,4,5,3,1,0,400,250.0,train,1,E-
63.6870861053,0,600,4,1,2,4,5,3,1,0,400,250.0,train,0,E-
111.665964127,3,600,2,1,2,4,5,3,1,0,400,250.0,train,3,E-
111.55295372,2,600,1,1,2,4,5,3,1,0,400,250.0,train,2,E-
191.476821899,4,600,0,1,2,4,5,3,1,0,400,250.0,train,4,E-
207.542896271,2,600,1,1,2,4,5,3,1,0,400,250.0,train,2,E-
207.566976547,4,600,0,1,2,4,5,3,1,0,400,250.0,train,4,E-
47.7068424225,0,600,4,1,2,4,5,3,1,0,400,250.0,train,0,E-
127.602100372,2,600,1,1,2,4,5,3,1,0,400,250.0,train,2,E-
718.70303154,2,600,1,1,2,4,5,3,1,0,400,250.0,train,2,E-
79.6458721161,3,600,2,1,2,4,5,3,1,0,400,250.0,train,3,E-
254.866838455,3,600,2,1,2,4,5,3,1,0,400,250.0,train,3,E-
191.46490097,3,600,2,1,2,4,5,3,1,0,400,250.0,train,3,E-
542.159080505,3,600,2,1,2,4,5,3,1,0,400,250.0,train,3,E-
61.2211227417,3,600,2,1,2,4,5,3,1,0,400,250.0,train,3,E-
126.523971558,0,600,4,1,2,4,5,3,1,0,400,250.0,train,0,E-
79.8761844635,2,600,1,0,2,4,5,3,1,0,400,250.0,train,3,E-
206.974029541,2,600,1,1,2,4,5,3,1,0,400,250.0,train,2,E-
14.6119594574,1,600,5,0,2,4,5,3,1,0,400,250.0,train,2,E-
126.449108124,1,600,5,1,2,4,5,3,1,0,400,250.0,train,1,E-
335.097074509,3,600,2,1,2,4,5,3,1,0,400,250.0,train,3,E-
254.017829895,5,600,3,1,2,4,5,3,1,0,400,250.0,train,5,E-
189.944982529,3,600,2,1,2,4,5,3,1,0,400,250.0,train,3,E-
159.606933594,3,600,2,1,2,4,5,3,1,0,400,250.0,train,3,E-
127.535104752,2,600,1,0,2,4,5,3,1,0,400,250.0,train,1,E-
318.821907043,4,600,0,1,2,4,5,3,1,0,400,250.0,train,4,E-
174.911975861,5,600,3,1,2,4,5,3,1,0,400,250.0,train,5,E-
78.8259506226,0,600,4,1,2,4,5,3,1,0,400,250.0,train,0,E-
126.893997192,2,600,1,1,2,4,5,3,1,0,400,250.0,train,2,E-
126.371860504,1,600,5,1,2,4,5,3,1,0,400,250.0,train,1,E-
238.579034805,4,600,0,1,2,4,5,3,1,0,400,250.0,train,4,E-
78.428030014,0,600,4,1,2,4,5,3,1,0,400,250.0,train,0,E-
399.67083931,3,600,2,1,2,4,5,3,1,0,400,250.0,train,3,E-
31.7680835724,0,600,4,1,2,4,5,3,1,0,400,250.0,train,0,E-
254.693984985,2,600,1,1,2,4,5,3,1,0,400,250.0,train,2,E-
382.999897003,4,600,0,1,2,4,5,3,1,0,400,250.0,train,4,E-
398.92411232,4,600,0,1,2,4,5,3,1,0,400,250.0,train,4,E-
62.9141330719,4,600,0,1,2,4,5,3,1,0,400,250.0,train,4,E-
254.678964615,1,600,5,1,2,4,5,3,1,0,400,250.0,train,1,E-
238.963127136,4,600,0,1,2,4,5,3,1,0,400,250.0,train,4,E-
110.506057739,4,600,0,1,2,4,5,3,1,0,400,250.0,train,4,E-
238.44408989,2,600,1,1,2,4,5,3,1,0,400,250.0,train,2,E-
46.284198761,0,600,4,1,2,4,5,3,1,0,400,250.0,train,0,E-
126.408100128,1,600,5,1,2,4,5,3,1,0,400,250.0,train,1,E-
143.049001694,1,600,5,1,2,4,5,3,1,0,400,250.0,train,1,E-
254.388093948,4,600,0,1,2,4,5,3,1,0,400,250.0,train,4,E-
286.078929901,3,600,2,1,2,4,5,3,1,0,400,250.0,train,3,E-
175.154924393,3,600,2,1,2,4,5,3,1,0,400,250.0,train,3,E-
143.24092865,1,600,5,1,2,4,5,3,1,0,400,250.0,train,1,E-
158.312797546,2,600,1,1,2,4,5,3,1,0,400,250.0,train,2,E-
15.655040741,0,600,4,1,2,4,5,3,1,0,400,250.0,train,0,E-
47.7390289307,1,600,5,1,2,4,5,3,1,0,400,250.0,train,1,E-
190.565109253,3,600,2,1,2,4,5,3,1,0,400,250.0,train,3,E-
110.577106476,5,600,3,1,2,4,5,3,1,0,400,250.0,train,5,E-
286.291122437,3,600,2,1,2,4,5,3,1,0,400,250.0,train,3,E-
126.194000244,3,600,2,1,2,4,5,3,1,0,400,250.0,train,3,E-
158.966064453,3,600,2,1,2,4,5,3,1,0,400,250.0,train,3,E-
158.140897751,0,600,4,1,2,4,5,3,1,0,400,250.0,train,0,E-
655.076026917,5,1000,5,1,1,3,4,2,5,0,0,250.0,test,5,E-
542.459964752,3,1000,0,1,1,3,4,2,5,0,0,250.0,test,3,E-
509.130954742,5,1000,5,1,1,3,4,2,5,0,0,250.0,test,5,E-
829.645872116,2,1000,2,1,1,3,4,2,5,0,0,250.0,test,2,E-
638.701200485,3,1000,0,1,1,3,4,2,5,0,0,250.0,test,3,E-
509.824037552,1,1000,1,1,1,3,4,2,5,0,0,250.0,test,1,E-
478.128910065,1,1000,1,1,1,3,4,2,5,0,0,250.0,test,1,E-
638.928174973,2,1000,2,1,1,3,4,2,5,0,0,250.0,test,2,E-
574.223995209,5,1000,5,1,1,3,4,2,5,0,0,250.0,test,5,E-
542.293071747,1,1000,1,1,1,3,4,2,5,0,0,250.0,test,1,E-
572.515010834,0,1000,4,1,1,3,4,2,5,0,0,250.0,test,0,E-
926.554918289,4,1000,3,1,1,3,4,2,5,0,0,250.0,test,4,E-
414.170026779,0,1000,4,1,1,3,4,2,5,0,0,250.0,test,0,E-
526.41415596,5,1000,5,1,1,3,4,2,5,0,0,250.0,test,5,E-
557.615995407,3,1000,0,1,1,3,4,2,5,0,0,250.0,test,3,E-
542.194128036,2,1000,2,1,1,3,4,2,5,0,0,250.0,test,2,E-
526.285171509,5,1000,5,1,1,3,4,2,5,0,0,250.0,test,5,E-
494.726896286,5,1000,5,1,1,3,4,2,5,0,0,250.0,test,5,E-
542.279005051,3,1000,0,1,1,3,4,2,5,0,0,250.0,test,3,E-
590.394020081,3,1000,0,1,1,3,4,2,5,0,0,250.0,test,3,E-
573.518037796,2,1000,2,1,1,3,4,2,5,0,0,250.0,test,2,E-
543.002128601,3,1000,0,0,1,3,4,2,5,0,0,250.0,test,2,E-
653.458118439,4,1000,3,1,1,3,4,2,5,0,0,250.0,test,4,E-
526.90410614,4,1000,3,1,1,3,4,2,5,0,0,250.0,test,4,E-
590.479850769,3,1000,0,1,1,3,4,2,5,0,0,250.0,test,3,E-
622.644901276,4,1000,3,1,1,3,4,2,5,0,0,250.0,test,4,E-
543.562889099,5,1000,5,1,1,3,4,2,5,0,0,250.0,test,5,E-
750.803232193,2,1000,2,1,1,3,4,2,5,0,0,250.0,test,2,E-
623.584032059,3,1000,0,1,1,3,4,2,5,0,0,250.0,test,3,E-
879.113197327,4,1000,3,1,1,3,4,2,5,0,0,250.0,test,4,E-
527.629137039,4,1000,3,1,1,3,4,2,5,0,0,250.0,test,4,E-
511.52586937,0,1000,4,1,1,3,4,2,5,0,0,250.0,test,0,E-
526.781082153,5,1000,5,1,1,3,4,2,5,0,0,250.0,test,5,E-
590.177059174,3,1000,0,1,1,3,4,2,5,0,0,250.0,test,3,E-
638.22388649,2,1000,2,1,1,3,4,2,5,0,0,250.0,test,2,E-
558.533906937,2,1000,2,1,1,3,4,2,5,0,0,250.0,test,2,E-
542.327165604,3,1000,0,1,1,3,4,2,5,0,0,250.0,test,3,E-
558.277130127,3,1000,0,1,1,3,4,2,5,0,0,250.0,test,3,E-
575.531005859,4,1000,3,1,1,3,4,2,5,0,0,250.0,test,4,E-
910.460948944,2,1000,2,1,1,3,4,2,5,0,0,250.0,test,2,E-
558.553934097,3,1000,0,1,1,3,4,2,5,0,0,250.0,test,3,E-
718.345880508,1,1000,1,1,1,3,4,2,5,0,0,250.0,test,1,E-
559.553861618,3,1000,0,1,1,3,4,2,5,0,0,250.0,test,3,E-
670.784950256,4,1000,3,1,1,3,4,2,5,0,0,250.0,test,4,E-
639.071941376,3,1000,0,1,1,3,4,2,5,0,0,250.0,test,3,E-
847.083091736,5,1000,5,1,1,3,4,2,5,0,0,250.0,test,5,E-
623.142957687,4,1000,3,1,1,3,4,2,5,0,0,250.0,test,4,E-
543.133974075,4,1000,3,1,1,3,4,2,5,0,0,250.0,test,4,E-
510.978937149,0,1000,4,1,1,3,4,2,5,0,0,250.0,test,0,E-
718.228816986,4,1000,3,1,1,3,4,2,5,0,0,250.0,test,4,E-
639.167070389,1,1000,1,1,1,3,4,2,5,0,0,250.0,test,1,E-
543.146133423,5,1000,5,1,1,3,4,2,5,0,0,250.0,test,5,E-
591.085195541,3,1000,0,1,1,3,4,2,5,0,0,250.0,test,3,E-
622.442960739,4,1000,3,1,1,3,4,2,5,0,0,250.0,test,4,E-
622.430086136,3,1000,0,1,1,3,4,2,5,0,0,250.0,test,3,E-
542.458057404,2,1000,2,1,1,3,4,2,5,0,0,250.0,test,2,E-
1053.29608917,4,1000,3,1,1,3,4,2,5,0,0,250.0,test,4,E-
574.857950211,4,1000,3,1,1,3,4,2,5,0,0,250.0,test,4,E-
494.930028915,5,1000,5,1,1,3,4,2,5,0,0,250.0,test,5,E-
462.202072144,5,1000,5,1,1,3,4,2,5,0,0,250.0,test,5,E-
412.942171097,5,1000,5,1,1,3,4,2,5,0,0,250.0,test,5,E-
303.591966629,4,1000,3,0,1,3,4,2,5,0,0,250.0,test,5,E-
654.344081879,1,1000,1,1,1,3,4,2,5,0,0,250.0,test,1,E-
445.746898651,1,1000,1,1,1,3,4,2,5,0,0,250.0,test,1,E-
495.574951172,0,1000,4,1,1,3,4,2,5,0,0,250.0,test,0,E-
654.548883438,4,1000,3,1,1,3,4,2,5,0,0,250.0,test,4,E-
573.385953903,2,1000,2,1,1,3,4,2,5,0,0,250.0,test,2,E-
862.934827805,5,1000,5,1,1,3,4,2,5,0,0,250.0,test,5,E-
463.644981384,4,1000,3,1,1,3,4,2,5,0,0,250.0,test,4,E-
574.411869049,1,1000,1,1,1,3,4,2,5,0,0,250.0,test,1,E-
478.085041046,0,1000,4,1,1,3,4,2,5,0,0,250.0,test,0,E-
510.326147079,2,1000,2,1,1,3,4,2,5,0,0,250.0,test,2,E-
479.019880295,0,1000,4,1,1,3,4,2,5,0,0,250.0,test,0,E-
399.085998535,0,1000,4,1,1,3,4,2,5,0,0,250.0,test,0,E-
622.948884964,2,1000,2,1,1,3,4,2,5,0,0,250.0,test,2,E-
510.631084442,4,1000,3,1,1,3,4,2,5,0,0,250.0,test,4,E-
734.481811523,2,1000,2,1,1,3,4,2,5,0,0,250.0,test,2,E-
749.903202057,3,1000,0,1,1,3,4,2,5,0,0,250.0,test,3,E-
478.111982346,5,1000,5,1,1,3,4,2,5,0,0,250.0,test,5,E-
571.836948395,0,1000,4,1,1,3,4,2,5,0,0,250.0,test,0,E-
558.393001556,2,1000,2,1,1,3,4,2,5,0,0,250.0,test,2,E-
495.559930801,1,1000,1,1,1,3,4,2,5,0,0,250.0,test,1,E-
557.350873947,3,1000,0,0,1,3,4,2,5,0,0,250.0,test,2,E-
574.470996857,1,1000,1,1,1,3,4,2,5,0,0,250.0,test,1,E-
557.665109634,3,1000,0,1,1,3,4,2,5,0,0,250.0,test,3,E-
590.531110764,1,1000,1,1,1,3,4,2,5,0,0,250.0,test,1,E-
543.081998825,2,1000,2,0,1,3,4,2,5,0,0,250.0,test,3,E-
719.028949738,4,1000,3,1,1,3,4,2,5,0,0,250.0,test,4,E-
751.060009003,2,1000,2,1,1,3,4,2,5,0,0,250.0,test,2,E-
718.616962433,2,1000,2,1,1,3,4,2,5,0,0,250.0,test,2,E-
622.545003891,2,1000,2,1,1,3,4,2,5,0,0,250.0,test,2,E-
383.407831192,2,1000,2,1,1,3,4,2,5,0,0,250.0,test,2,E-
750.097990036,3,1000,0,1,1,3,4,2,5,0,0,250.0,test,3,E-
655.512094498,4,1000,3,1,1,3,4,2,5,0,0,250.0,test,4,E-
542.004823685,3,1000,0,1,1,3,4,2,5,0,0,250.0,test,3,E-
494.408845901,0,1000,4,1,1,3,4,2,5,0,0,250.0,test,0,E-
781.30197525,5,1000,5,1,1,3,4,2,5,0,0,250.0,test,5,E-
1230.37004471,4,1000,3,1,1,3,4,2,5,0,0,250.0,test,4,E-
414.212942123,0,1000,4,1,1,3,4,2,5,0,0,250.0,test,0,E-
638.440132141,4,1000,3,1,1,3,4,2,5,0,0,250.0,test,4,E-
685.45794487,2,1000,2,1,1,3,4,2,5,0,0,250.0,test,2,E-
845.248937607,4,1000,3,1,1,3,4,2,5,0,0,250.0,test,4,E-
621.489048004,2,1000,2,1,1,3,4,2,5,0,0,250.0,test,2,E-
543.078184128,1,1000,1,1,1,3,4,2,5,0,0,250.0,test,1,E-
414.527893066,0,1000,4,1,1,3,4,2,5,0,0,250.0,test,0,E-
558.0098629,2,1000,2,1,1,3,4,2,5,0,0,250.0,test,2,E-
462.45598793,2,1000,2,1,1,3,4,2,5,0,0,250.0,test,2,E-
542.054891586,1,1000,1,1,1,3,4,2,5,0,0,250.0,test,1,E-
543.50399971,2,1000,2,1,1,3,4,2,5,0,0,250.0,test,2,E-
622.141122818,5,1000,5,1,1,3,4,2,5,0,0,250.0,test,5,E-
558.071136475,4,1000,3,1,1,3,4,2,5,0,0,250.0,test,4,E-
605.406999588,1,1000,1,1,1,3,4,2,5,0,0,250.0,test,1,E-
575.538873672,2,1000,2,1,1,3,4,2,5,0,0,250.0,test,2,E-
494.01307106,1,1000,1,1,1,3,4,2,5,0,0,250.0,test,1,E-
463.104009628,0,1000,4,1,1,3,4,2,5,0,0,250.0,test,0,E-
446.462869644,1,1000,1,1,1,3,4,2,5,0,0,250.0,test,1,E-
462.988138199,1,1000,1,1,1,3,4,2,5,0,0,250.0,test,1,E-
477.061033249,1,1000,1,1,1,3,4,2,5,0,0,250.0,test,1,E-
669.39496994,3,1000,0,1,1,3,4,2,5,0,0,250.0,test,3,E-
590.854167938,5,1000,5,1,1,3,4,2,5,0,0,250.0,test,5,E-
653.755187988,2,1000,2,1,1,3,4,2,5,0,0,250.0,test,2,E-
957.410097122,5,1000,5,1,1,3,4,2,5,0,0,250.0,test,5,E-
766.494989395,3,1000,0,1,1,3,4,2,5,0,0,250.0,test,3,E-
558.552980423,1,1000,1,1,1,3,4,2,5,0,0,250.0,test,1,E-
542.127847672,2,1000,2,1,1,3,4,2,5,0,0,250.0,test,2,E-
558.841943741,5,1000,5,1,1,3,4,2,5,0,0,250.0,test,5,E-
558.243989944,4,1000,3,1,1,3,4,2,5,0,0,250.0,test,4,E-
605.279922485,5,1000,5,1,1,3,4,2,5,0,0,250.0,test,5,E-
526.639938354,5,1000,5,1,1,3,4,2,5,0,0,250.0,test,5,E-
526.369094849,5,1000,5,1,1,3,4,2,5,0,0,250.0,test,5,E-
591.402053833,0,1000,4,1,1,3,4,2,5,0,0,250.0,test,0,E-
510.34116745,1,1000,1,1,1,3,4,2,5,0,0,250.0,test,1,E-
798.276901245,3,1000,0,1,1,3,4,2,5,0,0,250.0,test,3,E-
494.650125504,0,1000,4,1,1,3,4,2,5,0,0,250.0,test,0,E-
557.11388588,1,1000,1,1,1,3,4,2,5,0,0,250.0,test,1,E-
590.262174606,3,1000,0,1,1,3,4,2,5,0,0,250.0,test,3,E-
445.863008499,0,1000,4,1,1,3,4,2,5,0,0,250.0,test,0,E-
542.872905731,5,1000,5,1,1,3,4,2,5,0,0,250.0,test,5,E-
557.189941406,4,1000,3,1,1,3,4,2,5,0,0,250.0,test,4,E-
461.549043655,0,1000,4,1,1,3,4,2,5,0,0,250.0,test,0,E-
446.507930756,0,1000,4,1,1,3,4,2,5,0,0,250.0,test,0,E-
430.797815323,0,1000,4,1,1,3,4,2,5,0,0,250.0,test,0,E-
494.559049606,5,1000,5,1,1,3,4,2,5,0,0,250.0,test,5,E-
494.004011154,5,1000,5,1,1,3,4,2,5,0,0,250.0,test,5,E-
398.263931274,5,1000,5,1,1,3,4,2,5,0,0,250.0,test,5,E-
1182.57212639,2,1000,2,1,1,3,4,2,5,0,0,250.0,test,2,E-
527.09197998,1,1000,1,1,1,3,4,2,5,0,0,250.0,test,1,E-
622.709035873,4,1000,3,1,1,3,4,2,5,0,0,250.0,test,4,E-
526.197910309,1,1000,1,1,1,3,4,2,5,0,0,250.0,test,1,E-
590.881109238,3,1000,0,1,1,3,4,2,5,0,0,250.0,test,3,E-
590.445995331,2,1000,2,1,1,3,4,2,5,0,0,250.0,test,2,E-
525.591135025,3,1000,0,1,1,3,4,2,5,0,0,250.0,test,3,E-
494.071006775,1,1000,1,1,1,3,4,2,5,0,0,250.0,test,1,E-
525.38895607,5,1000,5,1,1,3,4,2,5,0,0,250.0,test,5,E-
445.863962173,0,1000,4,1,1,3,4,2,5,0,0,250.0,test,0,E-
525.25806427,1,1000,1,1,1,3,4,2,5,0,0,250.0,test,1,E-
557.127952576,3,1000,0,1,1,3,4,2,5,0,0,250.0,test,3,E-
510.997056961,5,1000,5,1,1,3,4,2,5,0,0,250.0,test,5,E-
957.414150238,3,1000,0,1,1,3,4,2,5,0,0,250.0,test,3,E-
574.429988861,5,1000,5,1,1,3,4,2,5,0,0,250.0,test,5,E-
557.796001434,5,1000,5,1,1,3,4,2,5,0,0,250.0,test,5,E-
574.434995651,4,1000,3,1,1,3,4,2,5,0,0,250.0,test,4,E-
510.417938232,5,1000,5,1,1,3,4,2,5,0,0,250.0,test,5,E-
494.379043579,3,1000,0,1,1,3,4,2,5,0,0,250.0,test,3,E-
462.392807007,1,1000,1,1,1,3,4,2,5,0,0,250.0,test,1,E-
702.693939209,3,1000,0,1,1,3,4,2,5,0,0,250.0,test,3,E-
558.313131332,1,1000,1,1,1,3,4,2,5,0,0,250.0,test,1,E-
365.975141525,1,1000,1,1,1,3,4,2,5,0,0,250.0,test,1,E-
414.721012115,1,1000,1,1,1,3,4,2,5,0,0,250.0,test,1,E-
542.646884918,5,1000,5,1,1,3,4,2,5,0,0,250.0,test,5,E-
558.6810112,4,1000,3,1,1,3,4,2,5,0,0,250.0,test,4,E-
509.495019913,5,1000,5,1,1,3,4,2,5,0,0,250.0,test,5,E-
526.504039764,1,1000,1,1,1,3,4,2,5,0,0,250.0,test,1,E-
655.157804489,2,1000,2,1,1,3,4,2,5,0,0,250.0,test,2,E-
575.083971024,5,1000,5,1,1,3,4,2,5,0,0,250.0,test,5,E-
575.60300827,3,1000,0,1,1,3,4,2,5,0,0,250.0,test,3,E-
655.107021332,2,1000,2,1,1,3,4,2,5,0,0,250.0,test,2,E-
590.000867844,5,1000,5,1,1,3,4,2,5,0,0,250.0,test,5,E-
637.187957764,3,1000,0,1,1,3,4,2,5,0,0,250.0,test,3,E-
462.407827377,3,1000,0,1,1,3,4,2,5,0,0,250.0,test,3,E-
575.168848038,1,1000,1,1,1,3,4,2,5,0,0,250.0,test,1,E-
606.615066528,5,1000,5,1,1,3,4,2,5,0,0,250.0,test,5,E-
670.567035675,4,1000,3,1,1,3,4,2,5,0,0,250.0,test,4,E-
654.620885849,3,1000,0,1,1,3,4,2,5,0,0,250.0,test,3,E-
670.654058456,3,1000,0,1,1,3,4,2,5,0,0,250.0,test,3,E-
670.321941376,3,1000,0,1,1,3,4,2,5,0,0,250.0,test,3,E-
846.441984177,4,1000,3,1,1,3,4,2,5,0,0,250.0,test,4,E-
607.506990433,5,1000,5,1,1,3,4,2,5,0,0,250.0,test,5,E-
541.244983673,1,1000,1,1,1,3,4,2,5,0,0,250.0,test,1,E-
462.65411377,0,1000,4,1,1,3,4,2,5,0,0,250.0,test,0,E-
1069.97084618,4,1000,3,1,1,3,4,2,5,0,0,250.0,test,4,E-
477.444887161,0,1000,4,1,1,3,4,2,5,0,0,250.0,test,0,E-
477.936029434,2,1000,2,0,1,3,4,2,5,0,0,250.0,test,1,E-
734.522819519,3,1000,0,1,1,3,4,2,5,0,0,250.0,test,3,E-
541.437149048,1,1000,1,1,1,3,4,2,5,0,0,250.0,test,1,E-
478.026866913,0,1000,4,1,1,3,4,2,5,0,0,250.0,test,0,E-
622.744083405,4,1000,3,1,1,3,4,2,5,0,0,250.0,test,4,E-
509.67001915,0,1000,4,1,1,3,4,2,5,0,0,250.0,test,0,E-
686.537981033,3,1000,0,1,1,3,4,2,5,0,0,250.0,test,3,E-
638.400793076,4,1000,3,1,1,3,4,2,5,0,0,250.0,test,4,E-
477.180957794,4,1000,3,1,1,3,4,2,5,0,0,250.0,test,4,E-
445.770025253,3,1000,0,0,1,3,4,2,5,0,0,250.0,test,4,E-
526.377916336,5,1000,5,1,1,3,4,2,5,0,0,250.0,test,5,E-
559.600114822,4,1000,3,1,1,3,4,2,5,0,0,250.0,test,4,E-
621.4427948,3,1000,0,1,1,3,4,2,5,0,0,250.0,test,3,E-
478.543996811,0,1000,4,1,1,3,4,2,5,0,0,250.0,test,0,E-
557.663917542,2,1000,2,1,1,3,4,2,5,0,0,250.0,test,2,E-
509.5307827,1,1000,1,1,1,3,4,2,5,0,0,250.0,test,1,E-
686.486959457,4,1000,3,1,1,3,4,2,5,0,0,250.0,test,4,E-
478.240013123,0,1000,4,1,1,3,4,2,5,0,0,250.0,test,0,E-
574.393987656,2,1000,2,1,1,3,4,2,5,0,0,250.0,test,2,E-
590.362071991,3,1000,0,1,1,3,4,2,5,0,0,250.0,test,3,E-
446.802139282,0,1000,4,1,1,3,4,2,5,0,0,250.0,test,0,E-
861.539840698,4,1000,3,1,1,3,4,2,5,0,0,250.0,test,4,E-
590.517997742,1,1000,1,1,1,3,4,2,5,0,0,250.0,test,1,E-
445.374011993,0,1000,4,1,1,3,4,2,5,0,0,250.0,test,0,E-
749.644994736,4,1000,3,1,1,3,4,2,5,0,0,250.0,test,4,E-
591.614961624,4,1000,3,1,1,3,4,2,5,0,0,250.0,test,4,E-
879.578113556,2,1000,2,1,1,3,4,2,5,0,0,250.0,test,2,E-
622.173070908,4,1000,3,1,1,3,4,2,5,0,0,250.0,test,4,E-
606.576919556,3,1000,0,1,1,3,4,2,5,0,0,250.0,test,3,E-
463.14406395,2,1000,2,1,1,3,4,2,5,0,0,250.0,test,2,E-
654.527902603,1,1000,1,1,1,3,4,2,5,0,0,250.0,test,1,E-
527.155160904,4,1000,3,1,1,3,4,2,5,0,0,250.0,test,4,E-
590.111970901,1,1000,1,1,1,3,4,2,5,0,0,250.0,test,1,E-
1326.59077644,4,1000,3,1,1,3,4,2,5,0,0,250.0,test,4,E-
590.294122696,1,1000,1,1,1,3,4,2,5,0,0,250.0,test,1,E-
653.427124023,1,1000,1,1,1,3,4,2,5,0,0,250.0,test,1,E-
430.347919464,1,1000,1,1,1,3,4,2,5,0,0,250.0,test,1,E-
590.415000916,1,1000,1,1,1,3,4,2,5,0,0,250.0,test,1,E-
510.72883606,3,1000,0,1,1,3,4,2,5,0,0,250.0,test,3,E-
477.823972702,3,1000,0,1,1,3,4,2,5,0,0,250.0,test,3,E-
526.227235794,2,1000,2,1,1,3,4,2,5,0,0,250.0,test,2,E-
461.431026459,2,1000,2,1,1,3,4,2,5,0,0,250.0,test,2,E-
461.724996567,3,1000,0,1,1,3,4,2,5,0,0,250.0,test,3,E-
526.408910751,4,1000,3,1,1,3,4,2,5,0,0,250.0,test,4,E-
542.778968811,5,1000,5,1,1,3,4,2,5,0,0,250.0,test,5,E-
510.503053665,1,1000,1,1,1,3,4,2,5,0,0,250.0,test,1,E-
477.605819702,0,1000,4,1,1,3,4,2,5,0,0,250.0,test,0,E-
542.263031006,3,1000,0,1,1,3,4,2,5,0,0,250.0,test,3,E-
590.578794479,5,1000,5,1,1,3,4,2,5,0,0,250.0,test,5,E-
558.436870575,2,1000,2,1,1,3,4,2,5,0,0,250.0,test,2,E-
525.43091774,1,1000,1,1,1,3,4,2,5,0,0,250.0,test,1,E-
558.845043182,5,1000,5,1,1,3,4,2,5,0,0,250.0,test,5,E-
462.522029877,2,1000,2,1,1,3,4,2,5,0,0,250.0,test,2,E-
622.426986694,3,1000,0,1,1,3,4,2,5,0,0,250.0,test,3,E-
510.415077209,2,1000,2,1,1,3,4,2,5,0,0,250.0,test,2,E-
526.572942734,1,1000,1,1,1,3,4,2,5,0,0,250.0,test,1,E-
557.305812836,4,1000,3,1,1,3,4,2,5,0,0,250.0,test,4,E-
542.456865311,4,1000,3,1,1,3,4,2,5,0,0,250.0,test,4,E-
