RT,correct_response,ms-prestimblank,curstim,correct,SRmap_1,SRmap_0,SRmap_3,SRmap_2,SRmap_5,SRmap_4,ms-precue,ntrials,type,response,condition
7254.99391556,0,600,3,1,1,2,0,3,4,5,400,250.0,train,0,E+
952.44884491,0,600,3,1,1,2,0,3,4,5,400,250.0,train,0,E+
1735.62192917,4,600,5,1,1,2,0,3,4,5,400,250.0,train,4,E+
1353.27792168,1,600,1,1,1,2,0,3,4,5,400,250.0,train,1,E+
1079.69784737,1,600,1,1,1,2,0,3,4,5,400,250.0,train,1,E+
1993.25108528,3,600,2,1,1,2,0,3,4,5,400,250.0,train,3,E+
1737.210989,5,600,4,1,1,2,0,3,4,5,400,250.0,train,5,E+
1016.50285721,1,600,1,1,1,2,0,3,4,5,400,250.0,train,1,E+
1239.78590965,5,600,4,1,1,2,0,3,4,5,400,250.0,train,5,E+
1127.83789635,4,600,5,1,1,2,0,3,4,5,400,250.0,train,4,E+
1223.87290001,5,600,4,1,1,2,0,3,4,5,400,250.0,train,5,E+
857.200860977,0,600,3,1,1,2,0,3,4,5,400,250.0,train,0,E+
999.841928482,1,600,1,1,1,2,0,3,4,5,400,250.0,train,1,E+
1320.58811188,5,600,4,1,1,2,0,3,4,5,400,250.0,train,5,E+
1623.88801575,2,600,0,1,1,2,0,3,4,5,400,250.0,train,2,E+
791.930913925,5,600,4,1,1,2,0,3,4,5,400,250.0,train,5,E+
809.090137482,4,600,5,0,1,2,0,3,4,5,400,250.0,train,0,E+
775.943994522,5,600,4,1,1,2,0,3,4,5,400,250.0,train,5,E+
1017.22598076,4,600,5,1,1,2,0,3,4,5,400,250.0,train,4,E+
663.714885712,0,600,3,1,1,2,0,3,4,5,400,250.0,train,0,E+
1271.80600166,2,600,0,1,1,2,0,3,4,5,400,250.0,train,2,E+
631.725072861,5,600,4,1,1,2,0,3,4,5,400,250.0,train,5,E+
855.798006058,4,600,5,1,1,2,0,3,4,5,400,250.0,train,4,E+
1367.69390106,2,600,0,1,1,2,0,3,4,5,400,250.0,train,2,E+
663.682937622,5,600,4,1,1,2,0,3,4,5,400,250.0,train,5,E+
1015.72608948,1,600,1,1,1,2,0,3,4,5,400,250.0,train,1,E+
535.82406044,5,600,4,1,1,2,0,3,4,5,400,250.0,train,5,E+
1289.28494453,1,600,1,1,1,2,0,3,4,5,400,250.0,train,1,E+
777.116060257,1,600,1,1,1,2,0,3,4,5,400,250.0,train,1,E+
1175.77600479,3,600,2,1,1,2,0,3,4,5,400,250.0,train,3,E+
711.824893951,4,600,5,1,1,2,0,3,4,5,400,250.0,train,4,E+
743.876934052,1,600,1,1,1,2,0,3,4,5,400,250.0,train,1,E+
793.130159378,1,600,1,1,1,2,0,3,4,5,400,250.0,train,1,E+
663.781166077,5,600,4,1,1,2,0,3,4,5,400,250.0,train,5,E+
552.505970001,5,600,4,1,1,2,0,3,4,5,400,250.0,train,5,E+
1465.14487267,3,600,2,1,1,2,0,3,4,5,400,250.0,train,3,E+
663.937091827,4,600,5,1,1,2,0,3,4,5,400,250.0,train,4,E+
1223.87695312,4,600,5,1,1,2,0,3,4,5,400,250.0,train,4,E+
999.956130981,2,600,0,1,1,2,0,3,4,5,400,250.0,train,2,E+
1111.98306084,2,600,0,1,1,2,0,3,4,5,400,250.0,train,2,E+
1207.90815353,3,600,2,1,1,2,0,3,4,5,400,250.0,train,3,E+
632.016181946,4,600,5,1,1,2,0,3,4,5,400,250.0,train,4,E+
1016.04199409,1,600,1,1,1,2,0,3,4,5,400,250.0,train,1,E+
1527.90999413,3,600,2,1,1,2,0,3,4,5,400,250.0,train,3,E+
1111.99307442,4,600,5,1,1,2,0,3,4,5,400,250.0,train,4,E+
1304.77595329,3,600,2,1,1,2,0,3,4,5,400,250.0,train,3,E+
1273.29802513,0,600,3,1,1,2,0,3,4,5,400,250.0,train,0,E+
1143.83006096,1,600,1,1,1,2,0,3,4,5,400,250.0,train,1,E+
951.795101166,1,600,1,1,1,2,0,3,4,5,400,250.0,train,1,E+
953.25422287,1,600,1,1,1,2,0,3,4,5,400,250.0,train,1,E+
1207.75818825,4,600,5,1,1,2,0,3,4,5,400,250.0,train,4,E+
1335.750103,3,600,2,1,1,2,0,3,4,5,400,250.0,train,3,E+
727.643966675,4,600,5,1,1,2,0,3,4,5,400,250.0,train,4,E+
1111.97304726,2,600,0,1,1,2,0,3,4,5,400,250.0,train,2,E+
648.550033569,5,600,4,1,1,2,0,3,4,5,400,250.0,train,5,E+
807.693004608,0,600,3,1,1,2,0,3,4,5,400,250.0,train,0,E+
569.25702095,5,600,4,1,1,2,0,3,4,5,400,250.0,train,5,E+
520.432949066,0,600,3,1,1,2,0,3,4,5,400,250.0,train,0,E+
711.800813675,1,600,1,1,1,2,0,3,4,5,400,250.0,train,1,E+
1111.83094978,4,600,5,1,1,2,0,3,4,5,400,250.0,train,4,E+
599.843025208,5,600,4,1,1,2,0,3,4,5,400,250.0,train,5,E+
551.846027374,4,600,5,0,1,2,0,3,4,5,400,250.0,train,0,E+
1175.80413818,3,600,2,1,1,2,0,3,4,5,400,250.0,train,3,E+
567.932128906,5,600,4,1,1,2,0,3,4,5,400,250.0,train,5,E+
1319.67496872,3,600,2,1,1,2,0,3,4,5,400,250.0,train,3,E+
712.229013443,1,600,1,1,1,2,0,3,4,5,400,250.0,train,1,E+
1015.98501205,3,600,2,1,1,2,0,3,4,5,400,250.0,train,3,E+
807.913064957,1,600,1,1,1,2,0,3,4,5,400,250.0,train,1,E+
1320.07288933,4,600,5,1,1,2,0,3,4,5,400,250.0,train,4,E+
887.929916382,2,600,0,1,1,2,0,3,4,5,400,250.0,train,2,E+
1192.62385368,3,600,2,1,1,2,0,3,4,5,400,250.0,train,3,E+
1111.76609993,4,600,5,1,1,2,0,3,4,5,400,250.0,train,4,E+
967.741966248,2,600,0,1,1,2,0,3,4,5,400,250.0,train,2,E+
633.234977722,5,600,4,1,1,2,0,3,4,5,400,250.0,train,5,E+
680.776119232,1,600,1,1,1,2,0,3,4,5,400,250.0,train,1,E+
839.830875397,4,600,5,1,1,2,0,3,4,5,400,250.0,train,4,E+
599.654912949,2,600,0,1,1,2,0,3,4,5,400,250.0,train,2,E+
727.72192955,1,600,1,1,1,2,0,3,4,5,400,250.0,train,1,E+
631.722927094,2,600,0,1,1,2,0,3,4,5,400,250.0,train,2,E+
791.666030884,3,600,2,1,1,2,0,3,4,5,400,250.0,train,3,E+
425.338983536,4,600,5,1,1,2,0,3,4,5,400,250.0,train,4,E+
456.556797028,5,600,4,1,1,2,0,3,4,5,400,250.0,train,5,E+
439.811944962,5,600,4,1,1,2,0,3,4,5,400,250.0,train,5,E+
599.821090698,2,600,0,1,1,2,0,3,4,5,400,250.0,train,2,E+
505.106925964,0,600,3,1,1,2,0,3,4,5,400,250.0,train,0,E+
327.611923218,4,600,5,1,1,2,0,3,4,5,400,250.0,train,4,E+
583.73093605,2,600,0,0,1,2,0,3,4,5,400,250.0,train,4,E+
695.780038834,4,600,5,1,1,2,0,3,4,5,400,250.0,train,4,E+
551.779031754,1,600,1,1,1,2,0,3,4,5,400,250.0,train,1,E+
1112.58101463,3,600,2,1,1,2,0,3,4,5,400,250.0,train,3,E+
216.459035873,1,600,1,1,1,2,0,3,4,5,400,250.0,train,1,E+
167.87481308,3,600,2,1,1,2,0,3,4,5,400,250.0,train,3,E+
249.190092087,0,600,3,1,1,2,0,3,4,5,400,250.0,train,0,E+
311.915874481,2,600,0,1,1,2,0,3,4,5,400,250.0,train,2,E+
134.672164917,1,600,1,1,1,2,0,3,4,5,400,250.0,train,1,E+
152.617931366,0,600,3,1,1,2,0,3,4,5,400,250.0,train,0,E+
279.965877533,2,600,0,0,1,2,0,3,4,5,400,250.0,train,1,E+
87.9418849945,0,600,3,1,1,2,0,3,4,5,400,250.0,train,0,E+
119.85707283,0,600,3,1,1,2,0,3,4,5,400,250.0,train,0,E+
297.240018845,5,600,4,1,1,2,0,3,4,5,400,250.0,train,5,E+
359.707117081,4,600,5,1,1,2,0,3,4,5,400,250.0,train,4,E+
521.353006363,5,600,4,1,1,2,0,3,4,5,400,250.0,train,5,E+
151.729106903,5,600,4,1,1,2,0,3,4,5,400,250.0,train,5,E+
343.842029572,1,600,1,1,1,2,0,3,4,5,400,250.0,train,1,E+
471.751928329,3,600,2,1,1,2,0,3,4,5,400,250.0,train,3,E+
169.192790985,5,600,4,1,1,2,0,3,4,5,400,250.0,train,5,E+
311.741828918,2,600,0,1,1,2,0,3,4,5,400,250.0,train,2,E+
103.605985641,0,600,3,1,1,2,0,3,4,5,400,250.0,train,0,E+
375.675916672,4,600,5,1,1,2,0,3,4,5,400,250.0,train,4,E+
199.778079987,0,600,3,1,1,2,0,3,4,5,400,250.0,train,0,E+
105.21697998,2,600,0,1,1,2,0,3,4,5,400,250.0,train,2,E+
152.057886124,1,600,1,1,1,2,0,3,4,5,400,250.0,train,1,E+
249.340057373,4,600,5,1,1,2,0,3,4,5,400,250.0,train,4,E+
25.9029865265,5,600,4,1,1,2,0,3,4,5,400,250.0,train,5,E+
87.690114975,1,600,1,1,1,2,0,3,4,5,400,250.0,train,1,E+
313.175916672,4,600,5,1,1,2,0,3,4,5,400,250.0,train,4,E+
311.793088913,3,600,2,0,1,2,0,3,4,5,400,250.0,train,2,E+
135.806798935,0,600,3,1,1,2,0,3,4,5,400,250.0,train,0,E+
57.0180416107,1,600,1,1,1,2,0,3,4,5,400,250.0,train,1,E+
343.827009201,5,600,4,1,1,2,0,3,4,5,400,250.0,train,5,E+
135.758876801,4,600,5,1,1,2,0,3,4,5,400,250.0,train,4,E+
295.828104019,4,600,5,1,1,2,0,3,4,5,400,250.0,train,4,E+
103.83605957,5,600,4,1,1,2,0,3,4,5,400,250.0,train,5,E+
151.9510746,1,600,1,1,1,2,0,3,4,5,400,250.0,train,1,E+
359.725952148,4,600,5,1,1,2,0,3,4,5,400,250.0,train,4,E+
343.952178955,2,600,0,1,1,2,0,3,4,5,400,250.0,train,2,E+
199.877023697,1,600,1,1,1,2,0,3,4,5,400,250.0,train,1,E+
327.843904495,4,600,5,1,1,2,0,3,4,5,400,250.0,train,4,E+
151.869058609,0,600,3,1,1,2,0,3,4,5,400,250.0,train,0,E+
7.95602798462,0,600,3,1,1,2,0,3,4,5,400,250.0,train,0,E+
168.653964996,1,600,1,1,1,2,0,3,4,5,400,250.0,train,1,E+
73.1709003448,0,600,3,1,1,2,0,3,4,5,400,250.0,train,0,E+
344.640016556,4,600,5,1,1,2,0,3,4,5,400,250.0,train,4,E+
137.290000916,0,600,3,1,1,2,0,3,4,5,400,250.0,train,0,E+
168.713092804,1,600,1,1,1,2,0,3,4,5,400,250.0,train,1,E+
345.294952393,1,600,1,1,1,2,0,3,4,5,400,250.0,train,1,E+
185.335874557,1,600,1,1,1,2,0,3,4,5,400,250.0,train,1,E+
137.126922607,4,600,5,1,1,2,0,3,4,5,400,250.0,train,4,E+
617.216110229,2,600,0,1,1,2,0,3,4,5,400,250.0,train,2,E+
57.0459365845,4,600,5,1,1,2,0,3,4,5,400,250.0,train,4,E+
263.692140579,2,600,0,1,1,2,0,3,4,5,400,250.0,train,2,E+
103.653907776,0,600,3,1,1,2,0,3,4,5,400,250.0,train,0,E+
135.64491272,0,600,3,1,1,2,0,3,4,5,400,250.0,train,0,E+
231.62317276,4,600,5,1,1,2,0,3,4,5,400,250.0,train,4,E+
119.67086792,3,600,2,0,1,2,0,3,4,5,400,250.0,train,2,E+
247.641086578,4,600,5,1,1,2,0,3,4,5,400,250.0,train,4,E+
200.58298111,2,600,0,1,1,2,0,3,4,5,400,250.0,train,2,E+
121.269226074,0,600,3,1,1,2,0,3,4,5,400,250.0,train,0,E+
183.728218079,4,600,5,1,1,2,0,3,4,5,400,250.0,train,4,E+
457.297801971,3,600,2,1,1,2,0,3,4,5,400,250.0,train,3,E+
7.17806816101,2,600,0,1,1,2,0,3,4,5,400,250.0,train,2,E+
57.1889877319,2,600,0,1,1,2,0,3,4,5,400,250.0,train,2,E+
150.671958923,0,600,3,1,1,2,0,3,4,5,400,250.0,train,0,E+
199.74899292,5,600,4,1,1,2,0,3,4,5,400,250.0,train,5,E+
119.75312233,0,600,3,1,1,2,0,3,4,5,400,250.0,train,0,E+
118.708848953,1,600,1,1,1,2,0,3,4,5,400,250.0,train,1,E+
167.791843414,1,600,1,1,1,2,0,3,4,5,400,250.0,train,1,E+
57.0340156555,2,600,0,1,1,2,0,3,4,5,400,250.0,train,2,E+
135.903120041,5,600,4,1,1,2,0,3,4,5,400,250.0,train,5,E+
166.664123535,2,600,0,1,1,2,0,3,4,5,400,250.0,train,2,E+
135.88309288,0,600,3,0,1,2,0,3,4,5,400,250.0,train,2,E+
184.476852417,0,600,3,1,1,2,0,3,4,5,400,250.0,train,0,E+
233.084917068,4,600,5,1,1,2,0,3,4,5,400,250.0,train,4,E+
136.957883835,0,600,3,1,1,2,0,3,4,5,400,250.0,train,0,E+
119.930028915,5,600,4,1,1,2,0,3,4,5,400,250.0,train,5,E+
167.862892151,0,600,3,1,1,2,0,3,4,5,400,250.0,train,0,E+
231.991052628,1,600,1,1,1,2,0,3,4,5,400,250.0,train,1,E+
23.9949226379,2,600,0,1,1,2,0,3,4,5,400,250.0,train,2,E+
185.117959976,0,600,3,1,1,2,0,3,4,5,400,250.0,train,0,E+
521.185874939,4,600,5,1,1,2,0,3,4,5,400,250.0,train,4,E+
551.722049713,2,600,0,1,1,2,0,3,4,5,400,250.0,train,2,E+
263.732910156,5,600,4,1,1,2,0,3,4,5,400,250.0,train,5,E+
615.545988083,2,600,0,1,1,2,0,3,4,5,400,250.0,train,2,E+
281.28695488,4,600,5,1,1,2,0,3,4,5,400,250.0,train,4,E+
393.286943436,2,600,0,1,1,2,0,3,4,5,400,250.0,train,2,E+
183.719158173,4,600,5,1,1,2,0,3,4,5,400,250.0,train,4,E+
423.629999161,4,600,5,1,1,2,0,3,4,5,400,250.0,train,4,E+
297.250986099,2,600,0,0,1,2,0,3,4,5,400,250.0,train,1,E+
119.700908661,2,600,0,1,1,2,0,3,4,5,400,250.0,train,2,E+
313.308000565,1,600,1,1,1,2,0,3,4,5,400,250.0,train,1,E+
487.552881241,4,600,5,1,1,2,0,3,4,5,400,250.0,train,4,E+
167.158842087,4,600,5,1,1,2,0,3,4,5,400,250.0,train,4,E+
119.764089584,0,600,3,1,1,2,0,3,4,5,400,250.0,train,0,E+
103.735208511,1,600,1,1,1,2,0,3,4,5,400,250.0,train,1,E+
119.777917862,5,600,4,1,1,2,0,3,4,5,400,250.0,train,5,E+
935.82701683,1,600,1,1,1,2,0,3,4,5,400,250.0,train,1,E+
119.796991348,2,600,0,1,1,2,0,3,4,5,400,250.0,train,2,E+
167.860984802,3,600,2,1,1,2,0,3,4,5,400,250.0,train,3,E+
135.809898376,1,600,1,1,1,2,0,3,4,5,400,250.0,train,1,E+
119.916915894,0,600,3,1,1,2,0,3,4,5,400,250.0,train,0,E+
199.802160263,0,600,3,1,1,2,0,3,4,5,400,250.0,train,0,E+
249.20296669,3,600,2,1,1,2,0,3,4,5,400,250.0,train,3,E+
167.948961258,5,600,4,1,1,2,0,3,4,5,400,250.0,train,5,E+
103.87301445,5,600,4,1,1,2,0,3,4,5,400,250.0,train,5,E+
215.842962265,3,600,2,1,1,2,0,3,4,5,400,250.0,train,3,E+
584.608078003,4,600,5,1,1,2,0,3,4,5,400,250.0,train,4,E+
183.923006058,4,600,5,1,1,2,0,3,4,5,400,250.0,train,4,E+
120.605945587,5,600,4,1,1,2,0,3,4,5,400,250.0,train,5,E+
263.976812363,0,600,3,1,1,2,0,3,4,5,400,250.0,train,0,E+
215.946912766,2,600,0,1,1,2,0,3,4,5,400,250.0,train,2,E+
119.991064072,1,600,1,1,1,2,0,3,4,5,400,250.0,train,1,E+
57.1689605713,1,600,1,1,1,2,0,3,4,5,400,250.0,train,1,E+
121.186971664,3,600,2,1,1,2,0,3,4,5,400,250.0,train,3,E+
265.236139297,2,600,0,1,1,2,0,3,4,5,400,250.0,train,2,E+
121.238946915,1,600,1,1,1,2,0,3,4,5,400,250.0,train,1,E+
153.230905533,0,600,3,1,1,2,0,3,4,5,400,250.0,train,0,E+
71.6128349304,1,600,1,1,1,2,0,3,4,5,400,250.0,train,1,E+
41.3041114807,2,600,0,1,1,2,0,3,4,5,400,250.0,train,2,E+
167.783021927,5,600,4,1,1,2,0,3,4,5,400,250.0,train,5,E+
279.767990112,2,600,0,1,1,2,0,3,4,5,400,250.0,train,2,E+
87.7339839935,1,600,1,1,1,2,0,3,4,5,400,250.0,train,1,E+
231.83298111,4,600,5,0,1,2,0,3,4,5,400,250.0,train,3,E+
327.81291008,3,600,2,1,1,2,0,3,4,5,400,250.0,train,3,E+
279.769897461,3,600,2,1,1,2,0,3,4,5,400,250.0,train,3,E+
23.7760543823,4,600,5,1,1,2,0,3,4,5,400,250.0,train,4,E+
887.871980667,4,600,5,1,1,2,0,3,4,5,400,250.0,train,4,E+
39.8468971252,5,600,4,1,1,2,0,3,4,5,400,250.0,train,5,E+
103.804826736,0,600,3,1,1,2,0,3,4,5,400,250.0,train,0,E+
569.063901901,1,600,1,1,1,2,0,3,4,5,400,250.0,train,1,E+
200.548887253,4,600,5,1,1,2,0,3,4,5,400,250.0,train,4,E+
103.948116302,4,600,5,1,1,2,0,3,4,5,400,250.0,train,4,E+
295.914888382,2,600,0,1,1,2,0,3,4,5,400,250.0,train,2,E+
70.4529285431,1,600,1,1,1,2,0,3,4,5,400,250.0,train,1,E+
153.104782104,4,600,5,1,1,2,0,3,4,5,400,250.0,train,4,E+
183.964014053,3,600,2,1,1,2,0,3,4,5,400,250.0,train,3,E+
121.19603157,5,600,4,1,1,2,0,3,4,5,400,250.0,train,5,E+
585.209846497,3,600,2,1,1,2,0,3,4,5,400,250.0,train,3,E+
199.724912643,1,600,1,1,1,2,0,3,4,5,400,250.0,train,1,E+
151.819944382,3,600,2,0,1,2,0,3,4,5,400,250.0,train,4,E+
167.798995972,3,600,2,1,1,2,0,3,4,5,400,250.0,train,3,E+
217.313051224,1,600,1,1,1,2,0,3,4,5,400,250.0,train,1,E+
151.639938354,0,600,3,1,1,2,0,3,4,5,400,250.0,train,0,E+
185.102939606,4,600,5,1,1,2,0,3,4,5,400,250.0,train,4,E+
281.189203262,3,600,2,1,1,2,0,3,4,5,400,250.0,train,3,E+
263.871908188,2,600,0,1,1,2,0,3,4,5,400,250.0,train,2,E+
215.598106384,3,600,2,1,1,2,0,3,4,5,400,250.0,train,3,E+
151.428937912,5,600,4,1,1,2,0,3,4,5,400,250.0,train,5,E+
151.618003845,0,600,3,1,1,2,0,3,4,5,400,250.0,train,0,E+
153.424024582,5,600,4,1,1,2,0,3,4,5,400,250.0,train,5,E+
550.169944763,4,600,5,0,1,2,0,3,4,5,400,250.0,train,3,E+
87.6529216766,4,600,5,1,1,2,0,3,4,5,400,250.0,train,4,E+
775.705814362,4,600,5,1,1,2,0,3,4,5,400,250.0,train,4,E+
119.607925415,5,600,4,1,1,2,0,3,4,5,400,250.0,train,5,E+
151.849985123,2,600,0,1,1,2,0,3,4,5,400,250.0,train,2,E+
279.747962952,3,600,2,1,1,2,0,3,4,5,400,250.0,train,3,E+
119.878053665,4,600,5,1,1,2,0,3,4,5,400,250.0,train,4,E+
151.912927628,5,600,4,1,1,2,0,3,4,5,400,250.0,train,5,E+
296.555995941,3,600,2,1,1,2,0,3,4,5,400,250.0,train,3,E+
71.8600749969,0,600,3,1,1,2,0,3,4,5,400,250.0,train,0,E+
615.853071213,1,600,1,1,1,2,0,3,4,5,400,250.0,train,1,E+
647.989034653,5,1000,4,1,1,2,0,3,4,5,0,250.0,test,5,E+
646.240949631,3,1000,2,1,1,2,0,3,4,5,0,250.0,test,3,E+
585.239887238,0,1000,3,1,1,2,0,3,4,5,0,250.0,test,0,E+
502.425193787,5,1000,4,1,1,2,0,3,4,5,0,250.0,test,5,E+
566.245079041,0,1000,3,1,1,2,0,3,4,5,0,250.0,test,0,E+
535.223007202,2,1000,0,0,1,2,0,3,4,5,0,250.0,test,3,E+
584.602832794,1,1000,1,1,1,2,0,3,4,5,0,250.0,test,1,E+
697.193145752,3,1000,2,1,1,2,0,3,4,5,0,250.0,test,3,E+
745.337963104,2,1000,0,1,1,2,0,3,4,5,0,250.0,test,2,E+
519.01102066,1,1000,1,1,1,2,0,3,4,5,0,250.0,test,1,E+
582.19909668,4,1000,5,0,1,2,0,3,4,5,0,250.0,test,5,E+
838.042020798,1,1000,1,1,1,2,0,3,4,5,0,250.0,test,1,E+
646.164178848,2,1000,0,1,1,2,0,3,4,5,0,250.0,test,2,E+
646.242141724,3,1000,2,1,1,2,0,3,4,5,0,250.0,test,3,E+
550.134897232,5,1000,4,1,1,2,0,3,4,5,0,250.0,test,5,E+
550.888061523,1,1000,1,1,1,2,0,3,4,5,0,250.0,test,1,E+
535.687923431,1,1000,1,1,1,2,0,3,4,5,0,250.0,test,1,E+
567.614078522,0,1000,3,1,1,2,0,3,4,5,0,250.0,test,0,E+
502.233982086,4,1000,5,1,1,2,0,3,4,5,0,250.0,test,4,E+
663.976192474,5,1000,4,1,1,2,0,3,4,5,0,250.0,test,5,E+
582.790851593,1,1000,1,1,1,2,0,3,4,5,0,250.0,test,1,E+
647.977113724,0,1000,3,1,1,2,0,3,4,5,0,250.0,test,0,E+
567.811965942,5,1000,4,1,1,2,0,3,4,5,0,250.0,test,5,E+
503.386974335,0,1000,3,1,1,2,0,3,4,5,0,250.0,test,0,E+
487.846851349,5,1000,4,1,1,2,0,3,4,5,0,250.0,test,5,E+
614.217996597,1,1000,1,1,1,2,0,3,4,5,0,250.0,test,1,E+
455.914020538,0,1000,3,1,1,2,0,3,4,5,0,250.0,test,0,E+
631.84094429,4,1000,5,1,1,2,0,3,4,5,0,250.0,test,4,E+
487.704992294,0,1000,3,1,1,2,0,3,4,5,0,250.0,test,0,E+
583.822965622,0,1000,3,1,1,2,0,3,4,5,0,250.0,test,0,E+
807.942867279,2,1000,0,1,1,2,0,3,4,5,0,250.0,test,2,E+
598.019123077,2,1000,0,1,1,2,0,3,4,5,0,250.0,test,2,E+
519.764900208,1,1000,1,1,1,2,0,3,4,5,0,250.0,test,1,E+
616.62197113,2,1000,0,1,1,2,0,3,4,5,0,250.0,test,2,E+
630.225896835,4,1000,5,1,1,2,0,3,4,5,0,250.0,test,4,E+
438.122034073,4,1000,5,1,1,2,0,3,4,5,0,250.0,test,4,E+
489.257097244,4,1000,5,1,1,2,0,3,4,5,0,250.0,test,4,E+
838.140964508,3,1000,2,1,1,2,0,3,4,5,0,250.0,test,3,E+
676.889896393,2,1000,0,1,1,2,0,3,4,5,0,250.0,test,2,E+
519.755840302,0,1000,3,1,1,2,0,3,4,5,0,250.0,test,0,E+
665.143013,4,1000,5,1,1,2,0,3,4,5,0,250.0,test,4,E+
665.452957153,5,1000,4,1,1,2,0,3,4,5,0,250.0,test,5,E+
438.902139664,4,1000,5,1,1,2,0,3,4,5,0,250.0,test,4,E+
729.043960571,2,1000,0,1,1,2,0,3,4,5,0,250.0,test,2,E+
534.140825272,5,1000,4,1,1,2,0,3,4,5,0,250.0,test,5,E+
550.131082535,5,1000,4,1,1,2,0,3,4,5,0,250.0,test,5,E+
550.235033035,4,1000,5,1,1,2,0,3,4,5,0,250.0,test,4,E+
791.756868362,5,1000,4,1,1,2,0,3,4,5,0,250.0,test,5,E+
598.114013672,5,1000,4,1,1,2,0,3,4,5,0,250.0,test,5,E+
838.23800087,2,1000,0,0,1,2,0,3,4,5,0,250.0,test,3,E+
551.537036896,5,1000,4,1,1,2,0,3,4,5,0,250.0,test,5,E+
583.639144897,3,1000,2,1,1,2,0,3,4,5,0,250.0,test,3,E+
758.972167969,1,1000,1,1,1,2,0,3,4,5,0,250.0,test,1,E+
519.242048264,0,1000,3,1,1,2,0,3,4,5,0,250.0,test,0,E+
631.776094437,4,1000,5,1,1,2,0,3,4,5,0,250.0,test,4,E+
566.926956177,0,1000,3,1,1,2,0,3,4,5,0,250.0,test,0,E+
743.824958801,4,1000,5,1,1,2,0,3,4,5,0,250.0,test,4,E+
548.856019974,2,1000,0,1,1,2,0,3,4,5,0,250.0,test,2,E+
599.797010422,2,1000,0,1,1,2,0,3,4,5,0,250.0,test,2,E+
711.945772171,1,1000,1,1,1,2,0,3,4,5,0,250.0,test,1,E+
470.158815384,1,1000,1,1,1,2,0,3,4,5,0,250.0,test,1,E+
550.203084946,4,1000,5,1,1,2,0,3,4,5,0,250.0,test,4,E+
598.255157471,3,1000,2,1,1,2,0,3,4,5,0,250.0,test,3,E+
584.094047546,0,1000,3,1,1,2,0,3,4,5,0,250.0,test,0,E+
504.009008408,1,1000,1,1,1,2,0,3,4,5,0,250.0,test,1,E+
407.889842987,1,1000,1,1,1,2,0,3,4,5,0,250.0,test,1,E+
519.373893738,2,1000,0,0,1,2,0,3,4,5,0,250.0,test,1,E+
489.20416832,2,1000,0,1,1,2,0,3,4,5,0,250.0,test,2,E+
646.180152893,0,1000,3,1,1,2,0,3,4,5,0,250.0,test,0,E+
553.254127502,1,1000,1,1,1,2,0,3,4,5,0,250.0,test,1,E+
521.31485939,4,1000,5,1,1,2,0,3,4,5,0,250.0,test,4,E+
535.706043243,4,1000,5,1,1,2,0,3,4,5,0,250.0,test,4,E+
377.097129822,4,1000,5,1,1,2,0,3,4,5,0,250.0,test,4,E+
616.437196732,0,1000,3,0,1,2,0,3,4,5,0,250.0,test,2,E+
838.817834854,2,1000,0,1,1,2,0,3,4,5,0,250.0,test,2,E+
502.133846283,2,1000,0,1,1,2,0,3,4,5,0,250.0,test,2,E+
502.193927765,4,1000,5,0,1,2,0,3,4,5,0,250.0,test,3,E+
536.617040634,5,1000,4,1,1,2,0,3,4,5,0,250.0,test,5,E+
1030.10511398,4,1000,5,1,1,2,0,3,4,5,0,250.0,test,4,E+
823.851108551,0,1000,3,1,1,2,0,3,4,5,0,250.0,test,0,E+
535.540103912,5,1000,4,1,1,2,0,3,4,5,0,250.0,test,5,E+
694.98705864,3,1000,2,1,1,2,0,3,4,5,0,250.0,test,3,E+
662.106990814,2,1000,0,1,1,2,0,3,4,5,0,250.0,test,2,E+
534.128904343,5,1000,4,1,1,2,0,3,4,5,0,250.0,test,5,E+
676.867008209,0,1000,3,1,1,2,0,3,4,5,0,250.0,test,0,E+
600.347995758,3,1000,2,1,1,2,0,3,4,5,0,250.0,test,3,E+
663.989067078,0,1000,3,1,1,2,0,3,4,5,0,250.0,test,0,E+
647.948026657,2,1000,0,1,1,2,0,3,4,5,0,250.0,test,2,E+
711.659193039,4,1000,5,1,1,2,0,3,4,5,0,250.0,test,4,E+
583.542108536,4,1000,5,1,1,2,0,3,4,5,0,250.0,test,4,E+
471.814155579,0,1000,3,1,1,2,0,3,4,5,0,250.0,test,0,E+
647.917985916,4,1000,5,1,1,2,0,3,4,5,0,250.0,test,4,E+
728.132009506,1,1000,1,1,1,2,0,3,4,5,0,250.0,test,1,E+
585.245847702,3,1000,2,1,1,2,0,3,4,5,0,250.0,test,3,E+
551.203966141,5,1000,4,1,1,2,0,3,4,5,0,250.0,test,5,E+
521.229028702,5,1000,4,1,1,2,0,3,4,5,0,250.0,test,5,E+
646.131038666,2,1000,0,1,1,2,0,3,4,5,0,250.0,test,2,E+
648.615121841,1,1000,1,1,1,2,0,3,4,5,0,250.0,test,1,E+
569.180965424,4,1000,5,1,1,2,0,3,4,5,0,250.0,test,4,E+
985.017061234,2,1000,0,1,1,2,0,3,4,5,0,250.0,test,2,E+
598.208904266,3,1000,2,0,1,2,0,3,4,5,0,250.0,test,4,E+
503.005027771,4,1000,5,1,1,2,0,3,4,5,0,250.0,test,4,E+
662.086009979,0,1000,3,1,1,2,0,3,4,5,0,250.0,test,0,E+
1094.95615959,4,1000,5,1,1,2,0,3,4,5,0,250.0,test,4,E+
566.160917282,4,1000,5,1,1,2,0,3,4,5,0,250.0,test,4,E+
566.040039062,4,1000,5,1,1,2,0,3,4,5,0,250.0,test,4,E+
742.115974426,2,1000,0,0,1,2,0,3,4,5,0,250.0,test,3,E+
535.863161087,3,1000,2,1,1,2,0,3,4,5,0,250.0,test,3,E+
631.577014923,2,1000,0,1,1,2,0,3,4,5,0,250.0,test,2,E+
615.597009659,4,1000,5,1,1,2,0,3,4,5,0,250.0,test,4,E+
440.662145615,5,1000,4,1,1,2,0,3,4,5,0,250.0,test,5,E+
1063.54808807,2,1000,0,1,1,2,0,3,4,5,0,250.0,test,2,E+
567.940950394,1,1000,1,1,1,2,0,3,4,5,0,250.0,test,1,E+
615.806102753,0,1000,3,1,1,2,0,3,4,5,0,250.0,test,0,E+
583.867073059,5,1000,4,1,1,2,0,3,4,5,0,250.0,test,5,E+
535.247087479,1,1000,1,1,1,2,0,3,4,5,0,250.0,test,1,E+
583.647966385,1,1000,1,1,1,2,0,3,4,5,0,250.0,test,1,E+
376.713037491,1,1000,1,1,1,2,0,3,4,5,0,250.0,test,1,E+
567.910909653,0,1000,3,1,1,2,0,3,4,5,0,250.0,test,0,E+
631.975889206,3,1000,2,1,1,2,0,3,4,5,0,250.0,test,3,E+
502.21991539,4,1000,5,1,1,2,0,3,4,5,0,250.0,test,4,E+
583.86516571,2,1000,0,0,1,2,0,3,4,5,0,250.0,test,3,E+
665.288209915,3,1000,2,1,1,2,0,3,4,5,0,250.0,test,3,E+
534.186840057,5,1000,4,1,1,2,0,3,4,5,0,250.0,test,5,E+
633.526086807,3,1000,2,1,1,2,0,3,4,5,0,250.0,test,3,E+
584.028959274,4,1000,5,1,1,2,0,3,4,5,0,250.0,test,4,E+
633.250951767,3,1000,2,1,1,2,0,3,4,5,0,250.0,test,3,E+
518.929958344,0,1000,3,1,1,2,0,3,4,5,0,250.0,test,0,E+
534.169197083,5,1000,4,1,1,2,0,3,4,5,0,250.0,test,5,E+
518.12505722,0,1000,3,1,1,2,0,3,4,5,0,250.0,test,0,E+
470.105886459,0,1000,3,1,1,2,0,3,4,5,0,250.0,test,0,E+
502.141952515,4,1000,5,1,1,2,0,3,4,5,0,250.0,test,4,E+
601.499080658,1,1000,1,1,1,2,0,3,4,5,0,250.0,test,1,E+
662.10103035,0,1000,3,1,1,2,0,3,4,5,0,250.0,test,0,E+
470.185041428,0,1000,3,1,1,2,0,3,4,5,0,250.0,test,0,E+
470.299959183,0,1000,3,1,1,2,0,3,4,5,0,250.0,test,0,E+
661.782026291,0,1000,3,1,1,2,0,3,4,5,0,250.0,test,0,E+
537.28890419,1,1000,1,1,1,2,0,3,4,5,0,250.0,test,1,E+
630.966901779,4,1000,5,1,1,2,0,3,4,5,0,250.0,test,4,E+
615.265130997,3,1000,2,1,1,2,0,3,4,5,0,250.0,test,3,E+
887.565851212,4,1000,5,1,1,2,0,3,4,5,0,250.0,test,4,E+
646.114826202,1,1000,1,1,1,2,0,3,4,5,0,250.0,test,1,E+
711.906909943,2,1000,0,1,1,2,0,3,4,5,0,250.0,test,2,E+
598.85597229,2,1000,0,1,1,2,0,3,4,5,0,250.0,test,2,E+
535.95495224,5,1000,4,1,1,2,0,3,4,5,0,250.0,test,5,E+
679.563999176,0,1000,3,1,1,2,0,3,4,5,0,250.0,test,0,E+
743.82686615,4,1000,5,1,1,2,0,3,4,5,0,250.0,test,4,E+
615.892887115,1,1000,1,1,1,2,0,3,4,5,0,250.0,test,1,E+
536.034107208,0,1000,3,1,1,2,0,3,4,5,0,250.0,test,0,E+
615.834951401,3,1000,2,1,1,2,0,3,4,5,0,250.0,test,3,E+
711.318969727,2,1000,0,1,1,2,0,3,4,5,0,250.0,test,2,E+
552.086114883,1,1000,1,1,1,2,0,3,4,5,0,250.0,test,1,E+
614.377975464,0,1000,3,1,1,2,0,3,4,5,0,250.0,test,0,E+
679.890155792,4,1000,5,1,1,2,0,3,4,5,0,250.0,test,4,E+
1510.21289825,5,1000,4,1,1,2,0,3,4,5,0,250.0,test,5,E+
566.232919693,4,1000,5,1,1,2,0,3,4,5,0,250.0,test,4,E+
521.202087402,5,1000,4,1,1,2,0,3,4,5,0,250.0,test,5,E+
857.326984406,3,1000,2,1,1,2,0,3,4,5,0,250.0,test,3,E+
630.065917969,3,1000,2,1,1,2,0,3,4,5,0,250.0,test,3,E+
552.351951599,0,1000,3,1,1,2,0,3,4,5,0,250.0,test,0,E+
1110.17489433,2,1000,0,1,1,2,0,3,4,5,0,250.0,test,2,E+
982.243061066,4,1000,5,1,1,2,0,3,4,5,0,250.0,test,4,E+
521.445035934,4,1000,5,1,1,2,0,3,4,5,0,250.0,test,4,E+
486.078977585,4,1000,5,1,1,2,0,3,4,5,0,250.0,test,4,E+
585.228919983,0,1000,3,1,1,2,0,3,4,5,0,250.0,test,0,E+
678.114175797,2,1000,0,1,1,2,0,3,4,5,0,250.0,test,2,E+
550.060033798,0,1000,3,1,1,2,0,3,4,5,0,250.0,test,0,E+
905.58886528,2,1000,0,1,1,2,0,3,4,5,0,250.0,test,2,E+
520.68901062,4,1000,5,1,1,2,0,3,4,5,0,250.0,test,4,E+
727.98204422,2,1000,0,1,1,2,0,3,4,5,0,250.0,test,2,E+
550.929069519,1,1000,1,1,1,2,0,3,4,5,0,250.0,test,1,E+
503.834962845,0,1000,3,1,1,2,0,3,4,5,0,250.0,test,0,E+
567.744970322,4,1000,5,1,1,2,0,3,4,5,0,250.0,test,4,E+
695.823907852,2,1000,0,1,1,2,0,3,4,5,0,250.0,test,2,E+
583.806037903,2,1000,0,1,1,2,0,3,4,5,0,250.0,test,2,E+
519.503116608,0,1000,3,1,1,2,0,3,4,5,0,250.0,test,0,E+
599.957942963,1,1000,1,1,1,2,0,3,4,5,0,250.0,test,1,E+
664.437055588,2,1000,0,1,1,2,0,3,4,5,0,250.0,test,2,E+
775.876998901,5,1000,4,1,1,2,0,3,4,5,0,250.0,test,5,E+
631.986141205,3,1000,2,1,1,2,0,3,4,5,0,250.0,test,3,E+
711.893796921,3,1000,2,1,1,2,0,3,4,5,0,250.0,test,3,E+
582.187891006,2,1000,0,1,1,2,0,3,4,5,0,250.0,test,2,E+
471.556901932,4,1000,5,1,1,2,0,3,4,5,0,250.0,test,4,E+
553.23600769,5,1000,4,1,1,2,0,3,4,5,0,250.0,test,5,E+
681.271076202,2,1000,0,1,1,2,0,3,4,5,0,250.0,test,2,E+
553.250074387,1,1000,1,1,1,2,0,3,4,5,0,250.0,test,1,E+
534.207105637,0,1000,3,1,1,2,0,3,4,5,0,250.0,test,0,E+
537.301063538,3,1000,2,1,1,2,0,3,4,5,0,250.0,test,3,E+
519.119977951,4,1000,5,1,1,2,0,3,4,5,0,250.0,test,4,E+
503.463983536,5,1000,4,1,1,2,0,3,4,5,0,250.0,test,5,E+
518.262863159,0,1000,3,1,1,2,0,3,4,5,0,250.0,test,0,E+
566.086053848,3,1000,2,0,1,2,0,3,4,5,0,250.0,test,4,E+
614.187955856,0,1000,3,1,1,2,0,3,4,5,0,250.0,test,0,E+
454.498052597,3,1000,2,1,1,2,0,3,4,5,0,250.0,test,3,E+
726.156949997,2,1000,0,1,1,2,0,3,4,5,0,250.0,test,2,E+
550.801992416,4,1000,5,1,1,2,0,3,4,5,0,250.0,test,4,E+
647.583007812,2,1000,0,1,1,2,0,3,4,5,0,250.0,test,2,E+
550.103902817,5,1000,4,1,1,2,0,3,4,5,0,250.0,test,5,E+
567.682027817,3,1000,2,1,1,2,0,3,4,5,0,250.0,test,3,E+
663.630008698,0,1000,3,1,1,2,0,3,4,5,0,250.0,test,0,E+
663.58089447,1,1000,1,1,1,2,0,3,4,5,0,250.0,test,1,E+
599.905967712,5,1000,4,1,1,2,0,3,4,5,0,250.0,test,5,E+
582.272052765,4,1000,5,1,1,2,0,3,4,5,0,250.0,test,4,E+
663.941860199,3,1000,2,1,1,2,0,3,4,5,0,250.0,test,3,E+
742.985010147,1,1000,1,1,1,2,0,3,4,5,0,250.0,test,1,E+
567.76881218,5,1000,4,1,1,2,0,3,4,5,0,250.0,test,5,E+
711.895942688,1,1000,1,1,1,2,0,3,4,5,0,250.0,test,1,E+
632.06410408,5,1000,4,1,1,2,0,3,4,5,0,250.0,test,5,E+
663.734912872,1,1000,1,1,1,2,0,3,4,5,0,250.0,test,1,E+
711.416959763,1,1000,1,1,1,2,0,3,4,5,0,250.0,test,1,E+
487.856149673,1,1000,1,1,1,2,0,3,4,5,0,250.0,test,1,E+
440.708875656,1,1000,1,1,1,2,0,3,4,5,0,250.0,test,1,E+
583.844900131,0,1000,3,1,1,2,0,3,4,5,0,250.0,test,0,E+
487.877130508,0,1000,3,1,1,2,0,3,4,5,0,250.0,test,0,E+
470.227003098,0,1000,3,1,1,2,0,3,4,5,0,250.0,test,0,E+
662.119150162,3,1000,2,1,1,2,0,3,4,5,0,250.0,test,3,E+
616.575956345,1,1000,1,1,1,2,0,3,4,5,0,250.0,test,1,E+
601.191997528,4,1000,5,1,1,2,0,3,4,5,0,250.0,test,4,E+
678.251981735,3,1000,2,1,1,2,0,3,4,5,0,250.0,test,3,E+
697.171926498,2,1000,0,1,1,2,0,3,4,5,0,250.0,test,2,E+
631.573200226,2,1000,0,1,1,2,0,3,4,5,0,250.0,test,2,E+
553.31492424,1,1000,1,1,1,2,0,3,4,5,0,250.0,test,1,E+
534.208059311,1,1000,1,1,1,2,0,3,4,5,0,250.0,test,1,E+
553.061008453,0,1000,3,1,1,2,0,3,4,5,0,250.0,test,0,E+
646.989822388,1,1000,1,1,1,2,0,3,4,5,0,250.0,test,1,E+
615.686893463,0,1000,3,1,1,2,0,3,4,5,0,250.0,test,0,E+
598.973989487,2,1000,0,0,1,2,0,3,4,5,0,250.0,test,3,E+
567.769050598,0,1000,3,1,1,2,0,3,4,5,0,250.0,test,0,E+
550.253868103,5,1000,4,1,1,2,0,3,4,5,0,250.0,test,5,E+
759.588003159,2,1000,0,1,1,2,0,3,4,5,0,250.0,test,2,E+
486.299991608,2,1000,0,1,1,2,0,3,4,5,0,250.0,test,2,E+
614.202022552,5,1000,4,1,1,2,0,3,4,5,0,250.0,test,5,E+
551.509857178,0,1000,3,1,1,2,0,3,4,5,0,250.0,test,0,E+
647.642850876,3,1000,2,1,1,2,0,3,4,5,0,250.0,test,3,E+
567.952871323,1,1000,1,1,1,2,0,3,4,5,0,250.0,test,1,E+
599.785089493,1,1000,1,1,1,2,0,3,4,5,0,250.0,test,1,E+
391.855955124,1,1000,1,1,1,2,0,3,4,5,0,250.0,test,1,E+
584.600925446,3,1000,2,1,1,2,0,3,4,5,0,250.0,test,3,E+
502.121925354,3,1000,2,1,1,2,0,3,4,5,0,250.0,test,3,E+
502.6948452,3,1000,2,1,1,2,0,3,4,5,0,250.0,test,3,E+
855.907917023,1,1000,1,1,1,2,0,3,4,5,0,250.0,test,1,E+
808.590888977,4,1000,5,1,1,2,0,3,4,5,0,250.0,test,4,E+
583.922147751,3,1000,2,1,1,2,0,3,4,5,0,250.0,test,3,E+
648.100137711,2,1000,0,1,1,2,0,3,4,5,0,250.0,test,2,E+
551.76615715,4,1000,5,1,1,2,0,3,4,5,0,250.0,test,4,E+
679.881811142,1,1000,1,1,1,2,0,3,4,5,0,250.0,test,1,E+
567.239046097,5,1000,4,1,1,2,0,3,4,5,0,250.0,test,5,E+
486.117839813,4,1000,5,1,1,2,0,3,4,5,0,250.0,test,4,E+
615.708827972,3,1000,2,1,1,2,0,3,4,5,0,250.0,test,3,E+
633.368968964,2,1000,0,1,1,2,0,3,4,5,0,250.0,test,2,E+
