RT,correct_response,ms-prestimblank,curstim,correct,SRmap_1,SRmap_0,SRmap_3,SRmap_2,SRmap_5,SRmap_4,ms-precue,ntrials,type,response,condition
3342.51117706,4,600,5,1,5,3,2,1,4,0,400,250.0,train,4,E+
1758.97693634,0,600,4,1,5,3,2,1,4,0,400,250.0,train,0,E+
303.066968918,5,600,1,1,5,3,2,1,4,0,400,250.0,train,5,E+
47.1680164337,0,600,4,1,5,3,2,1,4,0,400,250.0,train,0,E+
14.7099494934,0,600,4,1,5,3,2,1,4,0,400,250.0,train,0,E+
125.589132309,0,600,4,1,5,3,2,1,4,0,400,250.0,train,0,E+
207.054853439,1,600,2,1,5,3,2,1,4,0,400,250.0,train,1,E+
95.752954483,5,600,1,1,5,3,2,1,4,0,400,250.0,train,5,E+
1183.40301514,5,600,1,1,5,3,2,1,4,0,400,250.0,train,5,E+
158.799171448,2,600,3,1,5,3,2,1,4,0,400,250.0,train,2,E+
143.528938293,3,600,0,1,5,3,2,1,4,0,400,250.0,train,3,E+
143.044948578,1,600,2,1,5,3,2,1,4,0,400,250.0,train,1,E+
15.0620937347,1,600,2,1,5,3,2,1,4,0,400,250.0,train,1,E+
78.3588886261,5,600,1,1,5,3,2,1,4,0,400,250.0,train,5,E+
206.256151199,1,600,2,1,5,3,2,1,4,0,400,250.0,train,1,E+
222.508192062,3,600,0,1,5,3,2,1,4,0,400,250.0,train,3,E+
814.35918808,2,600,3,1,5,3,2,1,4,0,400,250.0,train,2,E+
206.748008728,4,600,5,0,5,3,2,1,4,0,400,250.0,train,3,E+
78.4001350403,0,600,4,1,5,3,2,1,4,0,400,250.0,train,0,E+
623.035907745,5,600,1,1,5,3,2,1,4,0,400,250.0,train,5,E+
238.595962524,3,600,0,1,5,3,2,1,4,0,400,250.0,train,3,E+
46.4079380035,0,600,4,1,5,3,2,1,4,0,400,250.0,train,0,E+
14.1899585724,2,600,3,0,5,3,2,1,4,0,400,250.0,train,3,E+
46.3709831238,1,600,2,1,5,3,2,1,4,0,400,250.0,train,1,E+
318.801879883,4,600,5,1,5,3,2,1,4,0,400,250.0,train,4,E+
46.2989807129,0,600,4,1,5,3,2,1,4,0,400,250.0,train,0,E+
126.806974411,5,600,1,1,5,3,2,1,4,0,400,250.0,train,5,E+
174.311161041,2,600,3,1,5,3,2,1,4,0,400,250.0,train,2,E+
79.0021419525,5,600,1,1,5,3,2,1,4,0,400,250.0,train,5,E+
542.523860931,3,600,0,1,5,3,2,1,4,0,400,250.0,train,3,E+
78.2361030579,0,600,4,1,5,3,2,1,4,0,400,250.0,train,0,E+
63.0879402161,4,600,5,0,5,3,2,1,4,0,400,250.0,train,3,E+
142.508983612,1,600,2,1,5,3,2,1,4,0,400,250.0,train,1,E+
46.2191104889,4,600,5,1,5,3,2,1,4,0,400,250.0,train,4,E+
14.927148819,0,600,4,1,5,3,2,1,4,0,400,250.0,train,0,E+
558.418989182,0,600,4,1,5,3,2,1,4,0,400,250.0,train,0,E+
62.5309944153,0,600,4,1,5,3,2,1,4,0,400,250.0,train,0,E+
319.149017334,4,600,5,1,5,3,2,1,4,0,400,250.0,train,4,E+
510.322093964,0,600,4,1,5,3,2,1,4,0,400,250.0,train,0,E+
143.005847931,0,600,4,1,5,3,2,1,4,0,400,250.0,train,0,E+
431.652069092,1,600,2,1,5,3,2,1,4,0,400,250.0,train,1,E+
494.743108749,2,600,3,1,5,3,2,1,4,0,400,250.0,train,2,E+
382.328987122,2,600,3,1,5,3,2,1,4,0,400,250.0,train,2,E+
271.603822708,4,600,5,1,5,3,2,1,4,0,400,250.0,train,4,E+
222.132921219,1,600,2,1,5,3,2,1,4,0,400,250.0,train,1,E+
319.169998169,3,600,0,1,5,3,2,1,4,0,400,250.0,train,3,E+
78.4938335419,4,600,5,1,5,3,2,1,4,0,400,250.0,train,4,E+
30.5202007294,0,600,4,1,5,3,2,1,4,0,400,250.0,train,0,E+
222.357034683,5,600,1,1,5,3,2,1,4,0,400,250.0,train,5,E+
47.779083252,5,600,1,1,5,3,2,1,4,0,400,250.0,train,5,E+
639.643907547,3,600,0,1,5,3,2,1,4,0,400,250.0,train,3,E+
95.7701206207,5,600,1,1,5,3,2,1,4,0,400,250.0,train,5,E+
143.146038055,1,600,2,1,5,3,2,1,4,0,400,250.0,train,1,E+
143.93901825,1,600,2,1,5,3,2,1,4,0,400,250.0,train,1,E+
223.036050797,0,600,4,1,5,3,2,1,4,0,400,250.0,train,0,E+
271.480083466,0,600,4,1,5,3,2,1,4,0,400,250.0,train,0,E+
191.646099091,5,600,1,1,5,3,2,1,4,0,400,250.0,train,5,E+
175.704956055,2,600,3,1,5,3,2,1,4,0,400,250.0,train,2,E+
95.8690643311,1,600,2,1,5,3,2,1,4,0,400,250.0,train,1,E+
110.6300354,0,600,4,1,5,3,2,1,4,0,400,250.0,train,0,E+
175.637960434,3,600,0,0,5,3,2,1,4,0,400,250.0,train,2,E+
142.557144165,5,600,1,1,5,3,2,1,4,0,400,250.0,train,5,E+
30.2979946136,0,600,4,1,5,3,2,1,4,0,400,250.0,train,0,E+
95.6630706787,5,600,1,1,5,3,2,1,4,0,400,250.0,train,5,E+
319.133043289,5,600,1,1,5,3,2,1,4,0,400,250.0,train,5,E+
78.5510540009,0,600,4,1,5,3,2,1,4,0,400,250.0,train,0,E+
287.075042725,3,600,0,1,5,3,2,1,4,0,400,250.0,train,3,E+
190.024852753,5,600,1,1,5,3,2,1,4,0,400,250.0,train,5,E+
127.707958221,4,600,5,1,5,3,2,1,4,0,400,250.0,train,4,E+
142.074108124,3,600,0,1,5,3,2,1,4,0,400,250.0,train,3,E+
142.539978027,1,600,2,1,5,3,2,1,4,0,400,250.0,train,1,E+
63.0710124969,0,600,4,1,5,3,2,1,4,0,400,250.0,train,0,E+
174.320936203,4,600,5,0,5,3,2,1,4,0,400,250.0,train,3,E+
367.66409874,1,600,2,1,5,3,2,1,4,0,400,250.0,train,1,E+
285.918951035,2,600,3,1,5,3,2,1,4,0,400,250.0,train,2,E+
191.302061081,3,600,0,1,5,3,2,1,4,0,400,250.0,train,3,E+
77.9929161072,4,600,5,1,5,3,2,1,4,0,400,250.0,train,4,E+
127.727985382,1,600,2,1,5,3,2,1,4,0,400,250.0,train,1,E+
79.7078609467,1,600,2,1,5,3,2,1,4,0,400,250.0,train,1,E+
111.737012863,3,600,0,1,5,3,2,1,4,0,400,250.0,train,3,E+
223.512887955,2,600,3,1,5,3,2,1,4,0,400,250.0,train,2,E+
126.181125641,2,600,3,1,5,3,2,1,4,0,400,250.0,train,2,E+
190.463066101,4,600,5,1,5,3,2,1,4,0,400,250.0,train,4,E+
174.655914307,3,600,0,1,5,3,2,1,4,0,400,250.0,train,3,E+
63.7269020081,4,600,5,1,5,3,2,1,4,0,400,250.0,train,4,E+
127.752065659,2,600,3,1,5,3,2,1,4,0,400,250.0,train,2,E+
223.675012589,3,600,0,1,5,3,2,1,4,0,400,250.0,train,3,E+
79.1289806366,5,600,1,1,5,3,2,1,4,0,400,250.0,train,5,E+
78.3040523529,3,600,0,1,5,3,2,1,4,0,400,250.0,train,3,E+
478.624105453,1,600,2,1,5,3,2,1,4,0,400,250.0,train,1,E+
125.94294548,4,600,5,1,5,3,2,1,4,0,400,250.0,train,4,E+
207.126140594,3,600,0,1,5,3,2,1,4,0,400,250.0,train,3,E+
110.38184166,2,600,3,1,5,3,2,1,4,0,400,250.0,train,2,E+
334.354877472,4,600,5,1,5,3,2,1,4,0,400,250.0,train,4,E+
47.0879077911,1,600,2,1,5,3,2,1,4,0,400,250.0,train,1,E+
110.356092453,1,600,2,1,5,3,2,1,4,0,400,250.0,train,1,E+
207.591056824,3,600,0,1,5,3,2,1,4,0,400,250.0,train,3,E+
63.5840892792,3,600,0,1,5,3,2,1,4,0,400,250.0,train,3,E+
0.0529289245605,5,600,1,1,5,3,2,1,4,0,400,250.0,train,5,E+
143.668889999,2,600,3,0,5,3,2,1,4,0,400,250.0,train,1,E+
111.670017242,0,600,4,1,5,3,2,1,4,0,400,250.0,train,0,E+
207.722187042,3,600,0,1,5,3,2,1,4,0,400,250.0,train,3,E+
79.1318416595,3,600,0,1,5,3,2,1,4,0,400,250.0,train,3,E+
47.8157997131,4,600,5,1,5,3,2,1,4,0,400,250.0,train,4,E+
47.7290153503,2,600,3,1,5,3,2,1,4,0,400,250.0,train,2,E+
319.000005722,4,600,5,1,5,3,2,1,4,0,400,250.0,train,4,E+
238.899946213,1,600,2,1,5,3,2,1,4,0,400,250.0,train,1,E+
191.734075546,0,600,4,1,5,3,2,1,4,0,400,250.0,train,0,E+
143.091917038,3,600,0,1,5,3,2,1,4,0,400,250.0,train,3,E+
223.602056503,2,600,3,1,5,3,2,1,4,0,400,250.0,train,2,E+
79.6990394592,0,600,4,1,5,3,2,1,4,0,400,250.0,train,0,E+
15.1898860931,0,600,4,1,5,3,2,1,4,0,400,250.0,train,0,E+
94.6102142334,2,600,3,1,5,3,2,1,4,0,400,250.0,train,2,E+
239.489078522,1,600,2,1,5,3,2,1,4,0,400,250.0,train,1,E+
175.616025925,1,600,2,1,5,3,2,1,4,0,400,250.0,train,1,E+
46.159029007,1,600,2,1,5,3,2,1,4,0,400,250.0,train,1,E+
111.737966537,3,600,0,1,5,3,2,1,4,0,400,250.0,train,3,E+
207.055807114,1,600,2,1,5,3,2,1,4,0,400,250.0,train,1,E+
206.212997437,5,600,1,1,5,3,2,1,4,0,400,250.0,train,5,E+
30.9481620789,0,600,4,1,5,3,2,1,4,0,400,250.0,train,0,E+
494.787931442,3,600,0,1,5,3,2,1,4,0,400,250.0,train,3,E+
62.6327991486,0,600,4,1,5,3,2,1,4,0,400,250.0,train,0,E+
95.6389904022,0,600,4,1,5,3,2,1,4,0,400,250.0,train,0,E+
222.506046295,3,600,0,1,5,3,2,1,4,0,400,250.0,train,3,E+
318.425893784,4,600,5,1,5,3,2,1,4,0,400,250.0,train,4,E+
159.194946289,2,600,3,1,5,3,2,1,4,0,400,250.0,train,2,E+
63.6768341064,2,600,3,1,5,3,2,1,4,0,400,250.0,train,2,E+
143.383979797,0,600,4,1,5,3,2,1,4,0,400,250.0,train,0,E+
126.554965973,1,600,2,1,5,3,2,1,4,0,400,250.0,train,1,E+
111.202955246,4,600,5,1,5,3,2,1,4,0,400,250.0,train,4,E+
607.623100281,4,600,5,1,5,3,2,1,4,0,400,250.0,train,4,E+
173.816919327,5,600,1,1,5,3,2,1,4,0,400,250.0,train,5,E+
0.0529289245605,1,600,2,1,5,3,2,1,4,0,400,250.0,train,1,E+
366.533994675,1,600,2,1,5,3,2,1,4,0,400,250.0,train,1,E+
30.5330753326,0,600,4,1,5,3,2,1,4,0,400,250.0,train,0,E+
270.586013794,3,600,0,1,5,3,2,1,4,0,400,250.0,train,3,E+
62.488079071,1,600,2,1,5,3,2,1,4,0,400,250.0,train,1,E+
31.0728549957,3,600,0,1,5,3,2,1,4,0,400,250.0,train,3,E+
110.809803009,3,600,0,1,5,3,2,1,4,0,400,250.0,train,3,E+
31.7051410675,3,600,0,1,5,3,2,1,4,0,400,250.0,train,3,E+
143.73588562,1,600,2,1,5,3,2,1,4,0,400,250.0,train,1,E+
239.578008652,5,600,1,1,5,3,2,1,4,0,400,250.0,train,5,E+
175.024986267,0,600,4,1,5,3,2,1,4,0,400,250.0,train,0,E+
158.33902359,4,600,5,1,5,3,2,1,4,0,400,250.0,train,4,E+
158.820867538,5,600,1,1,5,3,2,1,4,0,400,250.0,train,5,E+
254.348039627,3,600,0,1,5,3,2,1,4,0,400,250.0,train,3,E+
527.532100677,1,600,2,1,5,3,2,1,4,0,400,250.0,train,1,E+
174.421072006,4,600,5,0,5,3,2,1,4,0,400,250.0,train,3,E+
334.604024887,2,600,3,1,5,3,2,1,4,0,400,250.0,train,2,E+
191.149950027,4,600,5,1,5,3,2,1,4,0,400,250.0,train,4,E+
47.2631454468,0,600,4,1,5,3,2,1,4,0,400,250.0,train,0,E+
174.360990524,5,600,1,1,5,3,2,1,4,0,400,250.0,train,5,E+
255.588054657,2,600,3,1,5,3,2,1,4,0,400,250.0,train,2,E+
351.629972458,4,600,5,1,5,3,2,1,4,0,400,250.0,train,4,E+
255.644083023,3,600,0,0,5,3,2,1,4,0,400,250.0,train,2,E+
47.7600097656,3,600,0,1,5,3,2,1,4,0,400,250.0,train,3,E+
62.5779628754,0,600,4,1,5,3,2,1,4,0,400,250.0,train,0,E+
111.788988113,0,600,4,1,5,3,2,1,4,0,400,250.0,train,0,E+
126.10411644,1,600,2,1,5,3,2,1,4,0,400,250.0,train,1,E+
190.801143646,4,600,5,1,5,3,2,1,4,0,400,250.0,train,4,E+
111.742019653,4,600,5,1,5,3,2,1,4,0,400,250.0,train,4,E+
63.8110637665,4,600,5,1,5,3,2,1,4,0,400,250.0,train,4,E+
206.161975861,2,600,3,1,5,3,2,1,4,0,400,250.0,train,2,E+
735.023021698,2,600,3,1,5,3,2,1,4,0,400,250.0,train,2,E+
29.3288230896,3,600,0,1,5,3,2,1,4,0,400,250.0,train,3,E+
110.884904861,0,600,4,1,5,3,2,1,4,0,400,250.0,train,0,E+
270.552873611,2,600,3,1,5,3,2,1,4,0,400,250.0,train,2,E+
415.089130402,5,600,1,1,5,3,2,1,4,0,400,250.0,train,5,E+
142.524957657,4,600,5,1,5,3,2,1,4,0,400,250.0,train,4,E+
414.841175079,0,600,4,1,5,3,2,1,4,0,400,250.0,train,0,E+
254.332065582,5,600,1,1,5,3,2,1,4,0,400,250.0,train,5,E+
15.1119232178,0,600,4,1,5,3,2,1,4,0,400,250.0,train,0,E+
47.7850437164,0,600,4,1,5,3,2,1,4,0,400,250.0,train,0,E+
206.312894821,4,600,5,1,5,3,2,1,4,0,400,250.0,train,4,E+
142.407894135,5,600,1,1,5,3,2,1,4,0,400,250.0,train,5,E+
95.7820415497,4,600,5,1,5,3,2,1,4,0,400,250.0,train,4,E+
15.7778263092,5,600,1,1,5,3,2,1,4,0,400,250.0,train,5,E+
670.967102051,4,600,5,1,5,3,2,1,4,0,400,250.0,train,4,E+
31.7602157593,0,600,4,1,5,3,2,1,4,0,400,250.0,train,0,E+
14.7349834442,4,600,5,1,5,3,2,1,4,0,400,250.0,train,4,E+
446.432113647,0,600,4,1,5,3,2,1,4,0,400,250.0,train,0,E+
318.388938904,2,600,3,1,5,3,2,1,4,0,400,250.0,train,2,E+
0.0810623168945,0,600,4,1,5,3,2,1,4,0,400,250.0,train,0,E+
223.740100861,5,600,1,1,5,3,2,1,4,0,400,250.0,train,5,E+
143.684148788,5,600,1,1,5,3,2,1,4,0,400,250.0,train,5,E+
254.882097244,2,600,3,1,5,3,2,1,4,0,400,250.0,train,2,E+
447.656869888,2,600,3,1,5,3,2,1,4,0,400,250.0,train,2,E+
62.8001689911,1,600,2,1,5,3,2,1,4,0,400,250.0,train,1,E+
95.8240032196,5,600,1,1,5,3,2,1,4,0,400,250.0,train,5,E+
543.50399971,4,600,5,1,5,3,2,1,4,0,400,250.0,train,4,E+
31.8810939789,1,600,2,1,5,3,2,1,4,0,400,250.0,train,1,E+
95.7670211792,0,600,4,1,5,3,2,1,4,0,400,250.0,train,0,E+
319.65303421,3,600,0,1,5,3,2,1,4,0,400,250.0,train,3,E+
239.653110504,1,600,2,1,5,3,2,1,4,0,400,250.0,train,1,E+
206.931114197,3,600,0,1,5,3,2,1,4,0,400,250.0,train,3,E+
159.57403183,5,600,1,1,5,3,2,1,4,0,400,250.0,train,5,E+
606.163024902,3,600,0,1,5,3,2,1,4,0,400,250.0,train,3,E+
31.6989421844,0,600,4,1,5,3,2,1,4,0,400,250.0,train,0,E+
31.7339897156,5,600,1,1,5,3,2,1,4,0,400,250.0,train,5,E+
143.487930298,2,600,3,1,5,3,2,1,4,0,400,250.0,train,2,E+
143.525838852,5,600,1,1,5,3,2,1,4,0,400,250.0,train,5,E+
78.4039497375,5,600,1,1,5,3,2,1,4,0,400,250.0,train,5,E+
527.629852295,4,600,5,1,5,3,2,1,4,0,400,250.0,train,4,E+
399.608135223,3,600,0,1,5,3,2,1,4,0,400,250.0,train,3,E+
191.582918167,4,600,5,1,5,3,2,1,4,0,400,250.0,train,4,E+
79.7650814056,1,600,2,1,5,3,2,1,4,0,400,250.0,train,1,E+
142.961025238,3,600,0,1,5,3,2,1,4,0,400,250.0,train,3,E+
255.654096603,2,600,3,1,5,3,2,1,4,0,400,250.0,train,2,E+
175.578832626,3,600,0,1,5,3,2,1,4,0,400,250.0,train,3,E+
111.105203629,1,600,2,1,5,3,2,1,4,0,400,250.0,train,1,E+
142.971992493,4,600,5,1,5,3,2,1,4,0,400,250.0,train,4,E+
111.185789108,4,600,5,1,5,3,2,1,4,0,400,250.0,train,4,E+
110.502958298,4,600,5,1,5,3,2,1,4,0,400,250.0,train,4,E+
606.199026108,0,600,4,1,5,3,2,1,4,0,400,250.0,train,0,E+
79.0131092072,2,600,3,1,5,3,2,1,4,0,400,250.0,train,2,E+
15.6209468842,0,600,4,1,5,3,2,1,4,0,400,250.0,train,0,E+
111.631155014,5,600,1,1,5,3,2,1,4,0,400,250.0,train,5,E+
191.478967667,2,600,3,1,5,3,2,1,4,0,400,250.0,train,2,E+
718.116998672,3,600,0,1,5,3,2,1,4,0,400,250.0,train,3,E+
142.320871353,1,600,2,1,5,3,2,1,4,0,400,250.0,train,1,E+
719.487190247,0,600,4,1,5,3,2,1,4,0,400,250.0,train,0,E+
47.7831363678,0,600,4,1,5,3,2,1,4,0,400,250.0,train,0,E+
63.7300014496,2,600,3,1,5,3,2,1,4,0,400,250.0,train,2,E+
399.568080902,3,600,0,1,5,3,2,1,4,0,400,250.0,train,3,E+
31.5389633179,3,600,0,1,5,3,2,1,4,0,400,250.0,train,3,E+
159.65294838,5,600,1,1,5,3,2,1,4,0,400,250.0,train,5,E+
15.7837867737,0,600,4,1,5,3,2,1,4,0,400,250.0,train,0,E+
175.60005188,5,600,1,1,5,3,2,1,4,0,400,250.0,train,5,E+
79.174041748,0,600,4,1,5,3,2,1,4,0,400,250.0,train,0,E+
95.6211090088,4,600,5,1,5,3,2,1,4,0,400,250.0,train,4,E+
14.3251419067,4,600,5,1,5,3,2,1,4,0,400,250.0,train,4,E+
14.564037323,2,600,3,1,5,3,2,1,4,0,400,250.0,train,2,E+
95.6809520721,1,600,2,1,5,3,2,1,4,0,400,250.0,train,1,E+
31.8431854248,1,600,2,1,5,3,2,1,4,0,400,250.0,train,1,E+
0.0529289245605,0,600,4,1,5,3,2,1,4,0,400,250.0,train,0,E+
0.0550746917725,1,600,2,1,5,3,2,1,4,0,400,250.0,train,1,E+
31.7749977112,4,600,5,1,5,3,2,1,4,0,400,250.0,train,4,E+
63.7509822845,1,600,2,1,5,3,2,1,4,0,400,250.0,train,1,E+
687.628030777,4,600,5,1,5,3,2,1,4,0,400,250.0,train,4,E+
222.731113434,2,600,3,1,5,3,2,1,4,0,400,250.0,train,2,E+
191.658973694,4,600,5,1,5,3,2,1,4,0,400,250.0,train,4,E+
46.4780330658,0,600,4,1,5,3,2,1,4,0,400,250.0,train,0,E+
318.570137024,2,600,3,1,5,3,2,1,4,0,400,250.0,train,2,E+
174.141168594,3,600,0,1,5,3,2,1,4,0,400,250.0,train,3,E+
111.705064774,3,600,0,1,5,3,2,1,4,0,400,250.0,train,3,E+
47.7070808411,2,600,3,0,5,3,2,1,4,0,400,250.0,train,4,E+
127.636909485,3,600,0,1,5,3,2,1,4,0,400,250.0,train,3,E+
543.594121933,3,600,0,1,5,3,2,1,4,0,400,250.0,train,3,E+
110.491037369,0,600,4,1,5,3,2,1,4,0,400,250.0,train,0,E+
127.804994583,1,600,2,1,5,3,2,1,4,0,400,250.0,train,1,E+
958.818912506,5,1000,1,1,5,3,2,1,4,0,0,250.0,test,5,E+
526.71790123,5,1000,1,1,5,3,2,1,4,0,0,250.0,test,5,E+
479.001998901,0,1000,4,1,5,3,2,1,4,0,0,250.0,test,0,E+
429.646015167,0,1000,4,1,5,3,2,1,4,0,0,250.0,test,0,E+
493.88718605,2,1000,3,1,5,3,2,1,4,0,0,250.0,test,2,E+
382.082939148,3,1000,0,1,5,3,2,1,4,0,0,250.0,test,3,E+
477.646112442,5,1000,1,1,5,3,2,1,4,0,0,250.0,test,5,E+
414.001941681,5,1000,1,1,5,3,2,1,4,0,0,250.0,test,5,E+
429.612159729,2,1000,3,0,5,3,2,1,4,0,0,250.0,test,3,E+
1069.21219826,4,1000,5,1,5,3,2,1,4,0,0,250.0,test,4,E+
429.437875748,0,1000,4,1,5,3,2,1,4,0,0,250.0,test,0,E+
478.98888588,2,1000,3,1,5,3,2,1,4,0,0,250.0,test,2,E+
462.085008621,2,1000,3,1,5,3,2,1,4,0,0,250.0,test,2,E+
575.097084045,3,1000,0,1,5,3,2,1,4,0,0,250.0,test,3,E+
477.937936783,4,1000,5,1,5,3,2,1,4,0,0,250.0,test,4,E+
526.820898056,1,1000,2,1,5,3,2,1,4,0,0,250.0,test,1,E+
735.188961029,3,1000,0,1,5,3,2,1,4,0,0,250.0,test,3,E+
478.413820267,2,1000,3,1,5,3,2,1,4,0,0,250.0,test,2,E+
462.17083931,0,1000,4,1,5,3,2,1,4,0,0,250.0,test,0,E+
797.512054443,4,1000,5,1,5,3,2,1,4,0,0,250.0,test,4,E+
447.639942169,2,1000,3,1,5,3,2,1,4,0,0,250.0,test,2,E+
333.898067474,1,1000,2,1,5,3,2,1,4,0,0,250.0,test,1,E+
334.300994873,0,1000,4,1,5,3,2,1,4,0,0,250.0,test,0,E+
526.37386322,5,1000,1,1,5,3,2,1,4,0,0,250.0,test,5,E+
398.677110672,0,1000,4,1,5,3,2,1,4,0,0,250.0,test,0,E+
494.522094727,5,1000,1,1,5,3,2,1,4,0,0,250.0,test,5,E+
495.690107346,1,1000,2,1,5,3,2,1,4,0,0,250.0,test,1,E+
590.136051178,4,1000,5,1,5,3,2,1,4,0,0,250.0,test,4,E+
542.384147644,3,1000,0,1,5,3,2,1,4,0,0,250.0,test,3,E+
399.181842804,0,1000,4,1,5,3,2,1,4,0,0,250.0,test,0,E+
557.605981827,5,1000,1,1,5,3,2,1,4,0,0,250.0,test,5,E+
495.762109756,2,1000,3,1,5,3,2,1,4,0,0,250.0,test,2,E+
574.066877365,0,1000,4,1,5,3,2,1,4,0,0,250.0,test,0,E+
574.38993454,4,1000,5,1,5,3,2,1,4,0,0,250.0,test,4,E+
397.948026657,5,1000,1,1,5,3,2,1,4,0,0,250.0,test,5,E+
751.136779785,3,1000,0,1,5,3,2,1,4,0,0,250.0,test,3,E+
558.507919312,4,1000,5,1,5,3,2,1,4,0,0,250.0,test,4,E+
415.199995041,1,1000,2,1,5,3,2,1,4,0,0,250.0,test,1,E+
462.302923203,3,1000,0,1,5,3,2,1,4,0,0,250.0,test,3,E+
382.812023163,2,1000,3,1,5,3,2,1,4,0,0,250.0,test,2,E+
446.630001068,3,1000,0,1,5,3,2,1,4,0,0,250.0,test,3,E+
334.504127502,4,1000,5,1,5,3,2,1,4,0,0,250.0,test,4,E+
382.366895676,3,1000,0,0,5,3,2,1,4,0,0,250.0,test,4,E+
623.599052429,5,1000,1,1,5,3,2,1,4,0,0,250.0,test,5,E+
493.460178375,2,1000,3,1,5,3,2,1,4,0,0,250.0,test,2,E+
429.993867874,2,1000,3,1,5,3,2,1,4,0,0,250.0,test,2,E+
429.332017899,2,1000,3,1,5,3,2,1,4,0,0,250.0,test,2,E+
542.241096497,3,1000,0,1,5,3,2,1,4,0,0,250.0,test,3,E+
446.830034256,4,1000,5,1,5,3,2,1,4,0,0,250.0,test,4,E+
750.898122787,1,1000,2,1,5,3,2,1,4,0,0,250.0,test,1,E+
493.502855301,1,1000,2,1,5,3,2,1,4,0,0,250.0,test,1,E+
382.066965103,1,1000,2,1,5,3,2,1,4,0,0,250.0,test,1,E+
590.737104416,4,1000,5,1,5,3,2,1,4,0,0,250.0,test,4,E+
542.247056961,0,1000,4,1,5,3,2,1,4,0,0,250.0,test,0,E+
559.293031693,5,1000,1,1,5,3,2,1,4,0,0,250.0,test,5,E+
574.043989182,2,1000,3,1,5,3,2,1,4,0,0,250.0,test,2,E+
413.935899734,4,1000,5,1,5,3,2,1,4,0,0,250.0,test,4,E+
765.440940857,2,1000,3,1,5,3,2,1,4,0,0,250.0,test,2,E+
493.182897568,1,1000,2,1,5,3,2,1,4,0,0,250.0,test,1,E+
398.849010468,1,1000,2,1,5,3,2,1,4,0,0,250.0,test,1,E+
877.273082733,5,1000,1,1,5,3,2,1,4,0,0,250.0,test,5,E+
478.372097015,2,1000,3,1,5,3,2,1,4,0,0,250.0,test,2,E+
413.806915283,2,1000,3,1,5,3,2,1,4,0,0,250.0,test,2,E+
366.43910408,1,1000,2,1,5,3,2,1,4,0,0,250.0,test,1,E+
623.16608429,3,1000,0,1,5,3,2,1,4,0,0,250.0,test,3,E+
542.316913605,1,1000,2,1,5,3,2,1,4,0,0,250.0,test,1,E+
622.363090515,3,1000,0,1,5,3,2,1,4,0,0,250.0,test,3,E+
879.559993744,2,1000,3,1,5,3,2,1,4,0,0,250.0,test,2,E+
638.40007782,4,1000,5,1,5,3,2,1,4,0,0,250.0,test,4,E+
494.355916977,4,1000,5,1,5,3,2,1,4,0,0,250.0,test,4,E+
383.131980896,4,1000,5,1,5,3,2,1,4,0,0,250.0,test,4,E+
525.57516098,5,1000,1,1,5,3,2,1,4,0,0,250.0,test,5,E+
719.564914703,3,1000,0,0,5,3,2,1,4,0,0,250.0,test,2,E+
654.561042786,3,1000,0,1,5,3,2,1,4,0,0,250.0,test,3,E+
558.371067047,2,1000,3,1,5,3,2,1,4,0,0,250.0,test,2,E+
687.232017517,4,1000,5,1,5,3,2,1,4,0,0,250.0,test,4,E+
478.447914124,4,1000,5,1,5,3,2,1,4,0,0,250.0,test,4,E+
461.894989014,4,1000,5,1,5,3,2,1,4,0,0,250.0,test,4,E+
478.858947754,5,1000,1,1,5,3,2,1,4,0,0,250.0,test,5,E+
446.286201477,5,1000,1,1,5,3,2,1,4,0,0,250.0,test,5,E+
399.104833603,4,1000,5,1,5,3,2,1,4,0,0,250.0,test,4,E+
574.643135071,2,1000,3,1,5,3,2,1,4,0,0,250.0,test,2,E+
495.670080185,0,1000,4,1,5,3,2,1,4,0,0,250.0,test,0,E+
510.910987854,0,1000,4,1,5,3,2,1,4,0,0,250.0,test,0,E+
606.285810471,3,1000,0,1,5,3,2,1,4,0,0,250.0,test,3,E+
654.296875,5,1000,1,1,5,3,2,1,4,0,0,250.0,test,5,E+
527.04000473,0,1000,4,1,5,3,2,1,4,0,0,250.0,test,0,E+
559.151887894,5,1000,1,1,5,3,2,1,4,0,0,250.0,test,5,E+
559.065103531,2,1000,3,1,5,3,2,1,4,0,0,250.0,test,2,E+
573.446989059,1,1000,2,1,5,3,2,1,4,0,0,250.0,test,1,E+
622.547149658,4,1000,5,1,5,3,2,1,4,0,0,250.0,test,4,E+
463.573932648,0,1000,4,1,5,3,2,1,4,0,0,250.0,test,0,E+
463.654994965,0,1000,4,1,5,3,2,1,4,0,0,250.0,test,0,E+
493.315935135,1,1000,2,1,5,3,2,1,4,0,0,250.0,test,1,E+
543.568849564,0,1000,4,1,5,3,2,1,4,0,0,250.0,test,0,E+
1135.62512398,3,1000,0,1,5,3,2,1,4,0,0,250.0,test,3,E+
510.594129562,0,1000,4,1,5,3,2,1,4,0,0,250.0,test,0,E+
414.366006851,0,1000,4,1,5,3,2,1,4,0,0,250.0,test,0,E+
719.163894653,3,1000,0,1,5,3,2,1,4,0,0,250.0,test,3,E+
478.548049927,0,1000,4,1,5,3,2,1,4,0,0,250.0,test,0,E+
479.188203812,0,1000,4,1,5,3,2,1,4,0,0,250.0,test,0,E+
687.653064728,4,1000,5,1,5,3,2,1,4,0,0,250.0,test,4,E+
494.611024857,1,1000,2,1,5,3,2,1,4,0,0,250.0,test,1,E+
447.644948959,1,1000,2,1,5,3,2,1,4,0,0,250.0,test,1,E+
367.672920227,1,1000,2,1,5,3,2,1,4,0,0,250.0,test,1,E+
414.42990303,1,1000,2,1,5,3,2,1,4,0,0,250.0,test,1,E+
334.259986877,1,1000,2,1,5,3,2,1,4,0,0,250.0,test,1,E+
718.874931335,2,1000,3,1,5,3,2,1,4,0,0,250.0,test,2,E+
574.673891068,5,1000,1,1,5,3,2,1,4,0,0,250.0,test,5,E+
494.392871857,0,1000,4,1,5,3,2,1,4,0,0,250.0,test,0,E+
462.544202805,0,1000,4,1,5,3,2,1,4,0,0,250.0,test,0,E+
509.729146957,0,1000,4,1,5,3,2,1,4,0,0,250.0,test,0,E+
399.706840515,1,1000,2,1,5,3,2,1,4,0,0,250.0,test,1,E+
526.651144028,3,1000,0,1,5,3,2,1,4,0,0,250.0,test,3,E+
671.632051468,2,1000,3,1,5,3,2,1,4,0,0,250.0,test,2,E+
447.631835938,0,1000,4,1,5,3,2,1,4,0,0,250.0,test,0,E+
607.628107071,5,1000,1,1,5,3,2,1,4,0,0,250.0,test,5,E+
847.137928009,2,1000,3,1,5,3,2,1,4,0,0,250.0,test,2,E+
494.34709549,1,1000,2,1,5,3,2,1,4,0,0,250.0,test,1,E+
655.157089233,2,1000,3,1,5,3,2,1,4,0,0,250.0,test,2,E+
495.19610405,1,1000,2,1,5,3,2,1,4,0,0,250.0,test,1,E+
399.163961411,1,1000,2,1,5,3,2,1,4,0,0,250.0,test,1,E+
430.884838104,0,1000,4,1,5,3,2,1,4,0,0,250.0,test,0,E+
511.137962341,5,1000,1,1,5,3,2,1,4,0,0,250.0,test,5,E+
526.789188385,3,1000,0,0,5,3,2,1,4,0,0,250.0,test,2,E+
463.2999897,5,1000,1,1,5,3,2,1,4,0,0,250.0,test,5,E+
447.108030319,0,1000,4,1,5,3,2,1,4,0,0,250.0,test,0,E+
463.054895401,0,1000,4,1,5,3,2,1,4,0,0,250.0,test,0,E+
382.431030273,0,1000,4,1,5,3,2,1,4,0,0,250.0,test,0,E+
494.485139847,2,1000,3,1,5,3,2,1,4,0,0,250.0,test,2,E+
510.926008224,2,1000,3,1,5,3,2,1,4,0,0,250.0,test,2,E+
653.721094131,3,1000,0,1,5,3,2,1,4,0,0,250.0,test,3,E+
525.569915771,0,1000,4,1,5,3,2,1,4,0,0,250.0,test,0,E+
463.028907776,1,1000,2,1,5,3,2,1,4,0,0,250.0,test,1,E+
510.405778885,0,1000,4,1,5,3,2,1,4,0,0,250.0,test,0,E+
493.448972702,1,1000,2,1,5,3,2,1,4,0,0,250.0,test,1,E+
1294.7268486,4,1000,5,1,5,3,2,1,4,0,0,250.0,test,4,E+
463.093996048,3,1000,0,1,5,3,2,1,4,0,0,250.0,test,3,E+
478.976011276,2,1000,3,1,5,3,2,1,4,0,0,250.0,test,2,E+
542.063951492,5,1000,1,1,5,3,2,1,4,0,0,250.0,test,5,E+
591.137886047,3,1000,0,1,5,3,2,1,4,0,0,250.0,test,3,E+
638.074159622,1,1000,2,1,5,3,2,1,4,0,0,250.0,test,1,E+
542.324066162,0,1000,4,1,5,3,2,1,4,0,0,250.0,test,0,E+
654.32882309,3,1000,0,1,5,3,2,1,4,0,0,250.0,test,3,E+
494.438171387,3,1000,0,1,5,3,2,1,4,0,0,250.0,test,3,E+
1070.48797607,5,1000,1,1,5,3,2,1,4,0,0,250.0,test,5,E+
542.402029037,1,1000,2,1,5,3,2,1,4,0,0,250.0,test,1,E+
574.151992798,5,1000,1,1,5,3,2,1,4,0,0,250.0,test,5,E+
430.405855179,0,1000,4,1,5,3,2,1,4,0,0,250.0,test,0,E+
719.717025757,3,1000,0,1,5,3,2,1,4,0,0,250.0,test,3,E+
478.417158127,5,1000,1,1,5,3,2,1,4,0,0,250.0,test,5,E+
749.941110611,2,1000,3,1,5,3,2,1,4,0,0,250.0,test,2,E+
542.411804199,1,1000,2,1,5,3,2,1,4,0,0,250.0,test,1,E+
620.906829834,3,1000,0,1,5,3,2,1,4,0,0,250.0,test,3,E+
414.168834686,4,1000,5,1,5,3,2,1,4,0,0,250.0,test,4,E+
831.732034683,3,1000,0,1,5,3,2,1,4,0,0,250.0,test,3,E+
511.703968048,4,1000,5,1,5,3,2,1,4,0,0,250.0,test,4,E+
686.568021774,3,1000,0,1,5,3,2,1,4,0,0,250.0,test,3,E+
543.359994888,0,1000,4,1,5,3,2,1,4,0,0,250.0,test,0,E+
654.620885849,4,1000,5,1,5,3,2,1,4,0,0,250.0,test,4,E+
495.157957077,1,1000,2,1,5,3,2,1,4,0,0,250.0,test,1,E+
783.043146133,5,1000,1,1,5,3,2,1,4,0,0,250.0,test,5,E+
542.998075485,3,1000,0,1,5,3,2,1,4,0,0,250.0,test,3,E+
639.136791229,2,1000,3,0,5,3,2,1,4,0,0,250.0,test,1,E+
494.462013245,2,1000,3,1,5,3,2,1,4,0,0,250.0,test,2,E+
413.287162781,2,1000,3,1,5,3,2,1,4,0,0,250.0,test,2,E+
431.681871414,1,1000,2,1,5,3,2,1,4,0,0,250.0,test,1,E+
590.376138687,5,1000,1,1,5,3,2,1,4,0,0,250.0,test,5,E+
590.46792984,0,1000,4,1,5,3,2,1,4,0,0,250.0,test,0,E+
605.178833008,5,1000,1,1,5,3,2,1,4,0,0,250.0,test,5,E+
590.329885483,1,1000,2,1,5,3,2,1,4,0,0,250.0,test,1,E+
654.407024384,3,1000,0,1,5,3,2,1,4,0,0,250.0,test,3,E+
461.12203598,5,1000,1,1,5,3,2,1,4,0,0,250.0,test,5,E+
511.569023132,0,1000,4,1,5,3,2,1,4,0,0,250.0,test,0,E+
735.099077225,2,1000,3,1,5,3,2,1,4,0,0,250.0,test,2,E+
525.343894958,1,1000,2,1,5,3,2,1,4,0,0,250.0,test,1,E+
511.085033417,3,1000,0,1,5,3,2,1,4,0,0,250.0,test,3,E+
495.050907135,5,1000,1,1,5,3,2,1,4,0,0,250.0,test,5,E+
510.53404808,5,1000,1,1,5,3,2,1,4,0,0,250.0,test,5,E+
462.49294281,0,1000,4,1,5,3,2,1,4,0,0,250.0,test,0,E+
543.234109879,1,1000,2,1,5,3,2,1,4,0,0,250.0,test,1,E+
573.463916779,2,1000,3,1,5,3,2,1,4,0,0,250.0,test,2,E+
606.498003006,4,1000,5,1,5,3,2,1,4,0,0,250.0,test,4,E+
350.558042526,3,1000,0,1,5,3,2,1,4,0,0,250.0,test,3,E+
542.145967484,1,1000,2,1,5,3,2,1,4,0,0,250.0,test,1,E+
462.514162064,1,1000,2,1,5,3,2,1,4,0,0,250.0,test,1,E+
542.430877686,4,1000,5,1,5,3,2,1,4,0,0,250.0,test,4,E+
463.521003723,4,1000,5,1,5,3,2,1,4,0,0,250.0,test,4,E+
462.651014328,0,1000,4,1,5,3,2,1,4,0,0,250.0,test,0,E+
591.742992401,4,1000,5,1,5,3,2,1,4,0,0,250.0,test,4,E+
415.089845657,4,1000,5,1,5,3,2,1,4,0,0,250.0,test,4,E+
638.875961304,2,1000,3,1,5,3,2,1,4,0,0,250.0,test,2,E+
686.315059662,3,1000,0,1,5,3,2,1,4,0,0,250.0,test,3,E+
543.658018112,1,1000,2,1,5,3,2,1,4,0,0,250.0,test,1,E+
447.608947754,1,1000,2,1,5,3,2,1,4,0,0,250.0,test,1,E+
638.919830322,2,1000,3,1,5,3,2,1,4,0,0,250.0,test,2,E+
542.995929718,4,1000,5,1,5,3,2,1,4,0,0,250.0,test,4,E+
782.300949097,2,1000,3,1,5,3,2,1,4,0,0,250.0,test,2,E+
575.002908707,3,1000,0,1,5,3,2,1,4,0,0,250.0,test,3,E+
431.056976318,4,1000,5,1,5,3,2,1,4,0,0,250.0,test,4,E+
782.268047333,3,1000,0,1,5,3,2,1,4,0,0,250.0,test,3,E+
687.136888504,0,1000,4,1,5,3,2,1,4,0,0,250.0,test,0,E+
495.057821274,1,1000,2,1,5,3,2,1,4,0,0,250.0,test,1,E+
575.114965439,0,1000,4,1,5,3,2,1,4,0,0,250.0,test,0,E+
685.250997543,5,1000,1,1,5,3,2,1,4,0,0,250.0,test,5,E+
479.668140411,1,1000,2,1,5,3,2,1,4,0,0,250.0,test,1,E+
414.684057236,3,1000,0,0,5,3,2,1,4,0,0,250.0,test,4,E+
415.001153946,3,1000,0,1,5,3,2,1,4,0,0,250.0,test,3,E+
526.506900787,0,1000,4,1,5,3,2,1,4,0,0,250.0,test,0,E+
527.593851089,5,1000,1,1,5,3,2,1,4,0,0,250.0,test,5,E+
606.462955475,2,1000,3,1,5,3,2,1,4,0,0,250.0,test,2,E+
479.663848877,1,1000,2,1,5,3,2,1,4,0,0,250.0,test,1,E+
495.074033737,4,1000,5,1,5,3,2,1,4,0,0,250.0,test,4,E+
591.557979584,1,1000,2,1,5,3,2,1,4,0,0,250.0,test,1,E+
638.249158859,5,1000,1,1,5,3,2,1,4,0,0,250.0,test,5,E+
445.81413269,1,1000,2,1,5,3,2,1,4,0,0,250.0,test,1,E+
462.729930878,4,1000,5,1,5,3,2,1,4,0,0,250.0,test,4,E+
478.92999649,4,1000,5,1,5,3,2,1,4,0,0,250.0,test,4,E+
446.372032166,1,1000,2,1,5,3,2,1,4,0,0,250.0,test,1,E+
527.709960938,3,1000,0,0,5,3,2,1,4,0,0,250.0,test,4,E+
431.663036346,3,1000,0,1,5,3,2,1,4,0,0,250.0,test,3,E+
397.382974625,3,1000,0,1,5,3,2,1,4,0,0,250.0,test,3,E+
446.297883987,5,1000,1,1,5,3,2,1,4,0,0,250.0,test,5,E+
462.6288414,1,1000,2,1,5,3,2,1,4,0,0,250.0,test,1,E+
735.682964325,3,1000,0,1,5,3,2,1,4,0,0,250.0,test,3,E+
414.294958115,4,1000,5,1,5,3,2,1,4,0,0,250.0,test,4,E+
510.37478447,4,1000,5,1,5,3,2,1,4,0,0,250.0,test,4,E+
479.098796844,5,1000,1,1,5,3,2,1,4,0,0,250.0,test,5,E+
622.389793396,2,1000,3,1,5,3,2,1,4,0,0,250.0,test,2,E+
590.237855911,0,1000,4,1,5,3,2,1,4,0,0,250.0,test,0,E+
527.24313736,3,1000,0,1,5,3,2,1,4,0,0,250.0,test,3,E+
415.6498909,3,1000,0,1,5,3,2,1,4,0,0,250.0,test,3,E+
526.276111603,0,1000,4,1,5,3,2,1,4,0,0,250.0,test,0,E+
575.680971146,2,1000,3,1,5,3,2,1,4,0,0,250.0,test,2,E+
559.110164642,5,1000,1,1,5,3,2,1,4,0,0,250.0,test,5,E+
1327.58712769,2,1000,3,1,5,3,2,1,4,0,0,250.0,test,2,E+
573.41504097,4,1000,5,1,5,3,2,1,4,0,0,250.0,test,4,E+
543.682098389,4,1000,5,1,5,3,2,1,4,0,0,250.0,test,4,E+
365.378856659,3,1000,0,1,5,3,2,1,4,0,0,250.0,test,3,E+
463.671922684,0,1000,4,1,5,3,2,1,4,0,0,250.0,test,0,E+
623.170852661,4,1000,5,1,5,3,2,1,4,0,0,250.0,test,4,E+
446.535825729,0,1000,4,1,5,3,2,1,4,0,0,250.0,test,0,E+
671.620130539,2,1000,3,1,5,3,2,1,4,0,0,250.0,test,2,E+
430.521011353,0,1000,4,1,5,3,2,1,4,0,0,250.0,test,0,E+
655.76505661,3,1000,0,1,5,3,2,1,4,0,0,250.0,test,3,E+
478.065013885,2,1000,3,1,5,3,2,1,4,0,0,250.0,test,2,E+
574.244022369,4,1000,5,1,5,3,2,1,4,0,0,250.0,test,4,E+
543.570995331,2,1000,3,1,5,3,2,1,4,0,0,250.0,test,2,E+
493.906974792,2,1000,3,1,5,3,2,1,4,0,0,250.0,test,2,E+
558.745861053,5,1000,1,1,5,3,2,1,4,0,0,250.0,test,5,E+
