RT,correct_response,ms-prestimblank,curstim,correct,SRmap_1,SRmap_0,SRmap_3,SRmap_2,SRmap_5,SRmap_4,ms-precue,ntrials,type,response,condition
1263.58604431,1,1000,0,0,5,1,4,3,2,0,0,250.0,train,4,H+
11598.3521938,0,1000,4,1,5,1,4,3,2,0,0,250.0,train,0,H+
7023.16117287,5,1000,1,1,5,1,4,3,2,0,0,250.0,train,5,H+
1711.8639946,4,1000,3,1,5,1,4,3,2,0,0,250.0,train,4,H+
3568.36009026,0,1000,4,1,5,1,4,3,2,0,0,250.0,train,0,H+
2031.97979927,0,1000,4,1,5,1,4,3,2,0,0,250.0,train,0,H+
1599.92909431,1,1000,0,1,5,1,4,3,2,0,0,250.0,train,1,H+
2735.77690125,4,1000,3,1,5,1,4,3,2,0,0,250.0,train,4,H+
1295.93086243,4,1000,3,1,5,1,4,3,2,0,0,250.0,train,4,H+
1328.06301117,4,1000,3,1,5,1,4,3,2,0,0,250.0,train,4,H+
1375.88000298,1,1000,0,1,5,1,4,3,2,0,0,250.0,train,1,H+
1696.06089592,4,1000,3,1,5,1,4,3,2,0,0,250.0,train,4,H+
3327.70586014,2,1000,5,1,5,1,4,3,2,0,0,250.0,train,2,H+
3311.66005135,3,1000,2,1,5,1,4,3,2,0,0,250.0,train,3,H+
1679.93593216,0,1000,4,1,5,1,4,3,2,0,0,250.0,train,0,H+
3807.65414238,3,1000,2,1,5,1,4,3,2,0,0,250.0,train,3,H+
1503.96704674,3,1000,2,1,5,1,4,3,2,0,0,250.0,train,3,H+
960.206985474,3,1000,2,1,5,1,4,3,2,0,0,250.0,train,3,H+
1344.02799606,4,1000,3,1,5,1,4,3,2,0,0,250.0,train,4,H+
1328.12809944,4,1000,3,1,5,1,4,3,2,0,0,250.0,train,4,H+
1615.99111557,3,1000,2,1,5,1,4,3,2,0,0,250.0,train,3,H+
799.834012985,3,1000,2,1,5,1,4,3,2,0,0,250.0,train,3,H+
1328.06587219,1,1000,0,1,5,1,4,3,2,0,0,250.0,train,1,H+
816.117048264,3,1000,2,1,5,1,4,3,2,0,0,250.0,train,3,H+
912.066936493,4,1000,3,1,5,1,4,3,2,0,0,250.0,train,4,H+
879.900932312,0,1000,4,1,5,1,4,3,2,0,0,250.0,train,0,H+
1120.05901337,1,1000,0,0,5,1,4,3,2,0,0,250.0,train,0,H+
3135.39791107,3,1000,2,1,5,1,4,3,2,0,0,250.0,train,3,H+
2031.57901764,1,1000,0,1,5,1,4,3,2,0,0,250.0,train,1,H+
4223.54698181,2,1000,5,1,5,1,4,3,2,0,0,250.0,train,2,H+
1503.86309624,4,1000,3,1,5,1,4,3,2,0,0,250.0,train,4,H+
1983.9990139,5,1000,1,1,5,1,4,3,2,0,0,250.0,train,5,H+
1328.0878067,0,1000,4,1,5,1,4,3,2,0,0,250.0,train,0,H+
1807.8930378,0,1000,4,1,5,1,4,3,2,0,0,250.0,train,0,H+
736.246109009,0,1000,4,1,5,1,4,3,2,0,0,250.0,train,0,H+
928.16400528,1,1000,0,1,5,1,4,3,2,0,0,250.0,train,1,H+
656.050920486,4,1000,3,1,5,1,4,3,2,0,0,250.0,train,4,H+
800.150156021,5,1000,1,0,5,1,4,3,2,0,0,250.0,train,4,H+
1280.00402451,4,1000,3,1,5,1,4,3,2,0,0,250.0,train,4,H+
1760.02311707,2,1000,5,1,5,1,4,3,2,0,0,250.0,train,2,H+
928.260803223,5,1000,1,1,5,1,4,3,2,0,0,250.0,train,5,H+
2207.65709877,1,1000,0,1,5,1,4,3,2,0,0,250.0,train,1,H+
1232.19680786,4,1000,3,1,5,1,4,3,2,0,0,250.0,train,4,H+
2783.66589546,1,1000,0,1,5,1,4,3,2,0,0,250.0,train,1,H+
864.202976227,4,1000,3,1,5,1,4,3,2,0,0,250.0,train,4,H+
1584.05017853,0,1000,4,0,5,1,4,3,2,0,0,250.0,train,1,H+
2895.76601982,1,1000,0,1,5,1,4,3,2,0,0,250.0,train,1,H+
3295.78089714,1,1000,0,1,5,1,4,3,2,0,0,250.0,train,1,H+
1568.03297997,0,1000,4,1,5,1,4,3,2,0,0,250.0,train,0,H+
3007.82108307,3,1000,2,1,5,1,4,3,2,0,0,250.0,train,3,H+
1631.95490837,0,1000,4,1,5,1,4,3,2,0,0,250.0,train,0,H+
3855.27706146,3,1000,2,1,5,1,4,3,2,0,0,250.0,train,3,H+
1519.99497414,2,1000,5,1,5,1,4,3,2,0,0,250.0,train,2,H+
1775.97689629,5,1000,1,1,5,1,4,3,2,0,0,250.0,train,5,H+
1072.19409943,2,1000,5,1,5,1,4,3,2,0,0,250.0,train,2,H+
1072.11399078,4,1000,3,1,5,1,4,3,2,0,0,250.0,train,4,H+
2319.94009018,3,1000,2,1,5,1,4,3,2,0,0,250.0,train,3,H+
2351.82189941,3,1000,2,1,5,1,4,3,2,0,0,250.0,train,3,H+
1295.93920708,1,1000,0,1,5,1,4,3,2,0,0,250.0,train,1,H+
1791.9781208,5,1000,1,1,5,1,4,3,2,0,0,250.0,train,5,H+
1024.35398102,0,1000,4,1,5,1,4,3,2,0,0,250.0,train,0,H+
928.333044052,3,1000,2,1,5,1,4,3,2,0,0,250.0,train,3,H+
1199.94688034,2,1000,5,1,5,1,4,3,2,0,0,250.0,train,2,H+
912.158966064,2,1000,5,1,5,1,4,3,2,0,0,250.0,train,2,H+
640.153884888,0,1000,4,1,5,1,4,3,2,0,0,250.0,train,0,H+
784.193992615,2,1000,5,1,5,1,4,3,2,0,0,250.0,train,2,H+
784.198999405,3,1000,2,1,5,1,4,3,2,0,0,250.0,train,3,H+
528.194904327,4,1000,3,1,5,1,4,3,2,0,0,250.0,train,4,H+
704.282999039,4,1000,3,1,5,1,4,3,2,0,0,250.0,train,4,H+
1072.12281227,2,1000,5,1,5,1,4,3,2,0,0,250.0,train,2,H+
704.220056534,5,1000,1,1,5,1,4,3,2,0,0,250.0,train,5,H+
736.885070801,4,1000,3,1,5,1,4,3,2,0,0,250.0,train,4,H+
800.258874893,0,1000,4,1,5,1,4,3,2,0,0,250.0,train,0,H+
736.117839813,4,1000,3,1,5,1,4,3,2,0,0,250.0,train,4,H+
671.855926514,4,1000,3,1,5,1,4,3,2,0,0,250.0,train,4,H+
1328.10211182,3,1000,2,1,5,1,4,3,2,0,0,250.0,train,3,H+
1471.79794312,1,1000,0,1,5,1,4,3,2,0,0,250.0,train,1,H+
735.746145248,0,1000,4,1,5,1,4,3,2,0,0,250.0,train,0,H+
719.964981079,0,1000,4,1,5,1,4,3,2,0,0,250.0,train,0,H+
927.967071533,2,1000,5,1,5,1,4,3,2,0,0,250.0,train,2,H+
2143.85700226,3,1000,2,1,5,1,4,3,2,0,0,250.0,train,3,H+
1279.99997139,1,1000,0,0,5,1,4,3,2,0,0,250.0,train,2,H+
959.964990616,5,1000,1,1,5,1,4,3,2,0,0,250.0,train,5,H+
736.178874969,0,1000,4,1,5,1,4,3,2,0,0,250.0,train,0,H+
639.869213104,0,1000,4,1,5,1,4,3,2,0,0,250.0,train,0,H+
1216.12501144,4,1000,3,1,5,1,4,3,2,0,0,250.0,train,4,H+
639.96720314,0,1000,4,1,5,1,4,3,2,0,0,250.0,train,0,H+
2063.82918358,1,1000,0,1,5,1,4,3,2,0,0,250.0,train,1,H+
1104.2201519,2,1000,5,0,5,1,4,3,2,0,0,250.0,train,1,H+
1567.92497635,2,1000,5,1,5,1,4,3,2,0,0,250.0,train,2,H+
736.10496521,2,1000,5,1,5,1,4,3,2,0,0,250.0,train,2,H+
591.958999634,1,1000,0,1,5,1,4,3,2,0,0,250.0,train,1,H+
1839.91408348,4,1000,3,1,5,1,4,3,2,0,0,250.0,train,4,H+
672.164916992,0,1000,4,1,5,1,4,3,2,0,0,250.0,train,0,H+
816.278934479,3,1000,2,0,5,1,4,3,2,0,0,250.0,train,5,H+
1775.77018738,2,1000,5,1,5,1,4,3,2,0,0,250.0,train,2,H+
3343.5549736,1,1000,0,1,5,1,4,3,2,0,0,250.0,train,1,H+
799.932956696,0,1000,4,1,5,1,4,3,2,0,0,250.0,train,0,H+
1551.90610886,2,1000,5,1,5,1,4,3,2,0,0,250.0,train,2,H+
687.90102005,1,1000,0,1,5,1,4,3,2,0,0,250.0,train,1,H+
1152.25887299,2,1000,5,1,5,1,4,3,2,0,0,250.0,train,2,H+
719.94304657,1,1000,0,0,5,1,4,3,2,0,0,250.0,train,2,H+
1055.87601662,3,1000,2,1,5,1,4,3,2,0,0,250.0,train,3,H+
704.071044922,4,1000,3,1,5,1,4,3,2,0,0,250.0,train,4,H+
815.916061401,2,1000,5,1,5,1,4,3,2,0,0,250.0,train,2,H+
720.084905624,5,1000,1,1,5,1,4,3,2,0,0,250.0,train,5,H+
640.261888504,2,1000,5,1,5,1,4,3,2,0,0,250.0,train,2,H+
879.765033722,3,1000,2,1,5,1,4,3,2,0,0,250.0,train,3,H+
1743.85595322,1,1000,0,1,5,1,4,3,2,0,0,250.0,train,1,H+
1311.81192398,3,1000,2,1,5,1,4,3,2,0,0,250.0,train,3,H+
880.24187088,0,1000,4,1,5,1,4,3,2,0,0,250.0,train,0,H+
688.049077988,2,1000,5,1,5,1,4,3,2,0,0,250.0,train,2,H+
816.155910492,2,1000,5,1,5,1,4,3,2,0,0,250.0,train,2,H+
927.949905396,4,1000,3,1,5,1,4,3,2,0,0,250.0,train,4,H+
720.176935196,3,1000,2,1,5,1,4,3,2,0,0,250.0,train,3,H+
624.013900757,4,1000,3,1,5,1,4,3,2,0,0,250.0,train,4,H+
831.990003586,0,1000,4,1,5,1,4,3,2,0,0,250.0,train,0,H+
735.862970352,0,1000,4,1,5,1,4,3,2,0,0,250.0,train,0,H+
639.631032944,4,1000,3,1,5,1,4,3,2,0,0,250.0,train,4,H+
768.052101135,5,1000,1,1,5,1,4,3,2,0,0,250.0,train,5,H+
751.244068146,4,1000,3,1,5,1,4,3,2,0,0,250.0,train,4,H+
624.146938324,5,1000,1,1,5,1,4,3,2,0,0,250.0,train,5,H+
624.054908752,5,1000,1,1,5,1,4,3,2,0,0,250.0,train,5,H+
799.825191498,0,1000,4,1,5,1,4,3,2,0,0,250.0,train,0,H+
1711.4648819,3,1000,2,1,5,1,4,3,2,0,0,250.0,train,3,H+
751.876115799,4,1000,3,1,5,1,4,3,2,0,0,250.0,train,4,H+
768.013000488,2,1000,5,0,5,1,4,3,2,0,0,250.0,train,4,H+
831.722021103,0,1000,4,1,5,1,4,3,2,0,0,250.0,train,0,H+
672.152996063,3,1000,2,1,5,1,4,3,2,0,0,250.0,train,3,H+
1216.08185768,1,1000,0,1,5,1,4,3,2,0,0,250.0,train,1,H+
1231.9560051,4,1000,3,1,5,1,4,3,2,0,0,250.0,train,4,H+
800.218105316,4,1000,3,1,5,1,4,3,2,0,0,250.0,train,4,H+
592.60892868,4,1000,3,1,5,1,4,3,2,0,0,250.0,train,4,H+
816.573858261,0,1000,4,1,5,1,4,3,2,0,0,250.0,train,0,H+
608.269929886,1,1000,0,1,5,1,4,3,2,0,0,250.0,train,1,H+
623.991012573,4,1000,3,1,5,1,4,3,2,0,0,250.0,train,4,H+
591.80188179,1,1000,0,1,5,1,4,3,2,0,0,250.0,train,1,H+
608.019113541,5,1000,1,1,5,1,4,3,2,0,0,250.0,train,5,H+
608.165025711,3,1000,2,1,5,1,4,3,2,0,0,250.0,train,3,H+
1295.6931591,2,1000,5,1,5,1,4,3,2,0,0,250.0,train,2,H+
992.265939713,4,1000,3,1,5,1,4,3,2,0,0,250.0,train,4,H+
784.110784531,0,1000,4,1,5,1,4,3,2,0,0,250.0,train,0,H+
1391.47186279,4,1000,3,1,5,1,4,3,2,0,0,250.0,train,4,H+
863.98100853,1,1000,0,0,5,1,4,3,2,0,0,250.0,train,2,H+
752.01010704,2,1000,5,0,5,1,4,3,2,0,0,250.0,train,1,H+
1167.81616211,2,1000,5,1,5,1,4,3,2,0,0,250.0,train,2,H+
688.221931458,1,1000,0,1,5,1,4,3,2,0,0,250.0,train,1,H+
1391.88504219,2,1000,5,1,5,1,4,3,2,0,0,250.0,train,2,H+
687.651872635,1,1000,0,1,5,1,4,3,2,0,0,250.0,train,1,H+
1199.88918304,2,1000,5,1,5,1,4,3,2,0,0,250.0,train,2,H+
703.973770142,4,1000,3,0,5,1,4,3,2,0,0,250.0,train,5,H+
1951.87497139,1,1000,0,1,5,1,4,3,2,0,0,250.0,train,1,H+
864.120960236,5,1000,1,1,5,1,4,3,2,0,0,250.0,train,5,H+
736.232042313,5,1000,1,1,5,1,4,3,2,0,0,250.0,train,5,H+
576.12490654,5,1000,1,1,5,1,4,3,2,0,0,250.0,train,5,H+
1487.85305023,1,1000,0,1,5,1,4,3,2,0,0,250.0,train,1,H+
688.622951508,0,1000,4,1,5,1,4,3,2,0,0,250.0,train,0,H+
800.200939178,3,1000,2,1,5,1,4,3,2,0,0,250.0,train,3,H+
735.838890076,4,1000,3,1,5,1,4,3,2,0,0,250.0,train,4,H+
992.313146591,0,1000,4,1,5,1,4,3,2,0,0,250.0,train,0,H+
912.015914917,5,1000,1,1,5,1,4,3,2,0,0,250.0,train,5,H+
623.337030411,5,1000,1,1,5,1,4,3,2,0,0,250.0,train,5,H+
623.755931854,3,1000,2,1,5,1,4,3,2,0,0,250.0,train,3,H+
704.102039337,0,1000,4,1,5,1,4,3,2,0,0,250.0,train,0,H+
656.105995178,0,1000,4,1,5,1,4,3,2,0,0,250.0,train,0,H+
671.947002411,4,1000,3,1,5,1,4,3,2,0,0,250.0,train,4,H+
736.091852188,1,1000,0,1,5,1,4,3,2,0,0,250.0,train,1,H+
736.270904541,0,1000,4,1,5,1,4,3,2,0,0,250.0,train,0,H+
928.229808807,3,1000,2,1,5,1,4,3,2,0,0,250.0,train,3,H+
704.013824463,1,1000,0,1,5,1,4,3,2,0,0,250.0,train,1,H+
879.580020905,4,1000,3,1,5,1,4,3,2,0,0,250.0,train,4,H+
880.609989166,1,1000,0,1,5,1,4,3,2,0,0,250.0,train,1,H+
688.052892685,3,1000,2,1,5,1,4,3,2,0,0,250.0,train,3,H+
847.675085068,4,1000,3,1,5,1,4,3,2,0,0,250.0,train,4,H+
687.992095947,5,1000,1,1,5,1,4,3,2,0,0,250.0,train,5,H+
863.936901093,3,1000,2,1,5,1,4,3,2,0,0,250.0,train,3,H+
848.239898682,4,1000,3,1,5,1,4,3,2,0,0,250.0,train,4,H+
1584.01799202,2,1000,5,1,5,1,4,3,2,0,0,250.0,train,2,H+
895.674943924,3,1000,2,1,5,1,4,3,2,0,0,250.0,train,3,H+
832.007169724,0,1000,4,1,5,1,4,3,2,0,0,250.0,train,0,H+
1887.72201538,4,1000,3,1,5,1,4,3,2,0,0,250.0,train,4,H+
736.033916473,0,1000,4,1,5,1,4,3,2,0,0,250.0,train,0,H+
640.097141266,2,1000,5,1,5,1,4,3,2,0,0,250.0,train,2,H+
704.17881012,3,1000,2,1,5,1,4,3,2,0,0,250.0,train,3,H+
1359.89189148,2,1000,5,1,5,1,4,3,2,0,0,250.0,train,2,H+
848.153114319,1,1000,0,1,5,1,4,3,2,0,0,250.0,train,1,H+
1072.16095924,4,1000,3,1,5,1,4,3,2,0,0,250.0,train,4,H+
608.206987381,4,1000,3,1,5,1,4,3,2,0,0,250.0,train,4,H+
783.884048462,1,1000,0,1,5,1,4,3,2,0,0,250.0,train,1,H+
656.014919281,1,1000,0,1,5,1,4,3,2,0,0,250.0,train,1,H+
735.512971878,2,1000,5,0,5,1,4,3,2,0,0,250.0,train,1,H+
1327.64601707,1,1000,0,1,5,1,4,3,2,0,0,250.0,train,1,H+
784.178972244,4,1000,3,1,5,1,4,3,2,0,0,250.0,train,4,H+
656.371831894,5,1000,1,1,5,1,4,3,2,0,0,250.0,train,5,H+
704.147100449,0,1000,4,1,5,1,4,3,2,0,0,250.0,train,0,H+
591.922044754,5,1000,1,1,5,1,4,3,2,0,0,250.0,train,5,H+
687.890052795,4,1000,3,0,5,1,4,3,2,0,0,250.0,train,5,H+
735.949039459,5,1000,1,1,5,1,4,3,2,0,0,250.0,train,5,H+
704.009056091,3,1000,2,1,5,1,4,3,2,0,0,250.0,train,3,H+
752.090930939,5,1000,1,1,5,1,4,3,2,0,0,250.0,train,5,H+
1616.04905128,2,1000,5,1,5,1,4,3,2,0,0,250.0,train,2,H+
640.092134476,3,1000,2,1,5,1,4,3,2,0,0,250.0,train,3,H+
800.323963165,0,1000,4,1,5,1,4,3,2,0,0,250.0,train,0,H+
1135.34593582,4,1000,3,1,5,1,4,3,2,0,0,250.0,train,4,H+
735.821008682,0,1000,4,1,5,1,4,3,2,0,0,250.0,train,0,H+
639.757871628,5,1000,1,1,5,1,4,3,2,0,0,250.0,train,5,H+
703.692913055,3,1000,2,1,5,1,4,3,2,0,0,250.0,train,3,H+
800.608873367,3,1000,2,1,5,1,4,3,2,0,0,250.0,train,3,H+
1104.02297974,2,1000,5,1,5,1,4,3,2,0,0,250.0,train,2,H+
880.089998245,2,1000,5,1,5,1,4,3,2,0,0,250.0,train,2,H+
639.863014221,3,1000,2,1,5,1,4,3,2,0,0,250.0,train,3,H+
799.781084061,4,1000,3,1,5,1,4,3,2,0,0,250.0,train,4,H+
1407.71603584,2,1000,5,1,5,1,4,3,2,0,0,250.0,train,2,H+
735.897779465,1,1000,0,1,5,1,4,3,2,0,0,250.0,train,1,H+
576.611995697,4,1000,3,1,5,1,4,3,2,0,0,250.0,train,4,H+
784.218072891,3,1000,2,0,5,1,4,3,2,0,0,250.0,train,5,H+
911.643028259,4,1000,3,1,5,1,4,3,2,0,0,250.0,train,4,H+
1216.1450386,1,1000,0,1,5,1,4,3,2,0,0,250.0,train,1,H+
752.155065536,5,1000,1,1,5,1,4,3,2,0,0,250.0,train,5,H+
975.973129272,2,1000,5,1,5,1,4,3,2,0,0,250.0,train,2,H+
799.888134003,4,1000,3,1,5,1,4,3,2,0,0,250.0,train,4,H+
975.805997849,0,1000,4,1,5,1,4,3,2,0,0,250.0,train,0,H+
895.72095871,2,1000,5,1,5,1,4,3,2,0,0,250.0,train,2,H+
1024.07217026,0,1000,4,1,5,1,4,3,2,0,0,250.0,train,0,H+
624.166965485,0,1000,4,1,5,1,4,3,2,0,0,250.0,train,0,H+
1071.57206535,1,1000,0,1,5,1,4,3,2,0,0,250.0,train,1,H+
752.21991539,3,1000,2,1,5,1,4,3,2,0,0,250.0,train,3,H+
1728.12509537,1,1000,0,1,5,1,4,3,2,0,0,250.0,train,1,H+
704.180002213,5,1000,1,1,5,1,4,3,2,0,0,250.0,train,5,H+
671.960115433,5,1000,1,1,5,1,4,3,2,0,0,250.0,train,5,H+
527.693986893,5,1000,1,1,5,1,4,3,2,0,0,250.0,train,5,H+
655.596017838,0,1000,4,1,5,1,4,3,2,0,0,250.0,train,0,H+
1103.73616219,4,1000,3,1,5,1,4,3,2,0,0,250.0,train,4,H+
784.093141556,1,1000,0,1,5,1,4,3,2,0,0,250.0,train,1,H+
768.271923065,0,1000,4,1,5,1,4,3,2,0,0,250.0,train,0,H+
1023.97489548,2,1000,5,1,5,1,4,3,2,0,0,250.0,train,2,H+
672.338962555,4,1000,3,1,5,1,4,3,2,0,0,250.0,train,4,H+
783.621072769,0,1000,4,1,5,1,4,3,2,0,0,250.0,train,0,H+
816.606998444,0,1000,4,1,5,1,4,3,2,0,0,250.0,train,0,H+
767.971038818,3,1000,2,1,5,1,4,3,2,0,0,250.0,train,3,H+
623.261928558,0,1000,4,1,5,1,4,3,2,0,0,250.0,train,0,H+
576.001167297,3,1000,2,1,5,1,4,3,2,0,0,250.0,train,3,H+
528.075933456,2,1000,5,1,5,1,4,3,2,0,0,250.0,train,2,H+
624.115943909,5,1000,1,1,5,1,4,3,2,0,0,250.0,train,5,H+
1152.5990963,1,1000,0,1,5,1,4,3,2,0,0,250.0,train,1,H+
832.237005234,4,1000,3,1,5,1,4,3,2,0,0,250.0,train,4,H+
624.314069748,4,1000,3,1,5,1,4,3,2,0,0,250.0,train,4,H+
591.778993607,5,1000,1,1,5,1,4,3,2,0,0,250.0,train,5,H+
1263.66090775,0,1000,4,1,5,1,4,3,2,0,0,250.0,train,0,H+
640.091896057,5,1000,1,1,5,1,4,3,2,0,0,250.0,train,5,H+
3855.61990738,5,1000,1,1,5,1,4,3,2,0,0,250.0,test,5,H+
640.141963959,4,1000,3,1,5,1,4,3,2,0,0,250.0,test,4,H+
640.25592804,4,1000,3,1,5,1,4,3,2,0,0,250.0,test,4,H+
703.598022461,3,1000,2,1,5,1,4,3,2,0,0,250.0,test,3,H+
832.571983337,1,1000,0,0,5,1,4,3,2,0,0,250.0,test,0,H+
736.093044281,5,1000,1,1,5,1,4,3,2,0,0,250.0,test,5,H+
736.299037933,3,1000,2,1,5,1,4,3,2,0,0,250.0,test,3,H+
704.309940338,5,1000,1,1,5,1,4,3,2,0,0,250.0,test,5,H+
1168.03312302,1,1000,0,0,5,1,4,3,2,0,0,250.0,test,0,H+
1056.0541153,1,1000,0,1,5,1,4,3,2,0,0,250.0,test,1,H+
944.221973419,2,1000,5,1,5,1,4,3,2,0,0,250.0,test,2,H+
719.681024551,3,1000,2,1,5,1,4,3,2,0,0,250.0,test,3,H+
687.600851059,2,1000,5,1,5,1,4,3,2,0,0,250.0,test,2,H+
639.636039734,3,1000,2,1,5,1,4,3,2,0,0,250.0,test,3,H+
464.123010635,1,1000,0,1,5,1,4,3,2,0,0,250.0,test,1,H+
624.150037766,0,1000,4,1,5,1,4,3,2,0,0,250.0,test,0,H+
687.679052353,5,1000,1,1,5,1,4,3,2,0,0,250.0,test,5,H+
624.18794632,3,1000,2,1,5,1,4,3,2,0,0,250.0,test,3,H+
576.264858246,5,1000,1,1,5,1,4,3,2,0,0,250.0,test,5,H+
687.943935394,4,1000,3,1,5,1,4,3,2,0,0,250.0,test,4,H+
1456.04586601,2,1000,5,0,5,1,4,3,2,0,0,250.0,test,1,H+
1024.11389351,2,1000,5,1,5,1,4,3,2,0,0,250.0,test,2,H+
656.252145767,4,1000,3,1,5,1,4,3,2,0,0,250.0,test,4,H+
687.839984894,1,1000,0,1,5,1,4,3,2,0,0,250.0,test,1,H+
720.269918442,3,1000,2,1,5,1,4,3,2,0,0,250.0,test,3,H+
672.189235687,1,1000,0,1,5,1,4,3,2,0,0,250.0,test,1,H+
895.843982697,1,1000,0,1,5,1,4,3,2,0,0,250.0,test,1,H+
608.032941818,5,1000,1,1,5,1,4,3,2,0,0,250.0,test,5,H+
880.16295433,0,1000,4,1,5,1,4,3,2,0,0,250.0,test,0,H+
560.169935226,1,1000,0,1,5,1,4,3,2,0,0,250.0,test,1,H+
656.645059586,1,1000,0,1,5,1,4,3,2,0,0,250.0,test,1,H+
720.6158638,0,1000,4,1,5,1,4,3,2,0,0,250.0,test,0,H+
800.590991974,4,1000,3,1,5,1,4,3,2,0,0,250.0,test,4,H+
592.576980591,4,1000,3,1,5,1,4,3,2,0,0,250.0,test,4,H+
623.740911484,0,1000,4,1,5,1,4,3,2,0,0,250.0,test,0,H+
960.601091385,2,1000,5,0,5,1,4,3,2,0,0,250.0,test,1,H+
768.662929535,0,1000,4,1,5,1,4,3,2,0,0,250.0,test,0,H+
656.647920609,0,1000,4,1,5,1,4,3,2,0,0,250.0,test,0,H+
799.80802536,4,1000,3,1,5,1,4,3,2,0,0,250.0,test,4,H+
672.367811203,5,1000,1,1,5,1,4,3,2,0,0,250.0,test,5,H+
639.867067337,0,1000,4,1,5,1,4,3,2,0,0,250.0,test,0,H+
640.168905258,0,1000,4,1,5,1,4,3,2,0,0,250.0,test,0,H+
2111.70506477,2,1000,5,1,5,1,4,3,2,0,0,250.0,test,2,H+
768.190860748,4,1000,3,1,5,1,4,3,2,0,0,250.0,test,4,H+
736.186027527,1,1000,0,1,5,1,4,3,2,0,0,250.0,test,1,H+
1631.91485405,2,1000,5,1,5,1,4,3,2,0,0,250.0,test,2,H+
704.315900803,3,1000,2,1,5,1,4,3,2,0,0,250.0,test,3,H+
624.266862869,0,1000,4,1,5,1,4,3,2,0,0,250.0,test,0,H+
655.611991882,0,1000,4,1,5,1,4,3,2,0,0,250.0,test,0,H+
1087.88490295,2,1000,5,1,5,1,4,3,2,0,0,250.0,test,2,H+
607.748031616,1,1000,0,1,5,1,4,3,2,0,0,250.0,test,1,H+
623.696088791,0,1000,4,1,5,1,4,3,2,0,0,250.0,test,0,H+
767.793178558,5,1000,1,1,5,1,4,3,2,0,0,250.0,test,5,H+
687.805175781,1,1000,0,1,5,1,4,3,2,0,0,250.0,test,1,H+
560.248851776,5,1000,1,1,5,1,4,3,2,0,0,250.0,test,5,H+
1855.96394539,2,1000,5,1,5,1,4,3,2,0,0,250.0,test,2,H+
544.120788574,2,1000,5,1,5,1,4,3,2,0,0,250.0,test,2,H+
1072.26681709,4,1000,3,1,5,1,4,3,2,0,0,250.0,test,4,H+
592.144012451,3,1000,2,1,5,1,4,3,2,0,0,250.0,test,3,H+
720.20316124,4,1000,3,1,5,1,4,3,2,0,0,250.0,test,4,H+
928.110122681,3,1000,2,1,5,1,4,3,2,0,0,250.0,test,3,H+
623.773097992,0,1000,4,1,5,1,4,3,2,0,0,250.0,test,0,H+
656.623125076,5,1000,1,1,5,1,4,3,2,0,0,250.0,test,5,H+
688.595056534,4,1000,3,1,5,1,4,3,2,0,0,250.0,test,4,H+
960.625171661,3,1000,2,1,5,1,4,3,2,0,0,250.0,test,3,H+
592.637062073,3,1000,2,1,5,1,4,3,2,0,0,250.0,test,3,H+
607.949018478,3,1000,2,1,5,1,4,3,2,0,0,250.0,test,3,H+
608.906984329,5,1000,1,1,5,1,4,3,2,0,0,250.0,test,5,H+
768.665075302,1,1000,0,1,5,1,4,3,2,0,0,250.0,test,1,H+
688.143014908,0,1000,4,1,5,1,4,3,2,0,0,250.0,test,0,H+
912.672042847,2,1000,5,1,5,1,4,3,2,0,0,250.0,test,2,H+
575.98900795,0,1000,4,1,5,1,4,3,2,0,0,250.0,test,0,H+
672.278881073,3,1000,2,1,5,1,4,3,2,0,0,250.0,test,3,H+
1040.184021,1,1000,0,1,5,1,4,3,2,0,0,250.0,test,1,H+
608.667135239,3,1000,2,1,5,1,4,3,2,0,0,250.0,test,3,H+
576.049089432,0,1000,4,1,5,1,4,3,2,0,0,250.0,test,0,H+
1007.47895241,1,1000,0,1,5,1,4,3,2,0,0,250.0,test,1,H+
719.789028168,5,1000,1,1,5,1,4,3,2,0,0,250.0,test,5,H+
623.941898346,3,1000,2,1,5,1,4,3,2,0,0,250.0,test,3,H+
1231.57215118,4,1000,3,1,5,1,4,3,2,0,0,250.0,test,4,H+
688.217163086,2,1000,5,1,5,1,4,3,2,0,0,250.0,test,2,H+
608.303070068,5,1000,1,1,5,1,4,3,2,0,0,250.0,test,5,H+
640.160083771,0,1000,4,1,5,1,4,3,2,0,0,250.0,test,0,H+
704.251050949,3,1000,2,1,5,1,4,3,2,0,0,250.0,test,3,H+
576.570034027,3,1000,2,1,5,1,4,3,2,0,0,250.0,test,3,H+
912.644863129,0,1000,4,0,5,1,4,3,2,0,0,250.0,test,3,H+
783.710956573,1,1000,0,1,5,1,4,3,2,0,0,250.0,test,1,H+
639.832019806,0,1000,4,1,5,1,4,3,2,0,0,250.0,test,0,H+
559.808015823,0,1000,4,1,5,1,4,3,2,0,0,250.0,test,0,H+
751.588106155,1,1000,0,1,5,1,4,3,2,0,0,250.0,test,1,H+
639.77599144,1,1000,0,1,5,1,4,3,2,0,0,250.0,test,1,H+
752.168893814,0,1000,4,1,5,1,4,3,2,0,0,250.0,test,0,H+
736.167192459,4,1000,3,0,5,1,4,3,2,0,0,250.0,test,5,H+
640.630960464,4,1000,3,1,5,1,4,3,2,0,0,250.0,test,4,H+
831.834077835,1,1000,0,1,5,1,4,3,2,0,0,250.0,test,1,H+
1167.90795326,0,1000,4,1,5,1,4,3,2,0,0,250.0,test,0,H+
1167.49405861,1,1000,0,1,5,1,4,3,2,0,0,250.0,test,1,H+
720.333099365,3,1000,2,1,5,1,4,3,2,0,0,250.0,test,3,H+
432.152032852,3,1000,2,1,5,1,4,3,2,0,0,250.0,test,3,H+
544.118881226,4,1000,3,1,5,1,4,3,2,0,0,250.0,test,4,H+
623.533964157,5,1000,1,1,5,1,4,3,2,0,0,250.0,test,5,H+
688.755989075,0,1000,4,1,5,1,4,3,2,0,0,250.0,test,0,H+
2399.7130394,0,1000,4,1,5,1,4,3,2,0,0,250.0,test,0,H+
622.709035873,3,1000,2,1,5,1,4,3,2,0,0,250.0,test,3,H+
607.558965683,5,1000,1,1,5,1,4,3,2,0,0,250.0,test,5,H+
1535.41398048,2,1000,5,1,5,1,4,3,2,0,0,250.0,test,2,H+
703.740119934,1,1000,0,1,5,1,4,3,2,0,0,250.0,test,1,H+
543.809175491,5,1000,1,1,5,1,4,3,2,0,0,250.0,test,5,H+
927.396059036,4,1000,3,1,5,1,4,3,2,0,0,250.0,test,4,H+
976.082086563,1,1000,0,1,5,1,4,3,2,0,0,250.0,test,1,H+
624.237060547,3,1000,2,1,5,1,4,3,2,0,0,250.0,test,3,H+
735.470056534,4,1000,3,1,5,1,4,3,2,0,0,250.0,test,4,H+
1439.14413452,2,1000,5,1,5,1,4,3,2,0,0,250.0,test,2,H+
592.162132263,5,1000,1,1,5,1,4,3,2,0,0,250.0,test,5,H+
1568.19105148,2,1000,5,1,5,1,4,3,2,0,0,250.0,test,2,H+
928.240060806,0,1000,4,1,5,1,4,3,2,0,0,250.0,test,0,H+
624.325990677,3,1000,2,1,5,1,4,3,2,0,0,250.0,test,3,H+
656.169176102,0,1000,4,1,5,1,4,3,2,0,0,250.0,test,0,H+
512.25399971,5,1000,1,1,5,1,4,3,2,0,0,250.0,test,5,H+
928.05314064,2,1000,5,1,5,1,4,3,2,0,0,250.0,test,2,H+
752.301931381,1,1000,0,1,5,1,4,3,2,0,0,250.0,test,1,H+
640.277862549,0,1000,4,1,5,1,4,3,2,0,0,250.0,test,0,H+
656.314134598,1,1000,0,1,5,1,4,3,2,0,0,250.0,test,1,H+
464.637041092,3,1000,2,1,5,1,4,3,2,0,0,250.0,test,3,H+
1359.4930172,4,1000,3,1,5,1,4,3,2,0,0,250.0,test,4,H+
543.726921082,4,1000,3,1,5,1,4,3,2,0,0,250.0,test,4,H+
544.019937515,4,1000,3,1,5,1,4,3,2,0,0,250.0,test,4,H+
527.846097946,1,1000,0,1,5,1,4,3,2,0,0,250.0,test,1,H+
432.208061218,2,1000,5,1,5,1,4,3,2,0,0,250.0,test,2,H+
1120.19586563,0,1000,4,1,5,1,4,3,2,0,0,250.0,test,0,H+
592.329978943,4,1000,3,1,5,1,4,3,2,0,0,250.0,test,4,H+
528.249979019,0,1000,4,0,5,1,4,3,2,0,0,250.0,test,1,H+
576.115131378,5,1000,1,1,5,1,4,3,2,0,0,250.0,test,5,H+
800.318956375,2,1000,5,0,5,1,4,3,2,0,0,250.0,test,1,H+
1807.751894,1,1000,0,1,5,1,4,3,2,0,0,250.0,test,1,H+
1023.84614944,5,1000,1,1,5,1,4,3,2,0,0,250.0,test,5,H+
2495.95594406,0,1000,4,1,5,1,4,3,2,0,0,250.0,test,0,H+
4319.49520111,2,1000,5,1,5,1,4,3,2,0,0,250.0,test,2,H+
656.188964844,3,1000,2,1,5,1,4,3,2,0,0,250.0,test,3,H+
975.711107254,1,1000,0,1,5,1,4,3,2,0,0,250.0,test,1,H+
848.14620018,2,1000,5,1,5,1,4,3,2,0,0,250.0,test,2,H+
560.214996338,2,1000,5,1,5,1,4,3,2,0,0,250.0,test,2,H+
1119.87495422,3,1000,2,1,5,1,4,3,2,0,0,250.0,test,3,H+
688.596963882,0,1000,4,1,5,1,4,3,2,0,0,250.0,test,0,H+
847.855806351,1,1000,0,1,5,1,4,3,2,0,0,250.0,test,1,H+
1328.18198204,0,1000,4,1,5,1,4,3,2,0,0,250.0,test,0,H+
1712.13102341,2,1000,5,1,5,1,4,3,2,0,0,250.0,test,2,H+
1263.95702362,4,1000,3,1,5,1,4,3,2,0,0,250.0,test,4,H+
528.702974319,5,1000,1,1,5,1,4,3,2,0,0,250.0,test,5,H+
640.146970749,0,1000,4,1,5,1,4,3,2,0,0,250.0,test,0,H+
1264.03307915,4,1000,3,1,5,1,4,3,2,0,0,250.0,test,4,H+
576.085090637,1,1000,0,1,5,1,4,3,2,0,0,250.0,test,1,H+
896.31319046,4,1000,3,1,5,1,4,3,2,0,0,250.0,test,4,H+
608.122110367,5,1000,1,1,5,1,4,3,2,0,0,250.0,test,5,H+
1904.08396721,2,1000,5,1,5,1,4,3,2,0,0,250.0,test,2,H+
656.285047531,5,1000,1,1,5,1,4,3,2,0,0,250.0,test,5,H+
2127.54487991,2,1000,5,1,5,1,4,3,2,0,0,250.0,test,2,H+
767.966032028,4,1000,3,1,5,1,4,3,2,0,0,250.0,test,4,H+
735.919952393,0,1000,4,1,5,1,4,3,2,0,0,250.0,test,0,H+
703.966140747,0,1000,4,1,5,1,4,3,2,0,0,250.0,test,0,H+
704.655170441,3,1000,2,1,5,1,4,3,2,0,0,250.0,test,3,H+
800.153017044,4,1000,3,1,5,1,4,3,2,0,0,250.0,test,4,H+
511.656999588,4,1000,3,1,5,1,4,3,2,0,0,250.0,test,4,H+
671.725034714,5,1000,1,1,5,1,4,3,2,0,0,250.0,test,5,H+
688.154935837,1,1000,0,1,5,1,4,3,2,0,0,250.0,test,1,H+
624.214172363,4,1000,3,1,5,1,4,3,2,0,0,250.0,test,4,H+
495.648860931,4,1000,3,1,5,1,4,3,2,0,0,250.0,test,4,H+
656.537055969,0,1000,4,1,5,1,4,3,2,0,0,250.0,test,0,H+
687.621831894,4,1000,3,1,5,1,4,3,2,0,0,250.0,test,4,H+
720.551013947,4,1000,3,1,5,1,4,3,2,0,0,250.0,test,4,H+
623.663902283,0,1000,4,1,5,1,4,3,2,0,0,250.0,test,0,H+
1200.24085045,1,1000,0,1,5,1,4,3,2,0,0,250.0,test,1,H+
4015.74087143,2,1000,5,1,5,1,4,3,2,0,0,250.0,test,2,H+
640.038013458,4,1000,3,1,5,1,4,3,2,0,0,250.0,test,4,H+
640.116930008,4,1000,3,1,5,1,4,3,2,0,0,250.0,test,4,H+
512.230873108,2,1000,5,0,5,1,4,3,2,0,0,250.0,test,4,H+
784.114837646,4,1000,3,1,5,1,4,3,2,0,0,250.0,test,4,H+
704.235076904,0,1000,4,1,5,1,4,3,2,0,0,250.0,test,0,H+
687.94798851,3,1000,2,1,5,1,4,3,2,0,0,250.0,test,3,H+
687.949895859,2,1000,5,1,5,1,4,3,2,0,0,250.0,test,2,H+
1215.62695503,5,1000,1,1,5,1,4,3,2,0,0,250.0,test,5,H+
959.919929504,2,1000,5,1,5,1,4,3,2,0,0,250.0,test,2,H+
848.212003708,1,1000,0,1,5,1,4,3,2,0,0,250.0,test,1,H+
688.272953033,5,1000,1,1,5,1,4,3,2,0,0,250.0,test,5,H+
703.82809639,1,1000,0,1,5,1,4,3,2,0,0,250.0,test,1,H+
607.419967651,1,1000,0,1,5,1,4,3,2,0,0,250.0,test,1,H+
688.194990158,4,1000,3,1,5,1,4,3,2,0,0,250.0,test,4,H+
640.176057816,1,1000,0,1,5,1,4,3,2,0,0,250.0,test,1,H+
687.484025955,5,1000,1,1,5,1,4,3,2,0,0,250.0,test,5,H+
1823.60696793,2,1000,5,1,5,1,4,3,2,0,0,250.0,test,2,H+
559.958934784,5,1000,1,1,5,1,4,3,2,0,0,250.0,test,5,H+
576.653003693,3,1000,2,1,5,1,4,3,2,0,0,250.0,test,3,H+
608.652114868,5,1000,1,1,5,1,4,3,2,0,0,250.0,test,5,H+
3248.37183952,5,1000,1,1,5,1,4,3,2,0,0,250.0,test,5,H+
704.695940018,5,1000,1,1,5,1,4,3,2,0,0,250.0,test,5,H+
607.808828354,3,1000,2,1,5,1,4,3,2,0,0,250.0,test,3,H+
607.770204544,5,1000,1,1,5,1,4,3,2,0,0,250.0,test,5,H+
655.653953552,1,1000,0,1,5,1,4,3,2,0,0,250.0,test,1,H+
576.100826263,5,1000,1,1,5,1,4,3,2,0,0,250.0,test,5,H+
1168.14088821,4,1000,3,1,5,1,4,3,2,0,0,250.0,test,4,H+
688.359022141,0,1000,4,1,5,1,4,3,2,0,0,250.0,test,0,H+
720.308065414,1,1000,0,1,5,1,4,3,2,0,0,250.0,test,1,H+
703.87005806,3,1000,2,1,5,1,4,3,2,0,0,250.0,test,3,H+
672.188043594,0,1000,4,1,5,1,4,3,2,0,0,250.0,test,0,H+
672.136068344,2,1000,5,0,5,1,4,3,2,0,0,250.0,test,1,H+
783.632040024,2,1000,5,1,5,1,4,3,2,0,0,250.0,test,2,H+
512.08281517,2,1000,5,1,5,1,4,3,2,0,0,250.0,test,2,H+
576.513051987,3,1000,2,1,5,1,4,3,2,0,0,250.0,test,3,H+
991.870880127,4,1000,3,1,5,1,4,3,2,0,0,250.0,test,4,H+
592.127084732,5,1000,1,1,5,1,4,3,2,0,0,250.0,test,5,H+
736.114025116,1,1000,0,1,5,1,4,3,2,0,0,250.0,test,1,H+
1520.51091194,2,1000,5,1,5,1,4,3,2,0,0,250.0,test,2,H+
543.852806091,5,1000,1,1,5,1,4,3,2,0,0,250.0,test,5,H+
543.856143951,3,1000,2,1,5,1,4,3,2,0,0,250.0,test,3,H+
591.974973679,4,1000,3,1,5,1,4,3,2,0,0,250.0,test,4,H+
607.805013657,0,1000,4,1,5,1,4,3,2,0,0,250.0,test,0,H+
672.121047974,1,1000,0,1,5,1,4,3,2,0,0,250.0,test,1,H+
1103.87802124,4,1000,3,1,5,1,4,3,2,0,0,250.0,test,4,H+
832.175970078,0,1000,4,1,5,1,4,3,2,0,0,250.0,test,0,H+
608.209848404,0,1000,4,1,5,1,4,3,2,0,0,250.0,test,0,H+
751.549959183,2,1000,5,1,5,1,4,3,2,0,0,250.0,test,2,H+
655.742883682,4,1000,3,1,5,1,4,3,2,0,0,250.0,test,4,H+
703.778982162,5,1000,1,1,5,1,4,3,2,0,0,250.0,test,5,H+
479.215860367,3,1000,2,1,5,1,4,3,2,0,0,250.0,test,3,H+
672.543048859,1,1000,0,1,5,1,4,3,2,0,0,250.0,test,1,H+
991.809129715,5,1000,1,1,5,1,4,3,2,0,0,250.0,test,5,H+
671.813011169,2,1000,5,1,5,1,4,3,2,0,0,250.0,test,2,H+
672.369003296,5,1000,1,1,5,1,4,3,2,0,0,250.0,test,5,H+
671.684026718,4,1000,3,1,5,1,4,3,2,0,0,250.0,test,4,H+
767.469882965,5,1000,1,1,5,1,4,3,2,0,0,250.0,test,5,H+
656.220912933,4,1000,3,1,5,1,4,3,2,0,0,250.0,test,4,H+
720.08395195,1,1000,0,1,5,1,4,3,2,0,0,250.0,test,1,H+
640.657901764,0,1000,4,1,5,1,4,3,2,0,0,250.0,test,0,H+
416.584968567,2,1000,5,1,5,1,4,3,2,0,0,250.0,test,2,H+
703.843832016,1,1000,0,0,5,1,4,3,2,0,0,250.0,test,2,H+
1215.88802338,4,1000,3,1,5,1,4,3,2,0,0,250.0,test,4,H+
591.938972473,1,1000,0,1,5,1,4,3,2,0,0,250.0,test,1,H+
687.712907791,4,1000,3,1,5,1,4,3,2,0,0,250.0,test,4,H+
1119.93908882,0,1000,4,1,5,1,4,3,2,0,0,250.0,test,0,H+
560.653924942,5,1000,1,1,5,1,4,3,2,0,0,250.0,test,5,H+
768.200874329,0,1000,4,1,5,1,4,3,2,0,0,250.0,test,0,H+
576.736927032,3,1000,2,1,5,1,4,3,2,0,0,250.0,test,3,H+
575.824975967,5,1000,1,1,5,1,4,3,2,0,0,250.0,test,5,H+
575.730085373,3,1000,2,1,5,1,4,3,2,0,0,250.0,test,3,H+
656.197786331,5,1000,1,1,5,1,4,3,2,0,0,250.0,test,5,H+
624.266862869,0,1000,4,1,5,1,4,3,2,0,0,250.0,test,0,H+
784.142971039,2,1000,5,1,5,1,4,3,2,0,0,250.0,test,2,H+
544.185876846,5,1000,1,1,5,1,4,3,2,0,0,250.0,test,5,H+
576.283931732,5,1000,1,1,5,1,4,3,2,0,0,250.0,test,5,H+
720.175027847,1,1000,0,1,5,1,4,3,2,0,0,250.0,test,1,H+
