RT,correct_response,ms-prestimblank,curstim,correct,SRmap_1,SRmap_0,SRmap_3,SRmap_2,SRmap_5,SRmap_4,ms-precue,ntrials,type,response,condition
3310.62698364,4,600,3,1,3,5,4,0,1,2,400,250.0,train,4,E-
5198.77099991,0,600,2,1,3,5,4,0,1,2,400,250.0,train,0,E-
1039.18099403,2,600,4,0,3,5,4,0,1,2,400,250.0,train,1,E-
3806.98490143,1,600,5,1,3,5,4,0,1,2,400,250.0,train,1,E-
1039.08014297,4,600,3,1,3,5,4,0,1,2,400,250.0,train,4,E-
447.090148926,3,600,1,1,3,5,4,0,1,2,400,250.0,train,3,E-
1247.02811241,0,600,2,1,3,5,4,0,1,2,400,250.0,train,0,E-
447.228908539,3,600,1,0,3,5,4,0,1,2,400,250.0,train,4,E-
1102.86092758,2,600,4,1,3,5,4,0,1,2,400,250.0,train,2,E-
751.197099686,2,600,4,1,3,5,4,0,1,2,400,250.0,train,2,E-
862.930774689,1,600,5,1,3,5,4,0,1,2,400,250.0,train,1,E-
525.634050369,0,600,2,1,3,5,4,0,1,2,400,250.0,train,0,E-
445.904970169,1,600,5,1,3,5,4,0,1,2,400,250.0,train,1,E-
1212.85605431,3,600,1,1,3,5,4,0,1,2,400,250.0,train,3,E-
478.417158127,5,600,0,1,3,5,4,0,1,2,400,250.0,train,5,E-
446.46692276,0,600,2,1,3,5,4,0,1,2,400,250.0,train,0,E-
575.050115585,5,600,0,1,3,5,4,0,1,2,400,250.0,train,5,E-
366.152048111,4,600,3,1,3,5,4,0,1,2,400,250.0,train,4,E-
270.932197571,3,600,1,1,3,5,4,0,1,2,400,250.0,train,3,E-
734.482049942,3,600,1,1,3,5,4,0,1,2,400,250.0,train,3,E-
494.348049164,1,600,5,1,3,5,4,0,1,2,400,250.0,train,1,E-
383.613109589,1,600,5,1,3,5,4,0,1,2,400,250.0,train,1,E-
206.297159195,1,600,5,1,3,5,4,0,1,2,400,250.0,train,1,E-
206.15696907,0,600,2,1,3,5,4,0,1,2,400,250.0,train,0,E-
126.997947693,1,600,5,1,3,5,4,0,1,2,400,250.0,train,1,E-
478.316068649,5,600,0,1,3,5,4,0,1,2,400,250.0,train,5,E-
190.361022949,0,600,2,1,3,5,4,0,1,2,400,250.0,train,0,E-
110.605955124,3,600,1,0,3,5,4,0,1,2,400,250.0,train,0,E-
270.974874496,1,600,5,1,3,5,4,0,1,2,400,250.0,train,1,E-
447.0038414,3,600,1,1,3,5,4,0,1,2,400,250.0,train,3,E-
206.163167953,4,600,3,0,3,5,4,0,1,2,400,250.0,train,5,E-
206.722974777,5,600,0,1,3,5,4,0,1,2,400,250.0,train,5,E-
255.578994751,5,600,0,1,3,5,4,0,1,2,400,250.0,train,5,E-
303.032875061,1,600,5,1,3,5,4,0,1,2,400,250.0,train,1,E-
383.641958237,5,600,0,1,3,5,4,0,1,2,400,250.0,train,5,E-
303.472995758,3,600,1,1,3,5,4,0,1,2,400,250.0,train,3,E-
126.914978027,5,600,0,1,3,5,4,0,1,2,400,250.0,train,5,E-
446.358919144,3,600,1,1,3,5,4,0,1,2,400,250.0,train,3,E-
238.350152969,3,600,1,1,3,5,4,0,1,2,400,250.0,train,3,E-
318.263053894,2,600,4,0,3,5,4,0,1,2,400,250.0,train,4,E-
351.055145264,0,600,2,1,3,5,4,0,1,2,400,250.0,train,0,E-
735.16201973,4,600,3,1,3,5,4,0,1,2,400,250.0,train,4,E-
398.778915405,1,600,5,1,3,5,4,0,1,2,400,250.0,train,1,E-
206.276893616,4,600,3,1,3,5,4,0,1,2,400,250.0,train,4,E-
382.867097855,0,600,2,1,3,5,4,0,1,2,400,250.0,train,0,E-
350.181818008,4,600,3,1,3,5,4,0,1,2,400,250.0,train,4,E-
526.989936829,2,600,4,1,3,5,4,0,1,2,400,250.0,train,2,E-
286.221027374,1,600,5,1,3,5,4,0,1,2,400,250.0,train,1,E-
414.263010025,4,600,3,1,3,5,4,0,1,2,400,250.0,train,4,E-
462.777137756,2,600,4,1,3,5,4,0,1,2,400,250.0,train,2,E-
174.939155579,1,600,5,1,3,5,4,0,1,2,400,250.0,train,1,E-
110.227108002,1,600,5,1,3,5,4,0,1,2,400,250.0,train,1,E-
350.192070007,2,600,4,1,3,5,4,0,1,2,400,250.0,train,2,E-
366.822957993,0,600,2,1,3,5,4,0,1,2,400,250.0,train,0,E-
318.142175674,2,600,4,1,3,5,4,0,1,2,400,250.0,train,2,E-
430.45091629,5,600,0,1,3,5,4,0,1,2,400,250.0,train,5,E-
446.485042572,2,600,4,1,3,5,4,0,1,2,400,250.0,train,2,E-
335.556983948,4,600,3,1,3,5,4,0,1,2,400,250.0,train,4,E-
303.128004074,1,600,5,1,3,5,4,0,1,2,400,250.0,train,1,E-
398.92911911,1,600,5,1,3,5,4,0,1,2,400,250.0,train,1,E-
127.52199173,1,600,5,1,3,5,4,0,1,2,400,250.0,train,1,E-
509.95516777,4,600,3,1,3,5,4,0,1,2,400,250.0,train,4,E-
126.372814178,1,600,5,1,3,5,4,0,1,2,400,250.0,train,1,E-
255.462884903,3,600,1,0,3,5,4,0,1,2,400,250.0,train,2,E-
239.041805267,1,600,5,1,3,5,4,0,1,2,400,250.0,train,1,E-
318.83597374,5,600,0,1,3,5,4,0,1,2,400,250.0,train,5,E-
319.066047668,1,600,5,1,3,5,4,0,1,2,400,250.0,train,1,E-
478.512048721,4,600,3,1,3,5,4,0,1,2,400,250.0,train,4,E-
302.579879761,2,600,4,1,3,5,4,0,1,2,400,250.0,train,2,E-
270.069122314,4,600,3,1,3,5,4,0,1,2,400,250.0,train,4,E-
446.218967438,2,600,4,1,3,5,4,0,1,2,400,250.0,train,2,E-
382.121086121,0,600,2,1,3,5,4,0,1,2,400,250.0,train,0,E-
558.464050293,1,600,5,1,3,5,4,0,1,2,400,250.0,train,1,E-
511.698961258,4,600,3,1,3,5,4,0,1,2,400,250.0,train,4,E-
318.408966064,5,600,0,1,3,5,4,0,1,2,400,250.0,train,5,E-
734.335899353,3,600,1,1,3,5,4,0,1,2,400,250.0,train,3,E-
398.708105087,2,600,4,1,3,5,4,0,1,2,400,250.0,train,2,E-
158.37097168,1,600,5,1,3,5,4,0,1,2,400,250.0,train,1,E-
126.399993896,0,600,2,1,3,5,4,0,1,2,400,250.0,train,0,E-
495.007991791,5,600,0,1,3,5,4,0,1,2,400,250.0,train,5,E-
223.881006241,4,600,3,1,3,5,4,0,1,2,400,250.0,train,4,E-
479.082107544,2,600,4,1,3,5,4,0,1,2,400,250.0,train,2,E-
271.62694931,5,600,0,1,3,5,4,0,1,2,400,250.0,train,5,E-
270.212888718,2,600,4,1,3,5,4,0,1,2,400,250.0,train,2,E-
431.627035141,4,600,3,1,3,5,4,0,1,2,400,250.0,train,4,E-
511.653900146,4,600,3,1,3,5,4,0,1,2,400,250.0,train,4,E-
414.892911911,0,600,2,1,3,5,4,0,1,2,400,250.0,train,0,E-
862.44392395,3,600,1,1,3,5,4,0,1,2,400,250.0,train,3,E-
383.095026016,2,600,4,1,3,5,4,0,1,2,400,250.0,train,2,E-
526.836872101,4,600,3,1,3,5,4,0,1,2,400,250.0,train,4,E-
511.598825455,3,600,1,1,3,5,4,0,1,2,400,250.0,train,3,E-
222.311973572,2,600,4,1,3,5,4,0,1,2,400,250.0,train,2,E-
222.920894623,3,600,1,1,3,5,4,0,1,2,400,250.0,train,3,E-
574.509143829,3,600,1,1,3,5,4,0,1,2,400,250.0,train,3,E-
543.115139008,2,600,4,1,3,5,4,0,1,2,400,250.0,train,2,E-
446.203947067,4,600,3,1,3,5,4,0,1,2,400,250.0,train,4,E-
222.447872162,2,600,4,1,3,5,4,0,1,2,400,250.0,train,2,E-
206.254959106,0,600,2,1,3,5,4,0,1,2,400,250.0,train,0,E-
302.25110054,3,600,1,1,3,5,4,0,1,2,400,250.0,train,3,E-
173.093080521,5,600,0,1,3,5,4,0,1,2,400,250.0,train,5,E-
190.606832504,0,600,2,1,3,5,4,0,1,2,400,250.0,train,0,E-
878.372907639,3,600,1,1,3,5,4,0,1,2,400,250.0,train,3,E-
287.672042847,3,600,1,1,3,5,4,0,1,2,400,250.0,train,3,E-
175.554990768,5,600,0,1,3,5,4,0,1,2,400,250.0,train,5,E-
863.56306076,3,600,1,1,3,5,4,0,1,2,400,250.0,train,3,E-
351.147174835,4,600,3,1,3,5,4,0,1,2,400,250.0,train,4,E-
590.748071671,1,600,5,1,3,5,4,0,1,2,400,250.0,train,1,E-
238.446950912,2,600,4,1,3,5,4,0,1,2,400,250.0,train,2,E-
301.839113235,4,600,3,1,3,5,4,0,1,2,400,250.0,train,4,E-
286.53883934,3,600,1,1,3,5,4,0,1,2,400,250.0,train,3,E-
318.830966949,2,600,4,1,3,5,4,0,1,2,400,250.0,train,2,E-
335.625886917,2,600,4,1,3,5,4,0,1,2,400,250.0,train,2,E-
719.017982483,3,600,1,1,3,5,4,0,1,2,400,250.0,train,3,E-
159.555912018,5,600,0,1,3,5,4,0,1,2,400,250.0,train,5,E-
223.432064056,5,600,0,1,3,5,4,0,1,2,400,250.0,train,5,E-
607.219934464,5,600,0,1,3,5,4,0,1,2,400,250.0,train,5,E-
222.48005867,1,600,5,1,3,5,4,0,1,2,400,250.0,train,1,E-
255.443811417,0,600,2,1,3,5,4,0,1,2,400,250.0,train,0,E-
126.492977142,3,600,1,1,3,5,4,0,1,2,400,250.0,train,3,E-
207.082033157,0,600,2,1,3,5,4,0,1,2,400,250.0,train,0,E-
319.036960602,2,600,4,1,3,5,4,0,1,2,400,250.0,train,2,E-
79.6179771423,0,600,2,1,3,5,4,0,1,2,400,250.0,train,0,E-
63.6689662933,1,600,5,1,3,5,4,0,1,2,400,250.0,train,1,E-
111.548900604,2,600,4,1,3,5,4,0,1,2,400,250.0,train,2,E-
0.0500679016113,1,600,5,1,3,5,4,0,1,2,400,250.0,train,1,E-
783.565044403,0,600,2,1,3,5,4,0,1,2,400,250.0,train,0,E-
607.586860657,0,600,2,1,3,5,4,0,1,2,400,250.0,train,0,E-
269.8969841,5,600,0,1,3,5,4,0,1,2,400,250.0,train,5,E-
303.591012955,2,600,4,1,3,5,4,0,1,2,400,250.0,train,2,E-
95.675945282,0,600,2,1,3,5,4,0,1,2,400,250.0,train,0,E-
31.848192215,0,600,2,1,3,5,4,0,1,2,400,250.0,train,0,E-
255.640029907,2,600,4,1,3,5,4,0,1,2,400,250.0,train,2,E-
0.0500679016113,0,600,2,1,3,5,4,0,1,2,400,250.0,train,0,E-
15.6571865082,1,600,5,1,3,5,4,0,1,2,400,250.0,train,1,E-
14.8191452026,0,600,2,1,3,5,4,0,1,2,400,250.0,train,0,E-
31.5589904785,0,600,2,1,3,5,4,0,1,2,400,250.0,train,0,E-
111.704111099,2,600,4,1,3,5,4,0,1,2,400,250.0,train,2,E-
143.677949905,5,600,0,1,3,5,4,0,1,2,400,250.0,train,5,E-
223.62613678,0,600,2,1,3,5,4,0,1,2,400,250.0,train,0,E-
79.5478820801,4,600,3,0,3,5,4,0,1,2,400,250.0,train,5,E-
574.980020523,3,600,1,1,3,5,4,0,1,2,400,250.0,train,3,E-
31.5940380096,2,600,4,0,3,5,4,0,1,2,400,250.0,train,1,E-
127.575874329,0,600,2,1,3,5,4,0,1,2,400,250.0,train,0,E-
63.6579990387,0,600,2,1,3,5,4,0,1,2,400,250.0,train,0,E-
79.7049999237,0,600,2,1,3,5,4,0,1,2,400,250.0,train,0,E-
814.785003662,0,600,2,1,3,5,4,0,1,2,400,250.0,train,0,E-
479.671955109,3,600,1,1,3,5,4,0,1,2,400,250.0,train,3,E-
638.931035995,2,600,4,1,3,5,4,0,1,2,400,250.0,train,2,E-
223.015069962,3,600,1,1,3,5,4,0,1,2,400,250.0,train,3,E-
174.32808876,1,600,5,1,3,5,4,0,1,2,400,250.0,train,1,E-
174.9958992,1,600,5,1,3,5,4,0,1,2,400,250.0,train,1,E-
238.098859787,5,600,0,1,3,5,4,0,1,2,400,250.0,train,5,E-
270.653009415,1,600,5,1,3,5,4,0,1,2,400,250.0,train,1,E-
191.617012024,2,600,4,1,3,5,4,0,1,2,400,250.0,train,2,E-
111.310958862,0,600,2,1,3,5,4,0,1,2,400,250.0,train,0,E-
479.081869125,3,600,1,1,3,5,4,0,1,2,400,250.0,train,3,E-
174.824953079,1,600,5,1,3,5,4,0,1,2,400,250.0,train,1,E-
319.607973099,3,600,1,0,3,5,4,0,1,2,400,250.0,train,4,E-
238.929033279,5,600,0,1,3,5,4,0,1,2,400,250.0,train,5,E-
527.508020401,2,600,4,1,3,5,4,0,1,2,400,250.0,train,2,E-
127.69818306,5,600,0,1,3,5,4,0,1,2,400,250.0,train,5,E-
238.307952881,0,600,2,1,3,5,4,0,1,2,400,250.0,train,0,E-
687.125921249,4,600,3,1,3,5,4,0,1,2,400,250.0,train,4,E-
111.738204956,3,600,1,1,3,5,4,0,1,2,400,250.0,train,3,E-
158.376932144,4,600,3,1,3,5,4,0,1,2,400,250.0,train,4,E-
206.305980682,1,600,5,1,3,5,4,0,1,2,400,250.0,train,1,E-
574.280023575,5,600,0,1,3,5,4,0,1,2,400,250.0,train,5,E-
238.281965256,1,600,5,1,3,5,4,0,1,2,400,250.0,train,1,E-
510.021924973,3,600,1,1,3,5,4,0,1,2,400,250.0,train,3,E-
110.780954361,0,600,2,1,3,5,4,0,1,2,400,250.0,train,0,E-
238.244056702,3,600,1,1,3,5,4,0,1,2,400,250.0,train,3,E-
142.446041107,0,600,2,1,3,5,4,0,1,2,400,250.0,train,0,E-
270.526885986,3,600,1,1,3,5,4,0,1,2,400,250.0,train,3,E-
126.317024231,5,600,0,1,3,5,4,0,1,2,400,250.0,train,5,E-
302.346229553,1,600,5,1,3,5,4,0,1,2,400,250.0,train,1,E-
254.070997238,4,600,3,1,3,5,4,0,1,2,400,250.0,train,4,E-
175.453901291,4,600,3,1,3,5,4,0,1,2,400,250.0,train,4,E-
206.325054169,1,600,5,1,3,5,4,0,1,2,400,250.0,train,1,E-
286.520957947,2,600,4,1,3,5,4,0,1,2,400,250.0,train,2,E-
207.054853439,1,600,5,1,3,5,4,0,1,2,400,250.0,train,1,E-
158.826112747,3,600,1,1,3,5,4,0,1,2,400,250.0,train,3,E-
15.7091617584,4,600,3,1,3,5,4,0,1,2,400,250.0,train,4,E-
63.6670589447,1,600,5,1,3,5,4,0,1,2,400,250.0,train,1,E-
271.573066711,3,600,1,1,3,5,4,0,1,2,400,250.0,train,3,E-
239.598035812,2,600,4,1,3,5,4,0,1,2,400,250.0,train,2,E-
127.517938614,4,600,3,1,3,5,4,0,1,2,400,250.0,train,4,E-
110.444068909,0,600,2,1,3,5,4,0,1,2,400,250.0,train,0,E-
543.582201004,3,600,1,1,3,5,4,0,1,2,400,250.0,train,3,E-
78.528881073,0,600,2,1,3,5,4,0,1,2,400,250.0,train,0,E-
63.6670589447,1,600,5,1,3,5,4,0,1,2,400,250.0,train,1,E-
158.746957779,1,600,5,1,3,5,4,0,1,2,400,250.0,train,1,E-
238.508939743,5,600,0,1,3,5,4,0,1,2,400,250.0,train,5,E-
62.4299049377,4,600,3,1,3,5,4,0,1,2,400,250.0,train,4,E-
253.923892975,4,600,3,1,3,5,4,0,1,2,400,250.0,train,4,E-
174.237012863,5,600,0,1,3,5,4,0,1,2,400,250.0,train,5,E-
556.590080261,0,600,2,1,3,5,4,0,1,2,400,250.0,train,0,E-
351.592063904,4,600,3,1,3,5,4,0,1,2,400,250.0,train,4,E-
125.882148743,1,600,5,1,3,5,4,0,1,2,400,250.0,train,1,E-
78.638792038,0,600,2,1,3,5,4,0,1,2,400,250.0,train,0,E-
223.637104034,5,600,0,1,3,5,4,0,1,2,400,250.0,train,5,E-
543.533802032,3,600,1,1,3,5,4,0,1,2,400,250.0,train,3,E-
431.528091431,2,600,4,1,3,5,4,0,1,2,400,250.0,train,2,E-
287.645816803,0,600,2,1,3,5,4,0,1,2,400,250.0,train,0,E-
127.646923065,5,600,0,1,3,5,4,0,1,2,400,250.0,train,5,E-
239.712953568,5,600,0,1,3,5,4,0,1,2,400,250.0,train,5,E-
111.680030823,4,600,3,1,3,5,4,0,1,2,400,250.0,train,4,E-
447.684049606,2,600,4,0,3,5,4,0,1,2,400,250.0,train,3,E-
239.659070969,4,600,3,1,3,5,4,0,1,2,400,250.0,train,4,E-
62.5710487366,4,600,3,1,3,5,4,0,1,2,400,250.0,train,4,E-
238.992929459,1,600,5,1,3,5,4,0,1,2,400,250.0,train,1,E-
15.515089035,2,600,4,1,3,5,4,0,1,2,400,250.0,train,2,E-
62.4041557312,5,600,0,1,3,5,4,0,1,2,400,250.0,train,5,E-
111.76609993,1,600,5,1,3,5,4,0,1,2,400,250.0,train,1,E-
63.7998580933,5,600,0,1,3,5,4,0,1,2,400,250.0,train,5,E-
63.8020038605,0,600,2,1,3,5,4,0,1,2,400,250.0,train,0,E-
47.0278263092,0,600,2,1,3,5,4,0,1,2,400,250.0,train,0,E-
335.647821426,3,600,1,1,3,5,4,0,1,2,400,250.0,train,3,E-
46.8108654022,3,600,1,1,3,5,4,0,1,2,400,250.0,train,3,E-
142.561197281,0,600,2,1,3,5,4,0,1,2,400,250.0,train,0,E-
77.9390335083,1,600,5,1,3,5,4,0,1,2,400,250.0,train,1,E-
318.50194931,0,600,2,1,3,5,4,0,1,2,400,250.0,train,0,E-
175.50110817,1,600,5,1,3,5,4,0,1,2,400,250.0,train,1,E-
62.7861022949,0,600,2,1,3,5,4,0,1,2,400,250.0,train,0,E-
191.73002243,2,600,4,1,3,5,4,0,1,2,400,250.0,train,2,E-
207.556962967,5,600,0,1,3,5,4,0,1,2,400,250.0,train,5,E-
271.57497406,2,600,4,0,3,5,4,0,1,2,400,250.0,train,1,E-
511.656999588,3,600,1,1,3,5,4,0,1,2,400,250.0,train,3,E-
143.67389679,0,600,2,1,3,5,4,0,1,2,400,250.0,train,0,E-
671.541929245,1,600,5,1,3,5,4,0,1,2,400,250.0,train,1,E-
223.045110703,3,600,1,1,3,5,4,0,1,2,400,250.0,train,3,E-
174.508094788,4,600,3,1,3,5,4,0,1,2,400,250.0,train,4,E-
174.134016037,1,600,5,1,3,5,4,0,1,2,400,250.0,train,1,E-
94.5401191711,1,600,5,1,3,5,4,0,1,2,400,250.0,train,1,E-
127.541065216,1,600,5,1,3,5,4,0,1,2,400,250.0,train,1,E-
0.0522136688232,2,600,4,0,3,5,4,0,1,2,400,250.0,train,1,E-
143.173933029,0,600,2,1,3,5,4,0,1,2,400,250.0,train,0,E-
335.14881134,5,600,0,1,3,5,4,0,1,2,400,250.0,train,5,E-
47.7299690247,5,600,0,1,3,5,4,0,1,2,400,250.0,train,5,E-
270.675182343,3,600,1,1,3,5,4,0,1,2,400,250.0,train,3,E-
495.093107224,2,600,4,1,3,5,4,0,1,2,400,250.0,train,2,E-
111.170053482,5,600,0,1,3,5,4,0,1,2,400,250.0,train,5,E-
238.345146179,3,600,1,1,3,5,4,0,1,2,400,250.0,train,3,E-
206.378221512,2,600,4,1,3,5,4,0,1,2,400,250.0,train,2,E-
190.380096436,4,600,3,1,3,5,4,0,1,2,400,250.0,train,4,E-
510.530948639,2,600,4,1,3,5,4,0,1,2,400,250.0,train,2,E-
159.404993057,2,600,4,1,3,5,4,0,1,2,400,250.0,train,2,E-
159.512996674,5,600,0,1,3,5,4,0,1,2,400,250.0,train,5,E-
431.607961655,4,600,3,1,3,5,4,0,1,2,400,250.0,train,4,E-
47.6989746094,4,600,3,1,3,5,4,0,1,2,400,250.0,train,4,E-
175.655126572,5,600,0,1,3,5,4,0,1,2,400,250.0,train,5,E-
1550.34208298,0,1000,0,1,5,0,4,2,1,3,0,250.0,test,0,E-
846.438884735,4,1000,3,1,5,0,4,2,1,3,0,250.0,test,4,E-
1149.56498146,1,1000,5,1,5,0,4,2,1,3,0,250.0,test,1,E-
750.467061996,2,1000,2,1,5,0,4,2,1,3,0,250.0,test,2,E-
670.464992523,2,1000,2,1,5,0,4,2,1,3,0,250.0,test,2,E-
1053.61604691,3,1000,4,1,5,0,4,2,1,3,0,250.0,test,3,E-
717.084884644,1,1000,5,1,5,0,4,2,1,3,0,250.0,test,1,E-
654.656887054,0,1000,0,1,5,0,4,2,1,3,0,250.0,test,0,E-
588.991880417,0,1000,0,1,5,0,4,2,1,3,0,250.0,test,0,E-
830.228805542,4,1000,3,1,5,0,4,2,1,3,0,250.0,test,4,E-
862.641096115,3,1000,4,1,5,0,4,2,1,3,0,250.0,test,3,E-
958.271026611,2,1000,2,1,5,0,4,2,1,3,0,250.0,test,2,E-
509.654998779,2,1000,2,1,5,0,4,2,1,3,0,250.0,test,2,E-
542.647123337,3,1000,4,1,5,0,4,2,1,3,0,250.0,test,3,E-
591.076135635,4,1000,3,1,5,0,4,2,1,3,0,250.0,test,4,E-
638.438940048,0,1000,0,1,5,0,4,2,1,3,0,250.0,test,0,E-
575.634002686,5,1000,1,1,5,0,4,2,1,3,0,250.0,test,5,E-
734.384059906,2,1000,2,0,5,0,4,2,1,3,0,250.0,test,3,E-
829.049110413,4,1000,3,1,5,0,4,2,1,3,0,250.0,test,4,E-
815.070152283,4,1000,3,1,5,0,4,2,1,3,0,250.0,test,4,E-
862.789154053,0,1000,0,1,5,0,4,2,1,3,0,250.0,test,0,E-
1327.55112648,3,1000,4,1,5,0,4,2,1,3,0,250.0,test,3,E-
942.616939545,2,1000,2,1,5,0,4,2,1,3,0,250.0,test,2,E-
574.002981186,5,1000,1,1,5,0,4,2,1,3,0,250.0,test,5,E-
910.907030106,1,1000,5,0,5,0,4,2,1,3,0,250.0,test,0,E-
527.004003525,0,1000,0,1,5,0,4,2,1,3,0,250.0,test,0,E-
1277.42695808,4,1000,3,1,5,0,4,2,1,3,0,250.0,test,4,E-
526.566982269,1,1000,5,1,5,0,4,2,1,3,0,250.0,test,1,E-
462.09692955,1,1000,5,1,5,0,4,2,1,3,0,250.0,test,1,E-
493.908166885,1,1000,5,1,5,0,4,2,1,3,0,250.0,test,1,E-
1357.29598999,3,1000,4,1,5,0,4,2,1,3,0,250.0,test,3,E-
798.83313179,3,1000,4,1,5,0,4,2,1,3,0,250.0,test,3,E-
766.341924667,1,1000,5,1,5,0,4,2,1,3,0,250.0,test,1,E-
558.357954025,3,1000,4,1,5,0,4,2,1,3,0,250.0,test,3,E-
574.328899384,5,1000,1,1,5,0,4,2,1,3,0,250.0,test,5,E-
606.055021286,0,1000,0,1,5,0,4,2,1,3,0,250.0,test,0,E-
510.339975357,0,1000,0,1,5,0,4,2,1,3,0,250.0,test,0,E-
526.327848434,1,1000,5,1,5,0,4,2,1,3,0,250.0,test,1,E-
1038.39206696,1,1000,5,1,5,0,4,2,1,3,0,250.0,test,1,E-
1422.27506638,4,1000,3,1,5,0,4,2,1,3,0,250.0,test,4,E-
605.898141861,1,1000,5,1,5,0,4,2,1,3,0,250.0,test,1,E-
542.312145233,5,1000,1,1,5,0,4,2,1,3,0,250.0,test,5,E-
750.400781631,4,1000,3,1,5,0,4,2,1,3,0,250.0,test,4,E-
910.255908966,2,1000,2,1,5,0,4,2,1,3,0,250.0,test,2,E-
511.144161224,0,1000,0,1,5,0,4,2,1,3,0,250.0,test,0,E-
382.921934128,1,1000,5,1,5,0,4,2,1,3,0,250.0,test,1,E-
429.970979691,0,1000,0,1,5,0,4,2,1,3,0,250.0,test,0,E-
767.591953278,1,1000,5,1,5,0,4,2,1,3,0,250.0,test,1,E-
559.452056885,0,1000,0,1,5,0,4,2,1,3,0,250.0,test,0,E-
638.2188797,4,1000,3,1,5,0,4,2,1,3,0,250.0,test,4,E-
574.952125549,2,1000,2,1,5,0,4,2,1,3,0,250.0,test,2,E-
430.588006973,3,1000,4,1,5,0,4,2,1,3,0,250.0,test,3,E-
429.4090271,5,1000,1,1,5,0,4,2,1,3,0,250.0,test,5,E-
509.98210907,3,1000,4,0,5,0,4,2,1,3,0,250.0,test,2,E-
607.640028,0,1000,0,1,5,0,4,2,1,3,0,250.0,test,0,E-
782.711029053,3,1000,4,1,5,0,4,2,1,3,0,250.0,test,3,E-
430.675983429,3,1000,4,1,5,0,4,2,1,3,0,250.0,test,3,E-
511.61813736,0,1000,0,1,5,0,4,2,1,3,0,250.0,test,0,E-
621.408939362,3,1000,4,1,5,0,4,2,1,3,0,250.0,test,3,E-
492.925882339,5,1000,1,1,5,0,4,2,1,3,0,250.0,test,5,E-
765.584945679,2,1000,2,1,5,0,4,2,1,3,0,250.0,test,2,E-
511.125087738,1,1000,5,1,5,0,4,2,1,3,0,250.0,test,1,E-
941.519021988,4,1000,3,1,5,0,4,2,1,3,0,250.0,test,4,E-
1006.20412827,3,1000,4,1,5,0,4,2,1,3,0,250.0,test,3,E-
527.101039886,0,1000,0,1,5,0,4,2,1,3,0,250.0,test,0,E-
446.150064468,1,1000,5,1,5,0,4,2,1,3,0,250.0,test,1,E-
445.10602951,1,1000,5,1,5,0,4,2,1,3,0,250.0,test,1,E-
510.308980942,3,1000,4,0,5,0,4,2,1,3,0,250.0,test,1,E-
782.380104065,5,1000,1,1,5,0,4,2,1,3,0,250.0,test,5,E-
589.799880981,1,1000,5,1,5,0,4,2,1,3,0,250.0,test,1,E-
782.520055771,3,1000,4,1,5,0,4,2,1,3,0,250.0,test,3,E-
637.291908264,5,1000,1,1,5,0,4,2,1,3,0,250.0,test,5,E-
558.42590332,5,1000,1,1,5,0,4,2,1,3,0,250.0,test,5,E-
574.554920197,5,1000,1,1,5,0,4,2,1,3,0,250.0,test,5,E-
1086.40217781,1,1000,5,1,5,0,4,2,1,3,0,250.0,test,1,E-
1422.35803604,2,1000,2,1,5,0,4,2,1,3,0,250.0,test,2,E-
527.052164078,5,1000,1,1,5,0,4,2,1,3,0,250.0,test,5,E-
527.035951614,1,1000,5,1,5,0,4,2,1,3,0,250.0,test,1,E-
557.879924774,5,1000,1,1,5,0,4,2,1,3,0,250.0,test,5,E-
750.939846039,3,1000,4,1,5,0,4,2,1,3,0,250.0,test,3,E-
366.235971451,4,1000,3,1,5,0,4,2,1,3,0,250.0,test,4,E-
557.824850082,0,1000,0,1,5,0,4,2,1,3,0,250.0,test,0,E-
526.22294426,4,1000,3,1,5,0,4,2,1,3,0,250.0,test,4,E-
767.608165741,3,1000,4,1,5,0,4,2,1,3,0,250.0,test,3,E-
719.038963318,5,1000,1,1,5,0,4,2,1,3,0,250.0,test,5,E-
670.985937119,2,1000,2,1,5,0,4,2,1,3,0,250.0,test,2,E-
687.712907791,3,1000,4,1,5,0,4,2,1,3,0,250.0,test,3,E-
495.127916336,0,1000,0,1,5,0,4,2,1,3,0,250.0,test,0,E-
590.245962143,1,1000,5,1,5,0,4,2,1,3,0,250.0,test,1,E-
558.981895447,3,1000,4,1,5,0,4,2,1,3,0,250.0,test,3,E-
494.402170181,3,1000,4,1,5,0,4,2,1,3,0,250.0,test,3,E-
638.169050217,2,1000,2,1,5,0,4,2,1,3,0,250.0,test,2,E-
591.016054153,2,1000,2,1,5,0,4,2,1,3,0,250.0,test,2,E-
558.854818344,4,1000,3,1,5,0,4,2,1,3,0,250.0,test,4,E-
767.068862915,2,1000,2,1,5,0,4,2,1,3,0,250.0,test,2,E-
574.826002121,2,1000,2,1,5,0,4,2,1,3,0,250.0,test,2,E-
607.591152191,3,1000,4,1,5,0,4,2,1,3,0,250.0,test,3,E-
431.581020355,3,1000,4,1,5,0,4,2,1,3,0,250.0,test,3,E-
511.602878571,5,1000,1,1,5,0,4,2,1,3,0,250.0,test,5,E-
751.579046249,2,1000,2,1,5,0,4,2,1,3,0,250.0,test,2,E-
591.638803482,3,1000,4,1,5,0,4,2,1,3,0,250.0,test,3,E-
559.030771255,5,1000,1,1,5,0,4,2,1,3,0,250.0,test,5,E-
622.231006622,4,1000,3,1,5,0,4,2,1,3,0,250.0,test,4,E-
942.157030106,5,1000,1,1,5,0,4,2,1,3,0,250.0,test,5,E-
431.116104126,4,1000,3,1,5,0,4,2,1,3,0,250.0,test,4,E-
958.966970444,1,1000,5,1,5,0,4,2,1,3,0,250.0,test,1,E-
493.446111679,0,1000,0,1,5,0,4,2,1,3,0,250.0,test,0,E-
735.613107681,4,1000,3,1,5,0,4,2,1,3,0,250.0,test,4,E-
974.648952484,5,1000,1,1,5,0,4,2,1,3,0,250.0,test,5,E-
573.907852173,5,1000,1,1,5,0,4,2,1,3,0,250.0,test,5,E-
526.563882828,0,1000,0,1,5,0,4,2,1,3,0,250.0,test,0,E-
527.059078217,0,1000,0,1,5,0,4,2,1,3,0,250.0,test,0,E-
397.20082283,0,1000,0,1,5,0,4,2,1,3,0,250.0,test,0,E-
463.610887527,2,1000,2,1,5,0,4,2,1,3,0,250.0,test,2,E-
462.45598793,0,1000,0,1,5,0,4,2,1,3,0,250.0,test,0,E-
511.548995972,2,1000,2,1,5,0,4,2,1,3,0,250.0,test,2,E-
367.647886276,0,1000,0,1,5,0,4,2,1,3,0,250.0,test,0,E-
703.148841858,3,1000,4,1,5,0,4,2,1,3,0,250.0,test,3,E-
478.437900543,5,1000,1,1,5,0,4,2,1,3,0,250.0,test,5,E-
575.60801506,0,1000,0,1,5,0,4,2,1,3,0,250.0,test,0,E-
463.549137115,0,1000,0,1,5,0,4,2,1,3,0,250.0,test,0,E-
397.901058197,0,1000,0,1,5,0,4,2,1,3,0,250.0,test,0,E-
687.600851059,2,1000,2,1,5,0,4,2,1,3,0,250.0,test,2,E-
574.470996857,4,1000,3,1,5,0,4,2,1,3,0,250.0,test,4,E-
510.786056519,1,1000,5,1,5,0,4,2,1,3,0,250.0,test,1,E-
399.071931839,1,1000,5,1,5,0,4,2,1,3,0,250.0,test,1,E-
574.367046356,2,1000,2,1,5,0,4,2,1,3,0,250.0,test,2,E-
861.546039581,2,1000,2,1,5,0,4,2,1,3,0,250.0,test,2,E-
431.579113007,1,1000,5,1,5,0,4,2,1,3,0,250.0,test,1,E-
574.805021286,5,1000,1,1,5,0,4,2,1,3,0,250.0,test,5,E-
13838.7088776,3,1000,4,1,5,0,4,2,1,3,0,250.0,test,3,E-
526.693105698,5,1000,1,1,5,0,4,2,1,3,0,250.0,test,5,E-
639.003038406,1,1000,5,1,5,0,4,2,1,3,0,250.0,test,1,E-
366.297006607,1,1000,5,1,5,0,4,2,1,3,0,250.0,test,1,E-
686.371803284,3,1000,4,1,5,0,4,2,1,3,0,250.0,test,3,E-
462.13889122,0,1000,0,1,5,0,4,2,1,3,0,250.0,test,0,E-
463.06681633,5,1000,1,1,5,0,4,2,1,3,0,250.0,test,5,E-
623.012065887,1,1000,5,1,5,0,4,2,1,3,0,250.0,test,1,E-
574.922084808,3,1000,4,1,5,0,4,2,1,3,0,250.0,test,3,E-
510.949850082,5,1000,1,1,5,0,4,2,1,3,0,250.0,test,5,E-
477.818965912,4,1000,3,1,5,0,4,2,1,3,0,250.0,test,4,E-
478.43003273,1,1000,5,1,5,0,4,2,1,3,0,250.0,test,1,E-
495.661973953,5,1000,1,1,5,0,4,2,1,3,0,250.0,test,5,E-
350.224971771,4,1000,3,1,5,0,4,2,1,3,0,250.0,test,4,E-
573.991060257,2,1000,2,0,5,0,4,2,1,3,0,250.0,test,1,E-
525.679111481,1,1000,5,1,5,0,4,2,1,3,0,250.0,test,1,E-
526.481866837,2,1000,2,1,5,0,4,2,1,3,0,250.0,test,2,E-
447.064876556,1,1000,5,1,5,0,4,2,1,3,0,250.0,test,1,E-
557.879924774,5,1000,1,1,5,0,4,2,1,3,0,250.0,test,5,E-
527.041912079,3,1000,4,1,5,0,4,2,1,3,0,250.0,test,3,E-
495.579957962,0,1000,0,1,5,0,4,2,1,3,0,250.0,test,0,E-
382.570981979,1,1000,5,1,5,0,4,2,1,3,0,250.0,test,1,E-
543.668031693,4,1000,3,1,5,0,4,2,1,3,0,250.0,test,4,E-
623.079061508,1,1000,5,1,5,0,4,2,1,3,0,250.0,test,1,E-
543.627977371,1,1000,5,1,5,0,4,2,1,3,0,250.0,test,1,E-
461.686134338,1,1000,5,1,5,0,4,2,1,3,0,250.0,test,1,E-
414.448976517,1,1000,5,1,5,0,4,2,1,3,0,250.0,test,1,E-
477.576971054,2,1000,2,1,5,0,4,2,1,3,0,250.0,test,2,E-
495.678901672,3,1000,4,1,5,0,4,2,1,3,0,250.0,test,3,E-
350.538015366,4,1000,3,1,5,0,4,2,1,3,0,250.0,test,4,E-
398.792028427,5,1000,1,1,5,0,4,2,1,3,0,250.0,test,5,E-
687.151908875,3,1000,4,1,5,0,4,2,1,3,0,250.0,test,3,E-
461.314916611,3,1000,4,1,5,0,4,2,1,3,0,250.0,test,3,E-
608.325004578,1,1000,5,1,5,0,4,2,1,3,0,250.0,test,1,E-
607.131004333,4,1000,3,1,5,0,4,2,1,3,0,250.0,test,4,E-
526.525974274,5,1000,1,1,5,0,4,2,1,3,0,250.0,test,5,E-
526.114940643,1,1000,5,1,5,0,4,2,1,3,0,250.0,test,1,E-
462.682962418,1,1000,5,1,5,0,4,2,1,3,0,250.0,test,1,E-
847.028970718,4,1000,3,1,5,0,4,2,1,3,0,250.0,test,4,E-
510.365009308,4,1000,3,1,5,0,4,2,1,3,0,250.0,test,4,E-
447.052955627,4,1000,3,1,5,0,4,2,1,3,0,250.0,test,4,E-
527.04501152,0,1000,0,1,5,0,4,2,1,3,0,250.0,test,0,E-
479.54916954,5,1000,1,1,5,0,4,2,1,3,0,250.0,test,5,E-
399.595975876,1,1000,5,1,5,0,4,2,1,3,0,250.0,test,1,E-
606.199026108,2,1000,2,1,5,0,4,2,1,3,0,250.0,test,2,E-
463.407993317,4,1000,3,1,5,0,4,2,1,3,0,250.0,test,4,E-
462.966918945,4,1000,3,1,5,0,4,2,1,3,0,250.0,test,4,E-
719.007968903,2,1000,2,1,5,0,4,2,1,3,0,250.0,test,2,E-
511.586904526,5,1000,1,1,5,0,4,2,1,3,0,250.0,test,5,E-
719.074010849,0,1000,0,1,5,0,4,2,1,3,0,250.0,test,0,E-
591.642141342,5,1000,1,1,5,0,4,2,1,3,0,250.0,test,5,E-
735.646009445,1,1000,5,1,5,0,4,2,1,3,0,250.0,test,1,E-
701.840877533,5,1000,1,1,5,0,4,2,1,3,0,250.0,test,5,E-
2621.19483948,2,1000,2,0,5,0,4,2,1,3,0,250.0,test,3,E-
557.166099548,1,1000,5,1,5,0,4,2,1,3,0,250.0,test,1,E-
509.27400589,3,1000,4,1,5,0,4,2,1,3,0,250.0,test,3,E-
463.579893112,3,1000,4,1,5,0,4,2,1,3,0,250.0,test,3,E-
463.63902092,1,1000,5,1,5,0,4,2,1,3,0,250.0,test,1,E-
463.049173355,5,1000,1,1,5,0,4,2,1,3,0,250.0,test,5,E-
526.861190796,1,1000,5,1,5,0,4,2,1,3,0,250.0,test,1,E-
575.035095215,4,1000,3,1,5,0,4,2,1,3,0,250.0,test,4,E-
639.017105103,2,1000,2,1,5,0,4,2,1,3,0,250.0,test,2,E-
511.011123657,2,1000,2,1,5,0,4,2,1,3,0,250.0,test,2,E-
446.753978729,2,1000,2,1,5,0,4,2,1,3,0,250.0,test,2,E-
527.117967606,2,1000,2,1,5,0,4,2,1,3,0,250.0,test,2,E-
494.666814804,0,1000,0,1,5,0,4,2,1,3,0,250.0,test,0,E-
431.207895279,1,1000,5,1,5,0,4,2,1,3,0,250.0,test,1,E-
542.260885239,0,1000,0,1,5,0,4,2,1,3,0,250.0,test,0,E-
590.395927429,3,1000,4,1,5,0,4,2,1,3,0,250.0,test,3,E-
655.637979507,4,1000,3,1,5,0,4,2,1,3,0,250.0,test,4,E-
383.141994476,4,1000,3,1,5,0,4,2,1,3,0,250.0,test,4,E-
541.819095612,1,1000,5,0,5,0,4,2,1,3,0,250.0,test,0,E-
606.441020966,5,1000,1,1,5,0,4,2,1,3,0,250.0,test,5,E-
414.321184158,4,1000,3,1,5,0,4,2,1,3,0,250.0,test,4,E-
351.589918137,4,1000,3,1,5,0,4,2,1,3,0,250.0,test,4,E-
542.788982391,0,1000,0,1,5,0,4,2,1,3,0,250.0,test,0,E-
543.151855469,3,1000,4,0,5,0,4,2,1,3,0,250.0,test,2,E-
958.963871002,2,1000,2,1,5,0,4,2,1,3,0,250.0,test,2,E-
622.91097641,3,1000,4,1,5,0,4,2,1,3,0,250.0,test,3,E-
463.032007217,5,1000,1,1,5,0,4,2,1,3,0,250.0,test,5,E-
366.348981857,3,1000,4,0,5,0,4,2,1,3,0,250.0,test,4,E-
510.156869888,4,1000,3,1,5,0,4,2,1,3,0,250.0,test,4,E-
702.607870102,1,1000,5,1,5,0,4,2,1,3,0,250.0,test,1,E-
446.305990219,0,1000,0,1,5,0,4,2,1,3,0,250.0,test,0,E-
399.678945541,2,1000,2,1,5,0,4,2,1,3,0,250.0,test,2,E-
575.5610466,3,1000,4,1,5,0,4,2,1,3,0,250.0,test,3,E-
558.396100998,5,1000,1,1,5,0,4,2,1,3,0,250.0,test,5,E-
399.600028992,4,1000,3,1,5,0,4,2,1,3,0,250.0,test,4,E-
526.041984558,1,1000,5,1,5,0,4,2,1,3,0,250.0,test,1,E-
622.903108597,4,1000,3,1,5,0,4,2,1,3,0,250.0,test,4,E-
542.728900909,1,1000,5,1,5,0,4,2,1,3,0,250.0,test,1,E-
430.974006653,5,1000,1,1,5,0,4,2,1,3,0,250.0,test,5,E-
542.341947556,4,1000,3,1,5,0,4,2,1,3,0,250.0,test,4,E-
669.861078262,1,1000,5,1,5,0,4,2,1,3,0,250.0,test,1,E-
655.664920807,3,1000,4,1,5,0,4,2,1,3,0,250.0,test,3,E-
671.049118042,4,1000,3,1,5,0,4,2,1,3,0,250.0,test,4,E-
590.775966644,0,1000,0,1,5,0,4,2,1,3,0,250.0,test,0,E-
863.602161407,2,1000,2,1,5,0,4,2,1,3,0,250.0,test,2,E-
701.719999313,2,1000,2,1,5,0,4,2,1,3,0,250.0,test,2,E-
862.696886063,1,1000,5,1,5,0,4,2,1,3,0,250.0,test,1,E-
367.100954056,1,1000,5,1,5,0,4,2,1,3,0,250.0,test,1,E-
351.015090942,1,1000,5,1,5,0,4,2,1,3,0,250.0,test,1,E-
702.821016312,3,1000,4,1,5,0,4,2,1,3,0,250.0,test,3,E-
542.751073837,1,1000,5,1,5,0,4,2,1,3,0,250.0,test,1,E-
463.636159897,1,1000,5,1,5,0,4,2,1,3,0,250.0,test,1,E-
655.614852905,4,1000,3,1,5,0,4,2,1,3,0,250.0,test,4,E-
685.945034027,3,1000,4,1,5,0,4,2,1,3,0,250.0,test,3,E-
446.417093277,4,1000,3,1,5,0,4,2,1,3,0,250.0,test,4,E-
382.802009583,5,1000,1,1,5,0,4,2,1,3,0,250.0,test,5,E-
1007.10296631,2,1000,2,1,5,0,4,2,1,3,0,250.0,test,2,E-
509.595870972,5,1000,1,1,5,0,4,2,1,3,0,250.0,test,5,E-
639.646053314,3,1000,4,1,5,0,4,2,1,3,0,250.0,test,3,E-
591.037988663,0,1000,0,1,5,0,4,2,1,3,0,250.0,test,0,E-
447.615861893,1,1000,5,1,5,0,4,2,1,3,0,250.0,test,1,E-
460.954904556,3,1000,4,0,5,0,4,2,1,3,0,250.0,test,2,E-
862.848997116,1,1000,5,1,5,0,4,2,1,3,0,250.0,test,1,E-
462.92591095,1,1000,5,1,5,0,4,2,1,3,0,250.0,test,1,E-
542.783975601,3,1000,4,1,5,0,4,2,1,3,0,250.0,test,3,E-
495.077848434,1,1000,5,1,5,0,4,2,1,3,0,250.0,test,1,E-
494.837999344,2,1000,2,1,5,0,4,2,1,3,0,250.0,test,2,E-
