RT,correct_response,ms-prestimblank,curstim,correct,SRmap_1,SRmap_0,SRmap_3,SRmap_2,SRmap_5,SRmap_4,ms-precue,ntrials,type,response,condition
2366.83487892,1,600,3,1,0,4,1,3,5,2,400,250.0,train,1,E-
718.961000443,0,600,1,1,0,4,1,3,5,2,400,250.0,train,0,E-
1966.72296524,3,600,2,1,0,4,1,3,5,2,400,250.0,train,3,E-
894.997835159,2,600,4,0,0,4,1,3,5,2,400,250.0,train,1,E-
414.655923843,0,600,1,1,0,4,1,3,5,2,400,250.0,train,0,E-
975.009918213,1,600,3,1,0,4,1,3,5,2,400,250.0,train,1,E-
606.935024261,5,600,5,1,0,4,1,3,5,2,400,250.0,train,5,E-
1118.97802353,3,600,2,1,0,4,1,3,5,2,400,250.0,train,3,E-
239.109992981,0,600,1,1,0,4,1,3,5,2,400,250.0,train,0,E-
287.169933319,3,600,2,0,0,4,1,3,5,2,400,250.0,train,4,E-
191.483974457,5,600,5,1,0,4,1,3,5,2,400,250.0,train,5,E-
527.007102966,2,600,4,1,0,4,1,3,5,2,400,250.0,train,2,E-
478.897094727,5,600,5,1,0,4,1,3,5,2,400,250.0,train,5,E-
222.981929779,5,600,5,1,0,4,1,3,5,2,400,250.0,train,5,E-
190.424919128,5,600,5,1,0,4,1,3,5,2,400,250.0,train,5,E-
207.576990128,0,600,1,1,0,4,1,3,5,2,400,250.0,train,0,E-
351.487159729,1,600,3,1,0,4,1,3,5,2,400,250.0,train,1,E-
447.13306427,1,600,3,1,0,4,1,3,5,2,400,250.0,train,1,E-
767.071008682,2,600,4,1,0,4,1,3,5,2,400,250.0,train,2,E-
367.071151733,1,600,3,1,0,4,1,3,5,2,400,250.0,train,1,E-
271.093130112,5,600,5,1,0,4,1,3,5,2,400,250.0,train,5,E-
335.18409729,1,600,3,1,0,4,1,3,5,2,400,250.0,train,1,E-
207.273960114,0,600,1,1,0,4,1,3,5,2,400,250.0,train,0,E-
271.680116653,2,600,4,1,0,4,1,3,5,2,400,250.0,train,2,E-
302.209854126,4,600,0,1,0,4,1,3,5,2,400,250.0,train,4,E-
254.663944244,1,600,3,1,0,4,1,3,5,2,400,250.0,train,1,E-
238.455057144,4,600,0,1,0,4,1,3,5,2,400,250.0,train,4,E-
270.295143127,2,600,4,1,0,4,1,3,5,2,400,250.0,train,2,E-
527.191877365,2,600,4,1,0,4,1,3,5,2,400,250.0,train,2,E-
1471.15111351,4,600,0,1,0,4,1,3,5,2,400,250.0,train,4,E-
95.3249931335,4,600,0,1,0,4,1,3,5,2,400,250.0,train,4,E-
111.195087433,5,600,5,1,0,4,1,3,5,2,400,250.0,train,5,E-
79.7770023346,4,600,0,1,0,4,1,3,5,2,400,250.0,train,4,E-
174.405097961,0,600,1,1,0,4,1,3,5,2,400,250.0,train,0,E-
95.7839488983,5,600,5,1,0,4,1,3,5,2,400,250.0,train,5,E-
111.780881882,4,600,0,1,0,4,1,3,5,2,400,250.0,train,4,E-
271.591901779,3,600,2,1,0,4,1,3,5,2,400,250.0,train,3,E-
47.7559566498,4,600,0,1,0,4,1,3,5,2,400,250.0,train,4,E-
143.559217453,1,600,3,1,0,4,1,3,5,2,400,250.0,train,1,E-
63.0989074707,1,600,3,1,0,4,1,3,5,2,400,250.0,train,1,E-
110.34989357,1,600,3,1,0,4,1,3,5,2,400,250.0,train,1,E-
847.039937973,2,600,4,1,0,4,1,3,5,2,400,250.0,train,2,E-
79.1101455688,1,600,3,1,0,4,1,3,5,2,400,250.0,train,1,E-
15.8128738403,1,600,3,1,0,4,1,3,5,2,400,250.0,train,1,E-
175.564050674,4,600,0,0,0,4,1,3,5,2,400,250.0,train,5,E-
255.589008331,5,600,5,1,0,4,1,3,5,2,400,250.0,train,5,E-
237.940788269,1,600,3,1,0,4,1,3,5,2,400,250.0,train,1,E-
158.372879028,0,600,1,1,0,4,1,3,5,2,400,250.0,train,0,E-
1022.87197113,3,600,2,1,0,4,1,3,5,2,400,250.0,train,3,E-
127.557992935,2,600,4,1,0,4,1,3,5,2,400,250.0,train,2,E-
686.897039413,3,600,2,1,0,4,1,3,5,2,400,250.0,train,3,E-
158.943891525,1,600,3,1,0,4,1,3,5,2,400,250.0,train,1,E-
350.921869278,4,600,0,0,0,4,1,3,5,2,400,250.0,train,5,E-
127.019882202,5,600,5,1,0,4,1,3,5,2,400,250.0,train,5,E-
446.513175964,3,600,2,1,0,4,1,3,5,2,400,250.0,train,3,E-
126.797914505,0,600,1,1,0,4,1,3,5,2,400,250.0,train,0,E-
239.703893661,2,600,4,1,0,4,1,3,5,2,400,250.0,train,2,E-
559.633016586,3,600,2,1,0,4,1,3,5,2,400,250.0,train,3,E-
238.559007645,4,600,0,1,0,4,1,3,5,2,400,250.0,train,4,E-
190.409898758,1,600,3,1,0,4,1,3,5,2,400,250.0,train,1,E-
79.6010494232,1,600,3,1,0,4,1,3,5,2,400,250.0,train,1,E-
175.608158112,2,600,4,1,0,4,1,3,5,2,400,250.0,train,2,E-
78.5369873047,1,600,3,1,0,4,1,3,5,2,400,250.0,train,1,E-
63.7440681458,1,600,3,1,0,4,1,3,5,2,400,250.0,train,1,E-
127.774000168,5,600,5,1,0,4,1,3,5,2,400,250.0,train,5,E-
95.7360267639,4,600,0,1,0,4,1,3,5,2,400,250.0,train,4,E-
110.975027084,1,600,3,1,0,4,1,3,5,2,400,250.0,train,1,E-
462.817907333,3,600,2,1,0,4,1,3,5,2,400,250.0,train,3,E-
61.9211196899,5,600,5,1,0,4,1,3,5,2,400,250.0,train,5,E-
110.467910767,0,600,1,1,0,4,1,3,5,2,400,250.0,train,0,E-
191.639900208,5,600,5,1,0,4,1,3,5,2,400,250.0,train,5,E-
319.652080536,3,600,2,1,0,4,1,3,5,2,400,250.0,train,3,E-
94.9680805206,3,600,2,1,0,4,1,3,5,2,400,250.0,train,3,E-
79.7688961029,5,600,5,1,0,4,1,3,5,2,400,250.0,train,5,E-
79.7741413116,5,600,5,1,0,4,1,3,5,2,400,250.0,train,5,E-
79.6210765839,4,600,0,1,0,4,1,3,5,2,400,250.0,train,4,E-
127.138853073,4,600,0,1,0,4,1,3,5,2,400,250.0,train,4,E-
142.924070358,1,600,3,1,0,4,1,3,5,2,400,250.0,train,1,E-
111.032962799,1,600,3,1,0,4,1,3,5,2,400,250.0,train,1,E-
94.2120552063,5,600,5,1,0,4,1,3,5,2,400,250.0,train,5,E-
303.717851639,0,600,1,1,0,4,1,3,5,2,400,250.0,train,0,E-
191.651105881,4,600,0,1,0,4,1,3,5,2,400,250.0,train,4,E-
159.568071365,4,600,0,1,0,4,1,3,5,2,400,250.0,train,4,E-
63.6260509491,4,600,0,1,0,4,1,3,5,2,400,250.0,train,4,E-
495.692014694,1,600,3,1,0,4,1,3,5,2,400,250.0,train,1,E-
79.5910358429,4,600,0,1,0,4,1,3,5,2,400,250.0,train,4,E-
143.535852432,5,600,5,1,0,4,1,3,5,2,400,250.0,train,5,E-
255.625963211,3,600,2,1,0,4,1,3,5,2,400,250.0,train,3,E-
175.55308342,3,600,2,1,0,4,1,3,5,2,400,250.0,train,3,E-
223.019838333,5,600,5,1,0,4,1,3,5,2,400,250.0,train,5,E-
478.96695137,2,600,4,1,0,4,1,3,5,2,400,250.0,train,2,E-
190.982103348,4,600,0,1,0,4,1,3,5,2,400,250.0,train,4,E-
207.581996918,1,600,3,1,0,4,1,3,5,2,400,250.0,train,1,E-
191.603899002,5,600,5,1,0,4,1,3,5,2,400,250.0,train,5,E-
446.947813034,2,600,4,1,0,4,1,3,5,2,400,250.0,train,2,E-
223.661899567,4,600,0,1,0,4,1,3,5,2,400,250.0,train,4,E-
174.466848373,3,600,2,1,0,4,1,3,5,2,400,250.0,train,3,E-
142.75097847,4,600,0,1,0,4,1,3,5,2,400,250.0,train,4,E-
126.615047455,0,600,1,1,0,4,1,3,5,2,400,250.0,train,0,E-
79.7309875488,4,600,0,1,0,4,1,3,5,2,400,250.0,train,4,E-
110.66198349,1,600,3,1,0,4,1,3,5,2,400,250.0,train,1,E-
175.685882568,2,600,4,1,0,4,1,3,5,2,400,250.0,train,2,E-
110.971927643,4,600,0,1,0,4,1,3,5,2,400,250.0,train,4,E-
191.633939743,5,600,5,1,0,4,1,3,5,2,400,250.0,train,5,E-
254.880189896,2,600,4,1,0,4,1,3,5,2,400,250.0,train,2,E-
334.496021271,0,600,1,1,0,4,1,3,5,2,400,250.0,train,0,E-
143.552064896,5,600,5,1,0,4,1,3,5,2,400,250.0,train,5,E-
511.543989182,3,600,2,1,0,4,1,3,5,2,400,250.0,train,3,E-
143.555879593,0,600,1,1,0,4,1,3,5,2,400,250.0,train,0,E-
431.68592453,3,600,2,0,0,4,1,3,5,2,400,250.0,train,2,E-
591.668128967,3,600,2,1,0,4,1,3,5,2,400,250.0,train,3,E-
239.566087723,0,600,1,1,0,4,1,3,5,2,400,250.0,train,0,E-
335.636854172,4,600,0,1,0,4,1,3,5,2,400,250.0,train,4,E-
255.568981171,3,600,2,1,0,4,1,3,5,2,400,250.0,train,3,E-
207.535982132,2,600,4,1,0,4,1,3,5,2,400,250.0,train,2,E-
271.544933319,4,600,0,1,0,4,1,3,5,2,400,250.0,train,4,E-
430.913925171,0,600,1,1,0,4,1,3,5,2,400,250.0,train,0,E-
255.529880524,1,600,3,0,0,4,1,3,5,2,400,250.0,train,0,E-
223.698139191,3,600,2,1,0,4,1,3,5,2,400,250.0,train,3,E-
271.000862122,3,600,2,1,0,4,1,3,5,2,400,250.0,train,3,E-
174.993038177,3,600,2,1,0,4,1,3,5,2,400,250.0,train,3,E-
654.814958572,5,600,5,1,0,4,1,3,5,2,400,250.0,train,5,E-
559.031009674,1,600,3,1,0,4,1,3,5,2,400,250.0,train,1,E-
143.001079559,0,600,1,1,0,4,1,3,5,2,400,250.0,train,0,E-
318.904876709,3,600,2,1,0,4,1,3,5,2,400,250.0,train,3,E-
270.812988281,2,600,4,1,0,4,1,3,5,2,400,250.0,train,2,E-
510.809898376,5,600,5,1,0,4,1,3,5,2,400,250.0,train,5,E-
766.942977905,1,600,3,1,0,4,1,3,5,2,400,250.0,train,1,E-
159.226894379,5,600,5,1,0,4,1,3,5,2,400,250.0,train,5,E-
143.182039261,0,600,1,1,0,4,1,3,5,2,400,250.0,train,0,E-
383.567810059,5,600,5,1,0,4,1,3,5,2,400,250.0,train,5,E-
287.599086761,3,600,2,1,0,4,1,3,5,2,400,250.0,train,3,E-
175.554037094,0,600,1,1,0,4,1,3,5,2,400,250.0,train,0,E-
431.647062302,5,600,5,1,0,4,1,3,5,2,400,250.0,train,5,E-
239.573955536,4,600,0,1,0,4,1,3,5,2,400,250.0,train,4,E-
239.615917206,2,600,4,1,0,4,1,3,5,2,400,250.0,train,2,E-
174.417972565,1,600,3,1,0,4,1,3,5,2,400,250.0,train,1,E-
254.279136658,3,600,2,1,0,4,1,3,5,2,400,250.0,train,3,E-
127.114057541,5,600,5,1,0,4,1,3,5,2,400,250.0,train,5,E-
79.0069103241,5,600,5,1,0,4,1,3,5,2,400,250.0,train,5,E-
158.774852753,5,600,5,1,0,4,1,3,5,2,400,250.0,train,5,E-
126.641988754,0,600,1,1,0,4,1,3,5,2,400,250.0,train,0,E-
191.642999649,2,600,4,1,0,4,1,3,5,2,400,250.0,train,2,E-
126.225948334,4,600,0,1,0,4,1,3,5,2,400,250.0,train,4,E-
191.62607193,3,600,2,1,0,4,1,3,5,2,400,250.0,train,3,E-
174.785137177,0,600,1,1,0,4,1,3,5,2,400,250.0,train,0,E-
32.1860313416,0,600,1,1,0,4,1,3,5,2,400,250.0,train,0,E-
142.664194107,2,600,4,1,0,4,1,3,5,2,400,250.0,train,2,E-
159.604072571,4,600,0,0,0,4,1,3,5,2,400,250.0,train,3,E-
302.639007568,4,600,0,1,0,4,1,3,5,2,400,250.0,train,4,E-
157.078027725,0,600,1,1,0,4,1,3,5,2,400,250.0,train,0,E-
207.093000412,5,600,5,1,0,4,1,3,5,2,400,250.0,train,5,E-
190.309047699,4,600,0,1,0,4,1,3,5,2,400,250.0,train,4,E-
142.488002777,1,600,3,1,0,4,1,3,5,2,400,250.0,train,1,E-
350.547075272,4,600,0,1,0,4,1,3,5,2,400,250.0,train,4,E-
110.674142838,4,600,0,1,0,4,1,3,5,2,400,250.0,train,4,E-
94.8879718781,0,600,1,1,0,4,1,3,5,2,400,250.0,train,0,E-
527.667045593,3,600,2,1,0,4,1,3,5,2,400,250.0,train,3,E-
63.7412071228,5,600,5,1,0,4,1,3,5,2,400,250.0,train,5,E-
95.7670211792,4,600,0,1,0,4,1,3,5,2,400,250.0,train,4,E-
351.12285614,2,600,4,1,0,4,1,3,5,2,400,250.0,train,2,E-
223.668813705,2,600,4,1,0,4,1,3,5,2,400,250.0,train,2,E-
46.8919277191,2,600,4,1,0,4,1,3,5,2,400,250.0,train,2,E-
255.639791489,2,600,4,1,0,4,1,3,5,2,400,250.0,train,2,E-
287.670850754,3,600,2,1,0,4,1,3,5,2,400,250.0,train,3,E-
158.908843994,5,600,5,1,0,4,1,3,5,2,400,250.0,train,5,E-
127.780199051,5,600,5,1,0,4,1,3,5,2,400,250.0,train,5,E-
511.523008347,5,600,5,1,0,4,1,3,5,2,400,250.0,train,5,E-
207.649946213,3,600,2,1,0,4,1,3,5,2,400,250.0,train,3,E-
111.778020859,3,600,2,1,0,4,1,3,5,2,400,250.0,train,3,E-
143.705129623,0,600,1,1,0,4,1,3,5,2,400,250.0,train,0,E-
319.68998909,3,600,2,1,0,4,1,3,5,2,400,250.0,train,3,E-
174.278020859,5,600,5,1,0,4,1,3,5,2,400,250.0,train,5,E-
126.505851746,4,600,0,1,0,4,1,3,5,2,400,250.0,train,4,E-
190.843105316,3,600,2,1,0,4,1,3,5,2,400,250.0,train,3,E-
111.720085144,5,600,5,1,0,4,1,3,5,2,400,250.0,train,5,E-
223.205089569,2,600,4,1,0,4,1,3,5,2,400,250.0,train,2,E-
127.554178238,1,600,3,1,0,4,1,3,5,2,400,250.0,train,1,E-
143.444061279,0,600,1,1,0,4,1,3,5,2,400,250.0,train,0,E-
351.566791534,5,600,5,1,0,4,1,3,5,2,400,250.0,train,5,E-
142.36497879,1,600,3,1,0,4,1,3,5,2,400,250.0,train,1,E-
255.208969116,2,600,4,1,0,4,1,3,5,2,400,250.0,train,2,E-
142.79794693,0,600,1,1,0,4,1,3,5,2,400,250.0,train,0,E-
175.589084625,5,600,5,1,0,4,1,3,5,2,400,250.0,train,5,E-
30.4980278015,4,600,0,1,0,4,1,3,5,2,400,250.0,train,4,E-
158.37597847,1,600,3,1,0,4,1,3,5,2,400,250.0,train,1,E-
95.7560539246,0,600,1,1,0,4,1,3,5,2,400,250.0,train,0,E-
78.5109996796,5,600,5,1,0,4,1,3,5,2,400,250.0,train,5,E-
78.4018039703,2,600,4,0,0,4,1,3,5,2,400,250.0,train,1,E-
206.399917603,3,600,2,1,0,4,1,3,5,2,400,250.0,train,3,E-
159.137010574,4,600,0,1,0,4,1,3,5,2,400,250.0,train,4,E-
79.7879695892,4,600,0,1,0,4,1,3,5,2,400,250.0,train,4,E-
143.795013428,5,600,5,1,0,4,1,3,5,2,400,250.0,train,5,E-
126.443147659,5,600,5,1,0,4,1,3,5,2,400,250.0,train,5,E-
46.630859375,5,600,5,1,0,4,1,3,5,2,400,250.0,train,5,E-
238.394021988,3,600,2,1,0,4,1,3,5,2,400,250.0,train,3,E-
62.5829696655,0,600,1,1,0,4,1,3,5,2,400,250.0,train,0,E-
47.6288795471,1,600,3,1,0,4,1,3,5,2,400,250.0,train,1,E-
159.674882889,1,600,3,1,0,4,1,3,5,2,400,250.0,train,1,E-
79.5760154724,5,600,5,1,0,4,1,3,5,2,400,250.0,train,5,E-
127.57897377,0,600,1,1,0,4,1,3,5,2,400,250.0,train,0,E-
159.534931183,1,600,3,1,0,4,1,3,5,2,400,250.0,train,1,E-
223.525047302,3,600,2,1,0,4,1,3,5,2,400,250.0,train,3,E-
207.509040833,2,600,4,0,0,4,1,3,5,2,400,250.0,train,1,E-
175.544023514,2,600,4,1,0,4,1,3,5,2,400,250.0,train,2,E-
159.643888474,0,600,1,1,0,4,1,3,5,2,400,250.0,train,0,E-
527.617931366,4,600,0,0,0,4,1,3,5,2,400,250.0,train,3,E-
543.520927429,3,600,2,1,0,4,1,3,5,2,400,250.0,train,3,E-
271.942138672,0,600,1,1,0,4,1,3,5,2,400,250.0,train,0,E-
206.77614212,5,600,5,1,0,4,1,3,5,2,400,250.0,train,5,E-
255.025863647,2,600,4,1,0,4,1,3,5,2,400,250.0,train,2,E-
143.759012222,2,600,4,1,0,4,1,3,5,2,400,250.0,train,2,E-
143.579959869,1,600,3,1,0,4,1,3,5,2,400,250.0,train,1,E-
15.7480239868,1,600,3,1,0,4,1,3,5,2,400,250.0,train,1,E-
478.303194046,4,600,0,1,0,4,1,3,5,2,400,250.0,train,4,E-
287.542104721,2,600,4,0,0,4,1,3,5,2,400,250.0,train,3,E-
174.913167953,3,600,2,1,0,4,1,3,5,2,400,250.0,train,3,E-
191.548109055,0,600,1,1,0,4,1,3,5,2,400,250.0,train,0,E-
191.484928131,1,600,3,1,0,4,1,3,5,2,400,250.0,train,1,E-
271.589994431,5,600,5,1,0,4,1,3,5,2,400,250.0,train,5,E-
415.424108505,3,600,2,1,0,4,1,3,5,2,400,250.0,train,3,E-
111.577987671,3,600,2,1,0,4,1,3,5,2,400,250.0,train,3,E-
143.118858337,2,600,4,1,0,4,1,3,5,2,400,250.0,train,2,E-
255.01203537,4,600,0,1,0,4,1,3,5,2,400,250.0,train,4,E-
111.666917801,5,600,5,1,0,4,1,3,5,2,400,250.0,train,5,E-
351.588964462,3,600,2,1,0,4,1,3,5,2,400,250.0,train,3,E-
111.793041229,0,600,1,1,0,4,1,3,5,2,400,250.0,train,0,E-
335.57510376,4,600,0,1,0,4,1,3,5,2,400,250.0,train,4,E-
191.573143005,5,600,5,1,0,4,1,3,5,2,400,250.0,train,5,E-
559.497117996,2,600,4,1,0,4,1,3,5,2,400,250.0,train,2,E-
207.557916641,2,600,4,1,0,4,1,3,5,2,400,250.0,train,2,E-
222.407102585,4,600,0,1,0,4,1,3,5,2,400,250.0,train,4,E-
910.838842392,4,600,0,1,0,4,1,3,5,2,400,250.0,train,4,E-
79.7028541565,5,600,5,1,0,4,1,3,5,2,400,250.0,train,5,E-
143.743991852,1,600,3,1,0,4,1,3,5,2,400,250.0,train,1,E-
63.7929439545,0,600,1,1,0,4,1,3,5,2,400,250.0,train,0,E-
175.796031952,5,600,5,1,0,4,1,3,5,2,400,250.0,train,5,E-
270.31493187,2,600,4,1,0,4,1,3,5,2,400,250.0,train,2,E-
255.033016205,2,600,4,1,0,4,1,3,5,2,400,250.0,train,2,E-
382.776021957,3,600,2,1,0,4,1,3,5,2,400,250.0,train,3,E-
207.692146301,1,600,3,1,0,4,1,3,5,2,400,250.0,train,1,E-
159.616947174,5,600,5,1,0,4,1,3,5,2,400,250.0,train,5,E-
254.687070847,5,600,5,1,0,4,1,3,5,2,400,250.0,train,5,E-
127.619981766,4,600,0,1,0,4,1,3,5,2,400,250.0,train,4,E-
143.684864044,3,600,2,1,0,4,1,3,5,2,400,250.0,train,3,E-
255.576133728,2,600,4,1,0,4,1,3,5,2,400,250.0,train,2,E-
63.6110305786,2,600,4,1,0,4,1,3,5,2,400,250.0,train,2,E-
351.676940918,3,600,2,1,0,4,1,3,5,2,400,250.0,train,3,E-
127.130031586,3,600,2,1,0,4,1,3,5,2,400,250.0,train,3,E-
143.701076508,3,600,2,1,0,4,1,3,5,2,400,250.0,train,3,E-
1327.16298103,1,1000,4,1,0,3,5,2,4,1,0,250.0,test,1,E-
2093.72401237,4,1000,5,1,0,3,5,2,4,1,0,250.0,test,4,E-
990.925073624,3,1000,0,1,0,3,5,2,4,1,0,250.0,test,3,E-
492.676973343,1,1000,4,1,0,3,5,2,4,1,0,250.0,test,1,E-
717.626094818,3,1000,0,1,0,3,5,2,4,1,0,250.0,test,3,E-
1134.50407982,2,1000,2,1,0,3,5,2,4,1,0,250.0,test,2,E-
607.053041458,5,1000,3,1,0,3,5,2,4,1,0,250.0,test,5,E-
702.707052231,3,1000,0,1,0,3,5,2,4,1,0,250.0,test,3,E-
510.262966156,5,1000,3,1,0,3,5,2,4,1,0,250.0,test,5,E-
382.127046585,5,1000,3,1,0,3,5,2,4,1,0,250.0,test,5,E-
463.239908218,4,1000,5,1,0,3,5,2,4,1,0,250.0,test,4,E-
606.776952744,4,1000,5,1,0,3,5,2,4,1,0,250.0,test,4,E-
399.103879929,4,1000,5,1,0,3,5,2,4,1,0,250.0,test,4,E-
558.604955673,2,1000,2,1,0,3,5,2,4,1,0,250.0,test,2,E-
575.110912323,4,1000,5,1,0,3,5,2,4,1,0,250.0,test,4,E-
430.850028992,4,1000,5,1,0,3,5,2,4,1,0,250.0,test,4,E-
829.931020737,2,1000,2,1,0,3,5,2,4,1,0,250.0,test,2,E-
638.418197632,2,1000,2,1,0,3,5,2,4,1,0,250.0,test,2,E-
783.603906631,4,1000,5,1,0,3,5,2,4,1,0,250.0,test,4,E-
574.442863464,1,1000,4,1,0,3,5,2,4,1,0,250.0,test,1,E-
542.351007462,4,1000,5,1,0,3,5,2,4,1,0,250.0,test,4,E-
558.459997177,4,1000,5,1,0,3,5,2,4,1,0,250.0,test,4,E-
653.773784637,2,1000,2,1,0,3,5,2,4,1,0,250.0,test,2,E-
814.087152481,1,1000,4,1,0,3,5,2,4,1,0,250.0,test,1,E-
478.390932083,4,1000,5,1,0,3,5,2,4,1,0,250.0,test,4,E-
478.516817093,1,1000,4,1,0,3,5,2,4,1,0,250.0,test,1,E-
367.633104324,4,1000,5,1,0,3,5,2,4,1,0,250.0,test,4,E-
783.618927002,3,1000,0,1,0,3,5,2,4,1,0,250.0,test,3,E-
735.139131546,2,1000,2,1,0,3,5,2,4,1,0,250.0,test,2,E-
478.387117386,2,1000,2,1,0,3,5,2,4,1,0,250.0,test,2,E-
526.452064514,2,1000,2,1,0,3,5,2,4,1,0,250.0,test,2,E-
526.917934418,2,1000,2,1,0,3,5,2,4,1,0,250.0,test,2,E-
461.024045944,2,1000,2,1,0,3,5,2,4,1,0,250.0,test,2,E-
510.842084885,5,1000,3,1,0,3,5,2,4,1,0,250.0,test,5,E-
495.660066605,2,1000,2,1,0,3,5,2,4,1,0,250.0,test,2,E-
509.860992432,0,1000,1,1,0,3,5,2,4,1,0,250.0,test,0,E-
559.503793716,2,1000,2,1,0,3,5,2,4,1,0,250.0,test,2,E-
527.010917664,5,1000,3,1,0,3,5,2,4,1,0,250.0,test,5,E-
590.356111526,1,1000,4,1,0,3,5,2,4,1,0,250.0,test,1,E-
461.699008942,0,1000,1,1,0,3,5,2,4,1,0,250.0,test,0,E-
927.685022354,4,1000,5,1,0,3,5,2,4,1,0,250.0,test,4,E-
542.904138565,2,1000,2,1,0,3,5,2,4,1,0,250.0,test,2,E-
703.511953354,3,1000,0,1,0,3,5,2,4,1,0,250.0,test,3,E-
494.437932968,3,1000,0,1,0,3,5,2,4,1,0,250.0,test,3,E-
431.467056274,3,1000,0,1,0,3,5,2,4,1,0,250.0,test,3,E-
495.419025421,0,1000,1,1,0,3,5,2,4,1,0,250.0,test,0,E-
878.587961197,3,1000,0,1,0,3,5,2,4,1,0,250.0,test,3,E-
398.549079895,3,1000,0,1,0,3,5,2,4,1,0,250.0,test,3,E-
367.604017258,3,1000,0,1,0,3,5,2,4,1,0,250.0,test,3,E-
687.54696846,4,1000,5,1,0,3,5,2,4,1,0,250.0,test,4,E-
462.527990341,0,1000,1,1,0,3,5,2,4,1,0,250.0,test,0,E-
846.185922623,3,1000,0,1,0,3,5,2,4,1,0,250.0,test,3,E-
493.494987488,5,1000,3,1,0,3,5,2,4,1,0,250.0,test,5,E-
799.649000168,4,1000,5,1,0,3,5,2,4,1,0,250.0,test,4,E-
493.960857391,1,1000,4,1,0,3,5,2,4,1,0,250.0,test,1,E-
655.666828156,3,1000,0,1,0,3,5,2,4,1,0,250.0,test,3,E-
589.926958084,2,1000,2,1,0,3,5,2,4,1,0,250.0,test,2,E-
461.874961853,0,1000,1,1,0,3,5,2,4,1,0,250.0,test,0,E-
446.967840195,5,1000,3,1,0,3,5,2,4,1,0,250.0,test,5,E-
447.649002075,2,1000,2,0,0,3,5,2,4,1,0,250.0,test,1,E-
559.597015381,1,1000,4,1,0,3,5,2,4,1,0,250.0,test,1,E-
542.61803627,1,1000,4,1,0,3,5,2,4,1,0,250.0,test,1,E-
557.324886322,5,1000,3,1,0,3,5,2,4,1,0,250.0,test,5,E-
862.67209053,5,1000,3,1,0,3,5,2,4,1,0,250.0,test,5,E-
558.976888657,4,1000,5,1,0,3,5,2,4,1,0,250.0,test,4,E-
527.593135834,0,1000,1,1,0,3,5,2,4,1,0,250.0,test,0,E-
591.652870178,2,1000,2,1,0,3,5,2,4,1,0,250.0,test,2,E-
527.57692337,1,1000,4,1,0,3,5,2,4,1,0,250.0,test,1,E-
542.001008987,4,1000,5,1,0,3,5,2,4,1,0,250.0,test,4,E-
559.091091156,0,1000,1,1,0,3,5,2,4,1,0,250.0,test,0,E-
878.519058228,3,1000,0,1,0,3,5,2,4,1,0,250.0,test,3,E-
526.91078186,2,1000,2,0,0,3,5,2,4,1,0,250.0,test,1,E-
574.892997742,1,1000,4,1,0,3,5,2,4,1,0,250.0,test,1,E-
669.401168823,2,1000,2,1,0,3,5,2,4,1,0,250.0,test,2,E-
557.933092117,2,1000,2,1,0,3,5,2,4,1,0,250.0,test,2,E-
719.071149826,3,1000,0,1,0,3,5,2,4,1,0,250.0,test,3,E-
605.868816376,0,1000,1,1,0,3,5,2,4,1,0,250.0,test,0,E-
575.040817261,2,1000,2,1,0,3,5,2,4,1,0,250.0,test,2,E-
574.229001999,3,1000,0,1,0,3,5,2,4,1,0,250.0,test,3,E-
798.99597168,3,1000,0,1,0,3,5,2,4,1,0,250.0,test,3,E-
463.119029999,4,1000,5,1,0,3,5,2,4,1,0,250.0,test,4,E-
544.348955154,1,1000,4,1,0,3,5,2,4,1,0,250.0,test,1,E-
462.459087372,2,1000,2,1,0,3,5,2,4,1,0,250.0,test,2,E-
510.859966278,0,1000,1,1,0,3,5,2,4,1,0,250.0,test,0,E-
606.469154358,5,1000,3,1,0,3,5,2,4,1,0,250.0,test,5,E-
733.374118805,5,1000,3,1,0,3,5,2,4,1,0,250.0,test,5,E-
558.892011642,0,1000,1,1,0,3,5,2,4,1,0,250.0,test,0,E-
510.592937469,0,1000,1,1,0,3,5,2,4,1,0,250.0,test,0,E-
686.951875687,4,1000,5,1,0,3,5,2,4,1,0,250.0,test,4,E-
590.579032898,0,1000,1,1,0,3,5,2,4,1,0,250.0,test,0,E-
622.936010361,5,1000,3,1,0,3,5,2,4,1,0,250.0,test,5,E-
446.871042252,0,1000,1,1,0,3,5,2,4,1,0,250.0,test,0,E-
526.335954666,1,1000,4,1,0,3,5,2,4,1,0,250.0,test,1,E-
460.166931152,2,1000,2,1,0,3,5,2,4,1,0,250.0,test,2,E-
399.061918259,0,1000,1,1,0,3,5,2,4,1,0,250.0,test,0,E-
527.041196823,5,1000,3,1,0,3,5,2,4,1,0,250.0,test,5,E-
463.542938232,0,1000,1,1,0,3,5,2,4,1,0,250.0,test,0,E-
494.703054428,3,1000,0,0,0,3,5,2,4,1,0,250.0,test,5,E-
686.253070831,4,1000,5,1,0,3,5,2,4,1,0,250.0,test,4,E-
543.083190918,5,1000,3,1,0,3,5,2,4,1,0,250.0,test,5,E-
447.793960571,5,1000,3,1,0,3,5,2,4,1,0,250.0,test,5,E-
735.322952271,3,1000,0,1,0,3,5,2,4,1,0,250.0,test,3,E-
574.655056,2,1000,2,1,0,3,5,2,4,1,0,250.0,test,2,E-
703.111171722,1,1000,4,1,0,3,5,2,4,1,0,250.0,test,1,E-
479.590892792,0,1000,1,1,0,3,5,2,4,1,0,250.0,test,0,E-
479.604959488,0,1000,1,1,0,3,5,2,4,1,0,250.0,test,0,E-
783.080101013,3,1000,0,1,0,3,5,2,4,1,0,250.0,test,3,E-
622.833967209,4,1000,5,1,0,3,5,2,4,1,0,250.0,test,4,E-
542.881965637,0,1000,1,1,0,3,5,2,4,1,0,250.0,test,0,E-
638.693809509,3,1000,0,1,0,3,5,2,4,1,0,250.0,test,3,E-
542.881011963,1,1000,4,1,0,3,5,2,4,1,0,250.0,test,1,E-
830.290079117,3,1000,0,1,0,3,5,2,4,1,0,250.0,test,3,E-
670.561075211,4,1000,5,1,0,3,5,2,4,1,0,250.0,test,4,E-
589.299917221,4,1000,5,1,0,3,5,2,4,1,0,250.0,test,4,E-
750.530004501,5,1000,3,1,0,3,5,2,4,1,0,250.0,test,5,E-
589.550018311,4,1000,5,1,0,3,5,2,4,1,0,250.0,test,4,E-
494.526147842,0,1000,1,1,0,3,5,2,4,1,0,250.0,test,0,E-
573.889017105,5,1000,3,1,0,3,5,2,4,1,0,250.0,test,5,E-
605.911016464,2,1000,2,1,0,3,5,2,4,1,0,250.0,test,2,E-
671.066045761,3,1000,0,1,0,3,5,2,4,1,0,250.0,test,3,E-
510.331869125,0,1000,1,1,0,3,5,2,4,1,0,250.0,test,0,E-
718.993902206,2,1000,2,1,0,3,5,2,4,1,0,250.0,test,2,E-
557.374954224,0,1000,1,1,0,3,5,2,4,1,0,250.0,test,0,E-
558.952093124,5,1000,3,1,0,3,5,2,4,1,0,250.0,test,5,E-
686.966896057,2,1000,2,1,0,3,5,2,4,1,0,250.0,test,2,E-
526.521921158,0,1000,1,1,0,3,5,2,4,1,0,250.0,test,0,E-
461.431980133,0,1000,1,1,0,3,5,2,4,1,0,250.0,test,0,E-
494.775056839,1,1000,4,1,0,3,5,2,4,1,0,250.0,test,1,E-
573.817014694,2,1000,2,1,0,3,5,2,4,1,0,250.0,test,2,E-
478.86800766,5,1000,3,1,0,3,5,2,4,1,0,250.0,test,5,E-
510.097980499,0,1000,1,1,0,3,5,2,4,1,0,250.0,test,0,E-
495.028972626,5,1000,3,1,0,3,5,2,4,1,0,250.0,test,5,E-
525.949954987,5,1000,3,1,0,3,5,2,4,1,0,250.0,test,5,E-
606.964111328,3,1000,0,1,0,3,5,2,4,1,0,250.0,test,3,E-
543.021202087,3,1000,0,1,0,3,5,2,4,1,0,250.0,test,3,E-
526.565074921,2,1000,2,1,0,3,5,2,4,1,0,250.0,test,2,E-
557.322978973,5,1000,3,1,0,3,5,2,4,1,0,250.0,test,5,E-
543.167114258,5,1000,3,1,0,3,5,2,4,1,0,250.0,test,5,E-
733.356952667,1,1000,4,1,0,3,5,2,4,1,0,250.0,test,1,E-
799.15189743,5,1000,3,1,0,3,5,2,4,1,0,250.0,test,5,E-
574.477910995,4,1000,5,1,0,3,5,2,4,1,0,250.0,test,4,E-
430.598020554,0,1000,1,1,0,3,5,2,4,1,0,250.0,test,0,E-
527.47297287,1,1000,4,1,0,3,5,2,4,1,0,250.0,test,1,E-
639.606952667,2,1000,2,1,0,3,5,2,4,1,0,250.0,test,2,E-
495.614051819,2,1000,2,1,0,3,5,2,4,1,0,250.0,test,2,E-
511.721134186,5,1000,3,1,0,3,5,2,4,1,0,250.0,test,5,E-
527.02999115,5,1000,3,1,0,3,5,2,4,1,0,250.0,test,5,E-
591.011047363,4,1000,5,1,0,3,5,2,4,1,0,250.0,test,4,E-
493.106842041,3,1000,0,1,0,3,5,2,4,1,0,250.0,test,3,E-
527.153968811,5,1000,3,1,0,3,5,2,4,1,0,250.0,test,5,E-
463.002204895,5,1000,3,1,0,3,5,2,4,1,0,250.0,test,5,E-
541.35799408,0,1000,1,1,0,3,5,2,4,1,0,250.0,test,0,E-
862.840890884,3,1000,0,1,0,3,5,2,4,1,0,250.0,test,3,E-
574.54419136,1,1000,4,1,0,3,5,2,4,1,0,250.0,test,1,E-
654.53004837,4,1000,5,1,0,3,5,2,4,1,0,250.0,test,4,E-
1231.50801659,2,1000,2,1,0,3,5,2,4,1,0,250.0,test,2,E-
477.859020233,5,1000,3,1,0,3,5,2,4,1,0,250.0,test,5,E-
479.604005814,0,1000,1,1,0,3,5,2,4,1,0,250.0,test,0,E-
750.038862228,3,1000,0,1,0,3,5,2,4,1,0,250.0,test,3,E-
558.919906616,4,1000,5,1,0,3,5,2,4,1,0,250.0,test,4,E-
622.807979584,3,1000,0,1,0,3,5,2,4,1,0,250.0,test,3,E-
525.508165359,4,1000,5,1,0,3,5,2,4,1,0,250.0,test,4,E-
510.326147079,1,1000,4,1,0,3,5,2,4,1,0,250.0,test,1,E-
541.746854782,0,1000,1,1,0,3,5,2,4,1,0,250.0,test,0,E-
1551.63097382,5,1000,3,1,0,3,5,2,4,1,0,250.0,test,5,E-
958.886146545,2,1000,2,1,0,3,5,2,4,1,0,250.0,test,2,E-
477.895975113,1,1000,4,1,0,3,5,2,4,1,0,250.0,test,1,E-
494.784116745,5,1000,3,1,0,3,5,2,4,1,0,250.0,test,5,E-
557.445049286,1,1000,4,1,0,3,5,2,4,1,0,250.0,test,1,E-
783.067941666,4,1000,5,1,0,3,5,2,4,1,0,250.0,test,4,E-
542.918920517,0,1000,1,1,0,3,5,2,4,1,0,250.0,test,0,E-
510.978937149,5,1000,3,1,0,3,5,2,4,1,0,250.0,test,5,E-
509.968996048,4,1000,5,1,0,3,5,2,4,1,0,250.0,test,4,E-
574.924945831,0,1000,1,1,0,3,5,2,4,1,0,250.0,test,0,E-
589.929819107,2,1000,2,1,0,3,5,2,4,1,0,250.0,test,2,E-
846.969842911,4,1000,5,0,0,3,5,2,4,1,0,250.0,test,3,E-
1054.16202545,4,1000,5,1,0,3,5,2,4,1,0,250.0,test,4,E-
573.759078979,2,1000,2,1,0,3,5,2,4,1,0,250.0,test,2,E-
1327.04877853,4,1000,5,1,0,3,5,2,4,1,0,250.0,test,4,E-
543.069839478,2,1000,2,1,0,3,5,2,4,1,0,250.0,test,2,E-
509.665966034,1,1000,4,1,0,3,5,2,4,1,0,250.0,test,1,E-
895.490884781,2,1000,2,1,0,3,5,2,4,1,0,250.0,test,2,E-
558.604001999,5,1000,3,1,0,3,5,2,4,1,0,250.0,test,5,E-
527.602910995,4,1000,5,1,0,3,5,2,4,1,0,250.0,test,4,E-
445.930957794,4,1000,5,1,0,3,5,2,4,1,0,250.0,test,4,E-
477.435112,1,1000,4,1,0,3,5,2,4,1,0,250.0,test,1,E-
622.336149216,5,1000,3,1,0,3,5,2,4,1,0,250.0,test,5,E-
511.621952057,4,1000,5,1,0,3,5,2,4,1,0,250.0,test,4,E-
590.548038483,5,1000,3,1,0,3,5,2,4,1,0,250.0,test,5,E-
815.401077271,2,1000,2,1,0,3,5,2,4,1,0,250.0,test,2,E-
526.537179947,0,1000,1,1,0,3,5,2,4,1,0,250.0,test,0,E-
1359.62104797,4,1000,5,1,0,3,5,2,4,1,0,250.0,test,4,E-
413.937091827,5,1000,3,1,0,3,5,2,4,1,0,250.0,test,5,E-
430.899858475,1,1000,4,1,0,3,5,2,4,1,0,250.0,test,1,E-
542.864084244,5,1000,3,1,0,3,5,2,4,1,0,250.0,test,5,E-
958.57000351,1,1000,4,1,0,3,5,2,4,1,0,250.0,test,1,E-
670.557975769,1,1000,4,1,0,3,5,2,4,1,0,250.0,test,1,E-
510.735988617,5,1000,3,1,0,3,5,2,4,1,0,250.0,test,5,E-
751.057863235,2,1000,2,1,0,3,5,2,4,1,0,250.0,test,2,E-
525.988101959,1,1000,4,1,0,3,5,2,4,1,0,250.0,test,1,E-
606.033086777,0,1000,1,1,0,3,5,2,4,1,0,250.0,test,0,E-
877.263069153,3,1000,0,1,0,3,5,2,4,1,0,250.0,test,3,E-
478.090047836,5,1000,3,1,0,3,5,2,4,1,0,250.0,test,5,E-
559.139966965,4,1000,5,1,0,3,5,2,4,1,0,250.0,test,4,E-
687.224149704,2,1000,2,1,0,3,5,2,4,1,0,250.0,test,2,E-
493.042945862,1,1000,4,1,0,3,5,2,4,1,0,250.0,test,1,E-
717.352151871,3,1000,0,1,0,3,5,2,4,1,0,250.0,test,3,E-
638.985157013,2,1000,2,1,0,3,5,2,4,1,0,250.0,test,2,E-
575.091123581,0,1000,1,1,0,3,5,2,4,1,0,250.0,test,0,E-
573.374986649,3,1000,0,1,0,3,5,2,4,1,0,250.0,test,3,E-
511.065006256,1,1000,4,1,0,3,5,2,4,1,0,250.0,test,1,E-
590.924024582,4,1000,5,0,0,3,5,2,4,1,0,250.0,test,5,E-
590.407848358,3,1000,0,0,0,3,5,2,4,1,0,250.0,test,2,E-
558.44783783,3,1000,0,1,0,3,5,2,4,1,0,250.0,test,3,E-
479.646205902,3,1000,0,1,0,3,5,2,4,1,0,250.0,test,3,E-
574.518918991,2,1000,2,1,0,3,5,2,4,1,0,250.0,test,2,E-
637.65501976,0,1000,1,1,0,3,5,2,4,1,0,250.0,test,0,E-
526.877164841,1,1000,4,1,0,3,5,2,4,1,0,250.0,test,1,E-
781.419992447,4,1000,5,1,0,3,5,2,4,1,0,250.0,test,4,E-
463.112831116,4,1000,5,1,0,3,5,2,4,1,0,250.0,test,4,E-
495.594024658,0,1000,1,1,0,3,5,2,4,1,0,250.0,test,0,E-
575.385093689,3,1000,0,1,0,3,5,2,4,1,0,250.0,test,3,E-
575.018882751,2,1000,2,1,0,3,5,2,4,1,0,250.0,test,2,E-
543.66517067,1,1000,4,1,0,3,5,2,4,1,0,250.0,test,1,E-
606.886148453,2,1000,2,1,0,3,5,2,4,1,0,250.0,test,2,E-
702.353000641,4,1000,5,1,0,3,5,2,4,1,0,250.0,test,4,E-
590.80696106,0,1000,1,1,0,3,5,2,4,1,0,250.0,test,0,E-
607.017040253,4,1000,5,1,0,3,5,2,4,1,0,250.0,test,4,E-
622.611999512,5,1000,3,1,0,3,5,2,4,1,0,250.0,test,5,E-
831.137895584,2,1000,2,1,0,3,5,2,4,1,0,250.0,test,2,E-
734.903812408,3,1000,0,1,0,3,5,2,4,1,0,250.0,test,3,E-
461.822986603,0,1000,1,1,0,3,5,2,4,1,0,250.0,test,0,E-
479.150056839,5,1000,3,1,0,3,5,2,4,1,0,250.0,test,5,E-
494.833946228,4,1000,5,1,0,3,5,2,4,1,0,250.0,test,4,E-
687.407970428,3,1000,0,0,0,3,5,2,4,1,0,250.0,test,4,E-
830.842971802,3,1000,0,1,0,3,5,2,4,1,0,250.0,test,3,E-
510.658025742,4,1000,5,1,0,3,5,2,4,1,0,250.0,test,4,E-
687.06703186,0,1000,1,1,0,3,5,2,4,1,0,250.0,test,0,E-
685.503959656,0,1000,1,1,0,3,5,2,4,1,0,250.0,test,0,E-
942.667007446,3,1000,0,1,0,3,5,2,4,1,0,250.0,test,3,E-
495.053052902,0,1000,1,1,0,3,5,2,4,1,0,250.0,test,0,E-
622.873067856,4,1000,5,1,0,3,5,2,4,1,0,250.0,test,4,E-
525.802135468,4,1000,5,1,0,3,5,2,4,1,0,250.0,test,4,E-
494.174957275,0,1000,1,1,0,3,5,2,4,1,0,250.0,test,0,E-
461.944818497,4,1000,5,1,0,3,5,2,4,1,0,250.0,test,4,E-
765.794992447,2,1000,2,1,0,3,5,2,4,1,0,250.0,test,2,E-
621.839046478,0,1000,1,1,0,3,5,2,4,1,0,250.0,test,0,E-
575.677156448,5,1000,3,1,0,3,5,2,4,1,0,250.0,test,5,E-
591.695070267,1,1000,4,1,0,3,5,2,4,1,0,250.0,test,1,E-
814.89109993,5,1000,3,1,0,3,5,2,4,1,0,250.0,test,5,E-
