RT,correct_response,ms-prestimblank,curstim,correct,SRmap_1,SRmap_0,SRmap_3,SRmap_2,SRmap_5,SRmap_4,ms-precue,ntrials,type,response,condition
18440.9530163,5,600,0,1,0,5,3,4,1,2,400,250.0,train,5,E-
1400.9912014,2,600,4,1,0,5,3,4,1,2,400,250.0,train,2,E-
1399.81198311,3,600,3,1,0,5,3,4,1,2,400,250.0,train,3,E-
919.672966003,5,600,0,1,0,5,3,4,1,2,400,250.0,train,5,E-
1239.84408379,4,600,2,1,0,5,3,4,1,2,400,250.0,train,4,E-
791.953086853,4,600,2,0,0,5,3,4,1,2,400,250.0,train,5,E-
1177.27303505,3,600,3,1,0,5,3,4,1,2,400,250.0,train,3,E-
679.847002029,3,600,3,1,0,5,3,4,1,2,400,250.0,train,3,E-
871.683120728,4,600,2,1,0,5,3,4,1,2,400,250.0,train,4,E-
759.827136993,3,600,3,1,0,5,3,4,1,2,400,250.0,train,3,E-
857.278108597,5,600,0,1,0,5,3,4,1,2,400,250.0,train,5,E-
1417.10305214,0,600,1,1,0,5,3,4,1,2,400,250.0,train,0,E-
1384.5539093,2,600,4,1,0,5,3,4,1,2,400,250.0,train,2,E-
1047.75381088,3,600,3,1,0,5,3,4,1,2,400,250.0,train,3,E-
871.737003326,1,600,5,1,0,5,3,4,1,2,400,250.0,train,1,E-
1399.54900742,2,600,4,1,0,5,3,4,1,2,400,250.0,train,2,E-
889.240980148,1,600,5,1,0,5,3,4,1,2,400,250.0,train,1,E-
665.11797905,2,600,4,1,0,5,3,4,1,2,400,250.0,train,2,E-
1161.206007,0,600,1,1,0,5,3,4,1,2,400,250.0,train,0,E-
823.749065399,2,600,4,1,0,5,3,4,1,2,400,250.0,train,2,E-
999.758005142,4,600,2,1,0,5,3,4,1,2,400,250.0,train,4,E-
551.681995392,4,600,2,1,0,5,3,4,1,2,400,250.0,train,4,E-
791.659116745,1,600,5,1,0,5,3,4,1,2,400,250.0,train,1,E-
727.793931961,4,600,2,1,0,5,3,4,1,2,400,250.0,train,4,E-
311.810970306,4,600,2,1,0,5,3,4,1,2,400,250.0,train,4,E-
919.908046722,1,600,5,1,0,5,3,4,1,2,400,250.0,train,1,E-
663.865089417,2,600,4,1,0,5,3,4,1,2,400,250.0,train,2,E-
999.833106995,1,600,5,1,0,5,3,4,1,2,400,250.0,train,1,E-
840.694904327,4,600,2,1,0,5,3,4,1,2,400,250.0,train,4,E-
584.089994431,5,600,0,1,0,5,3,4,1,2,400,250.0,train,5,E-
935.961961746,1,600,5,1,0,5,3,4,1,2,400,250.0,train,1,E-
584.013938904,0,600,1,1,0,5,3,4,1,2,400,250.0,train,0,E-
185.203075409,0,600,1,1,0,5,3,4,1,2,400,250.0,train,0,E-
503.753900528,1,600,5,1,0,5,3,4,1,2,400,250.0,train,1,E-
567.743062973,5,600,0,1,0,5,3,4,1,2,400,250.0,train,5,E-
808.073043823,1,600,5,1,0,5,3,4,1,2,400,250.0,train,1,E-
663.704872131,4,600,2,1,0,5,3,4,1,2,400,250.0,train,4,E-
329.168081284,4,600,2,1,0,5,3,4,1,2,400,250.0,train,4,E-
153.211116791,4,600,2,1,0,5,3,4,1,2,400,250.0,train,4,E-
679.709911346,2,600,4,0,0,5,3,4,1,2,400,250.0,train,1,E-
727.72693634,4,600,2,1,0,5,3,4,1,2,400,250.0,train,4,E-
1575.81305504,3,600,3,1,0,5,3,4,1,2,400,250.0,train,3,E-
1047.74808884,2,600,4,1,0,5,3,4,1,2,400,250.0,train,2,E-
663.676023483,4,600,2,1,0,5,3,4,1,2,400,250.0,train,4,E-
647.869110107,5,600,0,1,0,5,3,4,1,2,400,250.0,train,5,E-
1127.78496742,2,600,4,1,0,5,3,4,1,2,400,250.0,train,2,E-
313.248872757,2,600,4,1,0,5,3,4,1,2,400,250.0,train,2,E-
25.1970291138,2,600,4,1,0,5,3,4,1,2,400,250.0,train,2,E-
281.227111816,2,600,4,1,0,5,3,4,1,2,400,250.0,train,2,E-
905.205965042,5,600,0,1,0,5,3,4,1,2,400,250.0,train,5,E-
935.86397171,3,600,3,1,0,5,3,4,1,2,400,250.0,train,3,E-
679.770946503,4,600,2,0,0,5,3,4,1,2,400,250.0,train,5,E-
903.860092163,1,600,5,1,0,5,3,4,1,2,400,250.0,train,1,E-
615.897893906,0,600,1,1,0,5,3,4,1,2,400,250.0,train,0,E-
903.851985931,3,600,3,1,0,5,3,4,1,2,400,250.0,train,3,E-
71.7439651489,3,600,3,1,0,5,3,4,1,2,400,250.0,train,3,E-
471.665859222,5,600,0,1,0,5,3,4,1,2,400,250.0,train,5,E-
759.814977646,2,600,4,1,0,5,3,4,1,2,400,250.0,train,2,E-
569.091081619,3,600,3,0,0,5,3,4,1,2,400,250.0,train,4,E-
792.026042938,2,600,4,1,0,5,3,4,1,2,400,250.0,train,2,E-
441.339969635,5,600,0,1,0,5,3,4,1,2,400,250.0,train,5,E-
775.851011276,3,600,3,1,0,5,3,4,1,2,400,250.0,train,3,E-
743.834972382,0,600,1,1,0,5,3,4,1,2,400,250.0,train,0,E-
199.739933014,0,600,1,1,0,5,3,4,1,2,400,250.0,train,0,E-
905.310153961,4,600,2,1,0,5,3,4,1,2,400,250.0,train,4,E-
263.77415657,5,600,0,1,0,5,3,4,1,2,400,250.0,train,5,E-
631.672143936,3,600,3,1,0,5,3,4,1,2,400,250.0,train,3,E-
55.675983429,3,600,3,1,0,5,3,4,1,2,400,250.0,train,3,E-
471.64106369,0,600,1,1,0,5,3,4,1,2,400,250.0,train,0,E-
759.667873383,4,600,2,1,0,5,3,4,1,2,400,250.0,train,4,E-
936.583995819,2,600,4,1,0,5,3,4,1,2,400,250.0,train,2,E-
583.717107773,3,600,3,1,0,5,3,4,1,2,400,250.0,train,3,E-
1049.37601089,5,600,0,1,0,5,3,4,1,2,400,250.0,train,5,E-
601.728916168,1,600,5,0,0,5,3,4,1,2,400,250.0,train,0,E-
601.256847382,5,600,0,1,0,5,3,4,1,2,400,250.0,train,5,E-
247.772932053,5,600,0,1,0,5,3,4,1,2,400,250.0,train,5,E-
329.299211502,4,600,2,1,0,5,3,4,1,2,400,250.0,train,4,E-
279.79016304,5,600,0,1,0,5,3,4,1,2,400,250.0,train,5,E-
551.80811882,3,600,3,1,0,5,3,4,1,2,400,250.0,train,3,E-
39.7119522095,3,600,3,1,0,5,3,4,1,2,400,250.0,train,3,E-
825.112104416,1,600,5,0,0,5,3,4,1,2,400,250.0,train,0,E-
921.111822128,4,600,2,1,0,5,3,4,1,2,400,250.0,train,4,E-
1175.95100403,1,600,5,1,0,5,3,4,1,2,400,250.0,train,1,E-
905.148029327,3,600,3,1,0,5,3,4,1,2,400,250.0,train,3,E-
519.834041595,0,600,1,1,0,5,3,4,1,2,400,250.0,train,0,E-
839.730978012,4,600,2,0,0,5,3,4,1,2,400,250.0,train,5,E-
775.949001312,1,600,5,1,0,5,3,4,1,2,400,250.0,train,1,E-
759.988069534,3,600,3,1,0,5,3,4,1,2,400,250.0,train,3,E-
103.941917419,3,600,3,1,0,5,3,4,1,2,400,250.0,train,3,E-
921.329021454,2,600,4,1,0,5,3,4,1,2,400,250.0,train,2,E-
374.439001083,1,600,5,1,0,5,3,4,1,2,400,250.0,train,1,E-
1257.31492043,4,600,2,1,0,5,3,4,1,2,400,250.0,train,4,E-
231.952905655,4,600,2,1,0,5,3,4,1,2,400,250.0,train,4,E-
535.746097565,0,600,1,1,0,5,3,4,1,2,400,250.0,train,0,E-
473.320960999,1,600,5,1,0,5,3,4,1,2,400,250.0,train,1,E-
631.818056107,0,600,1,1,0,5,3,4,1,2,400,250.0,train,0,E-
631.78396225,4,600,2,1,0,5,3,4,1,2,400,250.0,train,4,E-
104.72202301,4,600,2,1,0,5,3,4,1,2,400,250.0,train,4,E-
473.219871521,0,600,1,1,0,5,3,4,1,2,400,250.0,train,0,E-
169.192075729,1,600,5,1,0,5,3,4,1,2,400,250.0,train,1,E-
457.244157791,2,600,4,0,0,5,3,4,1,2,400,250.0,train,1,E-
711.702108383,3,600,3,1,0,5,3,4,1,2,400,250.0,train,3,E-
247.72810936,3,600,3,1,0,5,3,4,1,2,400,250.0,train,3,E-
1865.4460907,3,600,3,1,0,5,3,4,1,2,400,250.0,train,3,E-
903.513908386,3,600,3,1,0,5,3,4,1,2,400,250.0,train,3,E-
39.6289825439,3,600,3,1,0,5,3,4,1,2,400,250.0,train,3,E-
967.834949493,1,600,5,1,0,5,3,4,1,2,400,250.0,train,1,E-
921.277999878,3,600,3,1,0,5,3,4,1,2,400,250.0,train,3,E-
23.7238407135,3,600,3,1,0,5,3,4,1,2,400,250.0,train,3,E-
25.1898765564,3,600,3,1,0,5,3,4,1,2,400,250.0,train,3,E-
1049.22914505,3,600,3,1,0,5,3,4,1,2,400,250.0,train,3,E-
1032.46593475,4,600,2,1,0,5,3,4,1,2,400,250.0,train,4,E-
151.893138885,5,600,0,1,0,5,3,4,1,2,400,250.0,train,5,E-
823.92001152,0,600,1,1,0,5,3,4,1,2,400,250.0,train,0,E-
519.882917404,4,600,2,1,0,5,3,4,1,2,400,250.0,train,4,E-
519.98591423,3,600,3,1,0,5,3,4,1,2,400,250.0,train,3,E-
1143.92781258,1,600,5,1,0,5,3,4,1,2,400,250.0,train,1,E-
711.848020554,4,600,2,1,0,5,3,4,1,2,400,250.0,train,4,E-
281.121015549,5,600,0,1,0,5,3,4,1,2,400,250.0,train,5,E-
519.96088028,3,600,3,1,0,5,3,4,1,2,400,250.0,train,3,E-
599.967002869,0,600,1,1,0,5,3,4,1,2,400,250.0,train,0,E-
583.984136581,5,600,0,1,0,5,3,4,1,2,400,250.0,train,5,E-
776.05509758,5,600,0,1,0,5,3,4,1,2,400,250.0,train,5,E-
487.929821014,0,600,1,1,0,5,3,4,1,2,400,250.0,train,0,E-
249.215126038,2,600,4,0,0,5,3,4,1,2,400,250.0,train,1,E-
167.67001152,2,600,4,1,0,5,3,4,1,2,400,250.0,train,2,E-
487.730979919,0,600,1,1,0,5,3,4,1,2,400,250.0,train,0,E-
471.844911575,4,600,2,0,0,5,3,4,1,2,400,250.0,train,5,E-
199.730873108,5,600,0,1,0,5,3,4,1,2,400,250.0,train,5,E-
343.641996384,4,600,2,1,0,5,3,4,1,2,400,250.0,train,4,E-
504.754066467,1,600,5,0,0,5,3,4,1,2,400,250.0,train,0,E-
1337.25094795,4,600,2,1,0,5,3,4,1,2,400,250.0,train,4,E-
311.84720993,2,600,4,0,0,5,3,4,1,2,400,250.0,train,1,E-
311.677932739,0,600,1,1,0,5,3,4,1,2,400,250.0,train,0,E-
887.658119202,5,600,0,1,0,5,3,4,1,2,400,250.0,train,5,E-
409.348964691,1,600,5,0,0,5,3,4,1,2,400,250.0,train,0,E-
727.728128433,1,600,5,1,0,5,3,4,1,2,400,250.0,train,1,E-
199.916124344,5,600,0,1,0,5,3,4,1,2,400,250.0,train,5,E-
505.281209946,3,600,3,1,0,5,3,4,1,2,400,250.0,train,3,E-
119.856119156,3,600,3,1,0,5,3,4,1,2,400,250.0,train,3,E-
345.246076584,4,600,2,0,0,5,3,4,1,2,400,250.0,train,5,E-
201.213121414,5,600,0,1,0,5,3,4,1,2,400,250.0,train,5,E-
279.647111893,5,600,0,1,0,5,3,4,1,2,400,250.0,train,5,E-
409.054040909,2,600,4,0,0,5,3,4,1,2,400,250.0,train,1,E-
887.892007828,3,600,3,1,0,5,3,4,1,2,400,250.0,train,3,E-
519.859075546,4,600,2,0,0,5,3,4,1,2,400,250.0,train,5,E-
887.845039368,2,600,4,1,0,5,3,4,1,2,400,250.0,train,2,E-
455.906867981,1,600,5,1,0,5,3,4,1,2,400,250.0,train,1,E-
55.9220314026,0,600,1,1,0,5,3,4,1,2,400,250.0,train,0,E-
631.963014603,3,600,3,1,0,5,3,4,1,2,400,250.0,train,3,E-
263.931035995,4,600,2,1,0,5,3,4,1,2,400,250.0,train,4,E-
359.968900681,0,600,1,1,0,5,3,4,1,2,400,250.0,train,0,E-
936.056137085,1,600,5,1,0,5,3,4,1,2,400,250.0,train,1,E-
183.981180191,5,600,0,1,0,5,3,4,1,2,400,250.0,train,5,E-
137.146949768,4,600,2,1,0,5,3,4,1,2,400,250.0,train,4,E-
537.247180939,3,600,3,1,0,5,3,4,1,2,400,250.0,train,3,E-
791.862010956,1,600,5,1,0,5,3,4,1,2,400,250.0,train,1,E-
841.359138489,3,600,3,1,0,5,3,4,1,2,400,250.0,train,3,E-
199.859142303,4,600,2,0,0,5,3,4,1,2,400,250.0,train,5,E-
121.199131012,5,600,0,1,0,5,3,4,1,2,400,250.0,train,5,E-
217.221975327,5,600,0,1,0,5,3,4,1,2,400,250.0,train,5,E-
519.804954529,3,600,3,1,0,5,3,4,1,2,400,250.0,train,3,E-
329.218864441,4,600,2,1,0,5,3,4,1,2,400,250.0,train,4,E-
583.701133728,3,600,3,1,0,5,3,4,1,2,400,250.0,train,3,E-
263.474941254,5,600,0,1,0,5,3,4,1,2,400,250.0,train,5,E-
183.660030365,3,600,3,0,0,5,3,4,1,2,400,250.0,train,4,E-
295.751810074,4,600,2,0,0,5,3,4,1,2,400,250.0,train,5,E-
73.4188556671,5,600,0,1,0,5,3,4,1,2,400,250.0,train,5,E-
295.722007751,4,600,2,1,0,5,3,4,1,2,400,250.0,train,4,E-
599.684000015,0,600,1,1,0,5,3,4,1,2,400,250.0,train,0,E-
312.733888626,5,600,0,1,0,5,3,4,1,2,400,250.0,train,5,E-
263.733148575,4,600,2,0,0,5,3,4,1,2,400,250.0,train,5,E-
935.724973679,2,600,4,0,0,5,3,4,1,2,400,250.0,train,1,E-
887.897014618,1,600,5,1,0,5,3,4,1,2,400,250.0,train,1,E-
167.819976807,1,600,5,1,0,5,3,4,1,2,400,250.0,train,1,E-
23.8029956818,1,600,5,1,0,5,3,4,1,2,400,250.0,train,1,E-
183.877944946,4,600,2,0,0,5,3,4,1,2,400,250.0,train,5,E-
71.7329978943,4,600,2,1,0,5,3,4,1,2,400,250.0,train,4,E-
1031.89396858,2,600,4,1,0,5,3,4,1,2,400,250.0,train,2,E-
295.722007751,5,600,0,1,0,5,3,4,1,2,400,250.0,train,5,E-
951.900005341,5,600,0,1,0,5,3,4,1,2,400,250.0,train,5,E-
679.936170578,2,600,4,1,0,5,3,4,1,2,400,250.0,train,2,E-
167.909145355,2,600,4,1,0,5,3,4,1,2,400,250.0,train,2,E-
615.926980972,4,600,2,0,0,5,3,4,1,2,400,250.0,train,5,E-
487.936973572,0,600,1,1,0,5,3,4,1,2,400,250.0,train,0,E-
551.983833313,1,600,5,1,0,5,3,4,1,2,400,250.0,train,1,E-
488.02113533,4,600,2,1,0,5,3,4,1,2,400,250.0,train,4,E-
569.230079651,2,600,4,1,0,5,3,4,1,2,400,250.0,train,2,E-
391.902923584,5,600,0,1,0,5,3,4,1,2,400,250.0,train,5,E-
615.813016891,1,600,5,1,0,5,3,4,1,2,400,250.0,train,1,E-
663.792133331,4,600,2,0,0,5,3,4,1,2,400,250.0,train,5,E-
281.259775162,5,600,0,1,0,5,3,4,1,2,400,250.0,train,5,E-
393.095016479,0,600,1,1,0,5,3,4,1,2,400,250.0,train,0,E-
969.254970551,4,600,2,1,0,5,3,4,1,2,400,250.0,train,4,E-
281.102895737,0,600,1,1,0,5,3,4,1,2,400,250.0,train,0,E-
39.7698879242,0,600,1,1,0,5,3,4,1,2,400,250.0,train,0,E-
647.802829742,4,600,2,1,0,5,3,4,1,2,400,250.0,train,4,E-
535.703897476,3,600,3,1,0,5,3,4,1,2,400,250.0,train,3,E-
681.458950043,1,600,5,1,0,5,3,4,1,2,400,250.0,train,1,E-
489.385843277,3,600,3,1,0,5,3,4,1,2,400,250.0,train,3,E-
505.340099335,4,600,2,1,0,5,3,4,1,2,400,250.0,train,4,E-
9.30714607239,4,600,2,1,0,5,3,4,1,2,400,250.0,train,4,E-
1449.28121567,1,600,5,1,0,5,3,4,1,2,400,250.0,train,1,E-
312.478780746,0,600,1,1,0,5,3,4,1,2,400,250.0,train,0,E-
313.287973404,2,600,4,0,0,5,3,4,1,2,400,250.0,train,1,E-
375.632047653,5,600,0,1,0,5,3,4,1,2,400,250.0,train,5,E-
617.250919342,3,600,3,1,0,5,3,4,1,2,400,250.0,train,3,E-
311.805009842,5,600,0,1,0,5,3,4,1,2,400,250.0,train,5,E-
343.841075897,4,600,2,1,0,5,3,4,1,2,400,250.0,train,4,E-
617.187976837,3,600,3,1,0,5,3,4,1,2,400,250.0,train,3,E-
135.339975357,5,600,0,1,0,5,3,4,1,2,400,250.0,train,5,E-
73.1449127197,4,600,2,1,0,5,3,4,1,2,400,250.0,train,4,E-
455.893993378,0,600,1,1,0,5,3,4,1,2,400,250.0,train,0,E-
407.850027084,3,600,3,1,0,5,3,4,1,2,400,250.0,train,3,E-
231.937885284,3,600,3,1,0,5,3,4,1,2,400,250.0,train,3,E-
39.8688316345,3,600,3,1,0,5,3,4,1,2,400,250.0,train,3,E-
7.96294212341,3,600,3,1,0,5,3,4,1,2,400,250.0,train,3,E-
215.986013412,4,600,2,1,0,5,3,4,1,2,400,250.0,train,4,E-
1095.94297409,1,600,5,0,0,5,3,4,1,2,400,250.0,train,0,E-
855.986118317,4,600,2,1,0,5,3,4,1,2,400,250.0,train,4,E-
360.033035278,2,600,4,0,0,5,3,4,1,2,400,250.0,train,1,E-
39.736032486,2,600,4,1,0,5,3,4,1,2,400,250.0,train,2,E-
25.3078937531,2,600,4,1,0,5,3,4,1,2,400,250.0,train,2,E-
201.400995255,0,600,1,1,0,5,3,4,1,2,400,250.0,train,0,E-
505.315065384,3,600,3,1,0,5,3,4,1,2,400,250.0,train,3,E-
425.180196762,5,600,0,1,0,5,3,4,1,2,400,250.0,train,5,E-
393.079996109,0,600,1,1,0,5,3,4,1,2,400,250.0,train,0,E-
199.579954147,2,600,4,1,0,5,3,4,1,2,400,250.0,train,2,E-
41.1341190338,2,600,4,1,0,5,3,4,1,2,400,250.0,train,2,E-
55.7200908661,1,600,5,1,0,5,3,4,1,2,400,250.0,train,1,E-
422.619104385,2,600,4,1,0,5,3,4,1,2,400,250.0,train,2,E-
103.633880615,1,600,5,1,0,5,3,4,1,2,400,250.0,train,1,E-
183.701992035,2,600,4,1,0,5,3,4,1,2,400,250.0,train,2,E-
775.660991669,4,600,2,1,0,5,3,4,1,2,400,250.0,train,4,E-
215.372085571,2,600,4,1,0,5,3,4,1,2,400,250.0,train,2,E-
118.557929993,4,600,2,1,0,5,3,4,1,2,400,250.0,train,4,E-
809.30185318,1,600,5,0,0,5,3,4,1,2,400,250.0,train,0,E-
311.715126038,2,600,4,1,0,5,3,4,1,2,400,250.0,train,2,E-
503.736972809,4,600,2,1,0,5,3,4,1,2,400,250.0,train,4,E-
775.625944138,1,600,5,1,0,5,3,4,1,2,400,250.0,train,1,E-
505.05900383,4,600,2,1,0,5,3,4,1,2,400,250.0,train,4,E-
329.233884811,1,600,5,1,0,5,3,4,1,2,400,250.0,train,1,E-
198.69184494,4,600,2,1,0,5,3,4,1,2,400,250.0,train,4,E-
184.559106827,0,600,1,1,0,5,3,4,1,2,400,250.0,train,0,E-
185.226917267,2,600,4,1,0,5,3,4,1,2,400,250.0,train,2,E-
342.811107635,3,600,3,1,0,5,3,4,1,2,400,250.0,train,3,E-
73.2131004333,3,600,3,1,0,5,3,4,1,2,400,250.0,train,3,E-
759.800195694,3,600,3,1,0,5,3,4,1,2,400,250.0,train,3,E-
23.7350463867,3,600,3,1,0,5,3,4,1,2,400,250.0,train,3,E-
281.064987183,4,600,2,1,0,5,3,4,1,2,400,250.0,train,4,E-
1015.72799683,3,1000,1,1,3,5,1,0,4,2,0,250.0,test,3,E-
886.084079742,0,1000,2,1,3,5,1,0,4,2,0,250.0,test,0,E-
521.207094193,0,1000,2,1,3,5,1,0,4,2,0,250.0,test,0,E-
439.867973328,0,1000,2,1,3,5,1,0,4,2,0,250.0,test,0,E-
392.168045044,1,1000,3,1,3,5,1,0,4,2,0,250.0,test,1,E-
488.63697052,1,1000,3,1,3,5,1,0,4,2,0,250.0,test,1,E-
326.220989227,2,1000,4,0,3,5,1,0,4,2,0,250.0,test,1,E-
790.055990219,1,1000,3,1,3,5,1,0,4,2,0,250.0,test,1,E-
902.183055878,5,1000,0,1,3,5,1,0,4,2,0,250.0,test,5,E-
873.277902603,2,1000,4,0,3,5,1,0,4,2,0,250.0,test,1,E-
1238.1529808,3,1000,1,1,3,5,1,0,4,2,0,250.0,test,3,E-
920.036792755,2,1000,4,1,3,5,1,0,4,2,0,250.0,test,2,E-
633.337974548,0,1000,2,1,3,5,1,0,4,2,0,250.0,test,0,E-
503.726959229,0,1000,2,1,3,5,1,0,4,2,0,250.0,test,0,E-
758.647918701,2,1000,4,1,3,5,1,0,4,2,0,250.0,test,2,E-
886.043071747,3,1000,1,1,3,5,1,0,4,2,0,250.0,test,3,E-
742.161035538,2,1000,4,1,3,5,1,0,4,2,0,250.0,test,2,E-
678.099870682,1,1000,3,1,3,5,1,0,4,2,0,250.0,test,1,E-
1079.08415794,4,1000,5,1,3,5,1,0,4,2,0,250.0,test,4,E-
983.083963394,3,1000,1,1,3,5,1,0,4,2,0,250.0,test,3,E-
903.588056564,1,1000,3,1,3,5,1,0,4,2,0,250.0,test,1,E-
662.944078445,5,1000,0,1,3,5,1,0,4,2,0,250.0,test,5,E-
694.77391243,4,1000,5,1,3,5,1,0,4,2,0,250.0,test,4,E-
423.851966858,4,1000,5,1,3,5,1,0,4,2,0,250.0,test,4,E-
455.512046814,4,1000,5,0,3,5,1,0,4,2,0,250.0,test,5,E-
535.94994545,5,1000,0,1,3,5,1,0,4,2,0,250.0,test,5,E-
966.66097641,2,1000,4,1,3,5,1,0,4,2,0,250.0,test,2,E-
807.913064957,4,1000,5,1,3,5,1,0,4,2,0,250.0,test,4,E-
744.599103928,1,1000,3,1,3,5,1,0,4,2,0,250.0,test,1,E-
775.524139404,0,1000,2,1,3,5,1,0,4,2,0,250.0,test,0,E-
391.839027405,0,1000,2,1,3,5,1,0,4,2,0,250.0,test,0,E-
359.81798172,0,1000,2,1,3,5,1,0,4,2,0,250.0,test,0,E-
376.595020294,0,1000,2,1,3,5,1,0,4,2,0,250.0,test,0,E-
1031.87012672,4,1000,5,1,3,5,1,0,4,2,0,250.0,test,4,E-
360.039949417,4,1000,5,1,3,5,1,0,4,2,0,250.0,test,4,E-
551.900863647,0,1000,2,1,3,5,1,0,4,2,0,250.0,test,0,E-
1095.911026,3,1000,1,0,3,5,1,0,4,2,0,250.0,test,2,E-
664.649963379,1,1000,3,1,3,5,1,0,4,2,0,250.0,test,1,E-
1014.12415504,4,1000,5,1,3,5,1,0,4,2,0,250.0,test,4,E-
791.880846024,0,1000,2,1,3,5,1,0,4,2,0,250.0,test,0,E-
583.354949951,2,1000,4,1,3,5,1,0,4,2,0,250.0,test,2,E-
727.862119675,0,1000,2,1,3,5,1,0,4,2,0,250.0,test,0,E-
534.071922302,2,1000,4,1,3,5,1,0,4,2,0,250.0,test,2,E-
454.168081284,1,1000,3,1,3,5,1,0,4,2,0,250.0,test,1,E-
774.105787277,5,1000,0,1,3,5,1,0,4,2,0,250.0,test,5,E-
633.172988892,0,1000,2,1,3,5,1,0,4,2,0,250.0,test,0,E-
678.194046021,2,1000,4,1,3,5,1,0,4,2,0,250.0,test,2,E-
601.171016693,5,1000,0,1,3,5,1,0,4,2,0,250.0,test,5,E-
790.098905563,3,1000,1,1,3,5,1,0,4,2,0,250.0,test,3,E-
966.179132462,3,1000,1,1,3,5,1,0,4,2,0,250.0,test,3,E-
582.937955856,0,1000,2,1,3,5,1,0,4,2,0,250.0,test,0,E-
679.594039917,2,1000,4,1,3,5,1,0,4,2,0,250.0,test,2,E-
646.126031876,3,1000,1,1,3,5,1,0,4,2,0,250.0,test,3,E-
791.770935059,4,1000,5,1,3,5,1,0,4,2,0,250.0,test,4,E-
857.293128967,1,1000,3,1,3,5,1,0,4,2,0,250.0,test,1,E-
551.12695694,5,1000,0,1,3,5,1,0,4,2,0,250.0,test,5,E-
711.636066437,0,1000,2,1,3,5,1,0,4,2,0,250.0,test,0,E-
822.619915009,4,1000,5,1,3,5,1,0,4,2,0,250.0,test,4,E-
519.656181335,0,1000,2,0,3,5,1,0,4,2,0,250.0,test,3,E-
727.621078491,2,1000,4,1,3,5,1,0,4,2,0,250.0,test,2,E-
648.618221283,1,1000,3,1,3,5,1,0,4,2,0,250.0,test,1,E-
567.581176758,2,1000,4,1,3,5,1,0,4,2,0,250.0,test,2,E-
614.347219467,0,1000,2,1,3,5,1,0,4,2,0,250.0,test,0,E-
743.934869766,3,1000,1,1,3,5,1,0,4,2,0,250.0,test,3,E-
742.12884903,2,1000,4,1,3,5,1,0,4,2,0,250.0,test,2,E-
439.899921417,2,1000,4,1,3,5,1,0,4,2,0,250.0,test,2,E-
791.479825974,4,1000,5,1,3,5,1,0,4,2,0,250.0,test,4,E-
647.19414711,3,1000,1,1,3,5,1,0,4,2,0,250.0,test,3,E-
408.634901047,4,1000,5,1,3,5,1,0,4,2,0,250.0,test,4,E-
423.938989639,5,1000,0,1,3,5,1,0,4,2,0,250.0,test,5,E-
568.655014038,0,1000,2,1,3,5,1,0,4,2,0,250.0,test,0,E-
550.25100708,2,1000,4,1,3,5,1,0,4,2,0,250.0,test,2,E-
422.137022018,2,1000,4,1,3,5,1,0,4,2,0,250.0,test,2,E-
505.277872086,0,1000,2,1,3,5,1,0,4,2,0,250.0,test,0,E-
533.618927002,2,1000,4,1,3,5,1,0,4,2,0,250.0,test,2,E-
711.836099625,5,1000,0,1,3,5,1,0,4,2,0,250.0,test,5,E-
1159.9149704,1,1000,3,1,3,5,1,0,4,2,0,250.0,test,1,E-
933.992862701,3,1000,1,1,3,5,1,0,4,2,0,250.0,test,3,E-
473.214149475,3,1000,1,1,3,5,1,0,4,2,0,250.0,test,3,E-
1462.24713326,3,1000,1,0,3,5,1,0,4,2,0,250.0,test,2,E-
616.651058197,1,1000,3,1,3,5,1,0,4,2,0,250.0,test,1,E-
806.11205101,2,1000,4,1,3,5,1,0,4,2,0,250.0,test,2,E-
694.161891937,1,1000,3,1,3,5,1,0,4,2,0,250.0,test,1,E-
582.245111465,1,1000,3,1,3,5,1,0,4,2,0,250.0,test,1,E-
662.107944489,3,1000,1,1,3,5,1,0,4,2,0,250.0,test,3,E-
342.172145844,3,1000,1,1,3,5,1,0,4,2,0,250.0,test,3,E-
361.952066422,3,1000,1,1,3,5,1,0,4,2,0,250.0,test,3,E-
329.331874847,3,1000,1,1,3,5,1,0,4,2,0,250.0,test,3,E-
390.197992325,4,1000,5,0,3,5,1,0,4,2,0,250.0,test,3,E-
694.664955139,5,1000,0,1,3,5,1,0,4,2,0,250.0,test,5,E-
809.372186661,1,1000,3,1,3,5,1,0,4,2,0,250.0,test,1,E-
518.944978714,0,1000,2,0,3,5,1,0,4,2,0,250.0,test,3,E-
503.628969193,5,1000,0,1,3,5,1,0,4,2,0,250.0,test,5,E-
711.961984634,4,1000,5,0,3,5,1,0,4,2,0,250.0,test,5,E-
679.858922958,2,1000,4,1,3,5,1,0,4,2,0,250.0,test,2,E-
598.128080368,2,1000,4,1,3,5,1,0,4,2,0,250.0,test,2,E-
407.810926437,2,1000,4,1,3,5,1,0,4,2,0,250.0,test,2,E-
1015.2130127,3,1000,1,1,3,5,1,0,4,2,0,250.0,test,3,E-
648.077964783,1,1000,3,1,3,5,1,0,4,2,0,250.0,test,1,E-
536.625862122,1,1000,3,1,3,5,1,0,4,2,0,250.0,test,1,E-
647.911071777,2,1000,4,1,3,5,1,0,4,2,0,250.0,test,2,E-
632.128000259,0,1000,2,1,3,5,1,0,4,2,0,250.0,test,0,E-
423.895120621,0,1000,2,1,3,5,1,0,4,2,0,250.0,test,0,E-
423.877000809,0,1000,2,1,3,5,1,0,4,2,0,250.0,test,0,E-
742.187976837,3,1000,1,1,3,5,1,0,4,2,0,250.0,test,3,E-
854.108095169,1,1000,3,1,3,5,1,0,4,2,0,250.0,test,1,E-
1065.36579132,5,1000,0,0,3,5,1,0,4,2,0,250.0,test,3,E-
905.267000198,3,1000,1,1,3,5,1,0,4,2,0,250.0,test,3,E-
470.144987106,4,1000,5,1,3,5,1,0,4,2,0,250.0,test,4,E-
727.253913879,0,1000,2,1,3,5,1,0,4,2,0,250.0,test,0,E-
790.158033371,4,1000,5,1,3,5,1,0,4,2,0,250.0,test,4,E-
678.909778595,0,1000,2,1,3,5,1,0,4,2,0,250.0,test,0,E-
774.13892746,4,1000,5,1,3,5,1,0,4,2,0,250.0,test,4,E-
694.138050079,5,1000,0,1,3,5,1,0,4,2,0,250.0,test,5,E-
677.966117859,1,1000,3,1,3,5,1,0,4,2,0,250.0,test,1,E-
582.189798355,2,1000,4,1,3,5,1,0,4,2,0,250.0,test,2,E-
841.344118118,3,1000,1,1,3,5,1,0,4,2,0,250.0,test,3,E-
630.11097908,4,1000,5,1,3,5,1,0,4,2,0,250.0,test,4,E-
599.15304184,3,1000,1,1,3,5,1,0,4,2,0,250.0,test,3,E-
471.630096436,3,1000,1,1,3,5,1,0,4,2,0,250.0,test,3,E-
807.271003723,0,1000,2,1,3,5,1,0,4,2,0,250.0,test,0,E-
759.536981583,2,1000,4,1,3,5,1,0,4,2,0,250.0,test,2,E-
871.581077576,4,1000,5,1,3,5,1,0,4,2,0,250.0,test,4,E-
503.566980362,4,1000,5,1,3,5,1,0,4,2,0,250.0,test,4,E-
935.00494957,3,1000,1,1,3,5,1,0,4,2,0,250.0,test,3,E-
553.256034851,3,1000,1,1,3,5,1,0,4,2,0,250.0,test,3,E-
983.922958374,2,1000,4,1,3,5,1,0,4,2,0,250.0,test,2,E-
663.800001144,4,1000,5,1,3,5,1,0,4,2,0,250.0,test,4,E-
1079.92696762,2,1000,4,1,3,5,1,0,4,2,0,250.0,test,2,E-
743.402957916,3,1000,1,1,3,5,1,0,4,2,0,250.0,test,3,E-
374.135971069,3,1000,1,1,3,5,1,0,4,2,0,250.0,test,3,E-
647.623062134,5,1000,0,1,3,5,1,0,4,2,0,250.0,test,5,E-
343.662023544,5,1000,0,1,3,5,1,0,4,2,0,250.0,test,5,E-
791.974067688,2,1000,4,1,3,5,1,0,4,2,0,250.0,test,2,E-
599.766016006,1,1000,3,1,3,5,1,0,4,2,0,250.0,test,1,E-
1078.59897614,5,1000,0,1,3,5,1,0,4,2,0,250.0,test,5,E-
1449.2020607,1,1000,3,1,3,5,1,0,4,2,0,250.0,test,1,E-
710.1521492,5,1000,0,1,3,5,1,0,4,2,0,250.0,test,5,E-
664.438009262,3,1000,1,1,3,5,1,0,4,2,0,250.0,test,3,E-
777.312994003,1,1000,3,1,3,5,1,0,4,2,0,250.0,test,1,E-
758.303880692,2,1000,4,1,3,5,1,0,4,2,0,250.0,test,2,E-
949.986219406,4,1000,5,1,3,5,1,0,4,2,0,250.0,test,4,E-
582.1621418,2,1000,4,1,3,5,1,0,4,2,0,250.0,test,2,E-
985.319137573,3,1000,1,1,3,5,1,0,4,2,0,250.0,test,3,E-
390.069007874,3,1000,1,1,3,5,1,0,4,2,0,250.0,test,3,E-
807.085037231,2,1000,4,1,3,5,1,0,4,2,0,250.0,test,2,E-
598.377943039,0,1000,2,1,3,5,1,0,4,2,0,250.0,test,0,E-
1751.79982185,4,1000,5,1,3,5,1,0,4,2,0,250.0,test,4,E-
630.231142044,0,1000,2,1,3,5,1,0,4,2,0,250.0,test,0,E-
502.136945724,0,1000,2,1,3,5,1,0,4,2,0,250.0,test,0,E-
536.511898041,1,1000,3,1,3,5,1,0,4,2,0,250.0,test,1,E-
774.726867676,4,1000,5,1,3,5,1,0,4,2,0,250.0,test,4,E-
1192.71588326,1,1000,3,1,3,5,1,0,4,2,0,250.0,test,1,E-
950.129985809,3,1000,1,1,3,5,1,0,4,2,0,250.0,test,3,E-
774.875879288,5,1000,0,1,3,5,1,0,4,2,0,250.0,test,5,E-
519.654035568,5,1000,0,1,3,5,1,0,4,2,0,250.0,test,5,E-
1079.97083664,1,1000,3,1,3,5,1,0,4,2,0,250.0,test,1,E-
664.609909058,2,1000,4,1,3,5,1,0,4,2,0,250.0,test,2,E-
695.854902267,0,1000,2,1,3,5,1,0,4,2,0,250.0,test,0,E-
534.339904785,0,1000,2,1,3,5,1,0,4,2,0,250.0,test,0,E-
455.806016922,0,1000,2,1,3,5,1,0,4,2,0,250.0,test,0,E-
503.252983093,5,1000,0,1,3,5,1,0,4,2,0,250.0,test,5,E-
871.909141541,2,1000,4,1,3,5,1,0,4,2,0,250.0,test,2,E-
662.140130997,0,1000,2,1,3,5,1,0,4,2,0,250.0,test,0,E-
632.063865662,5,1000,0,1,3,5,1,0,4,2,0,250.0,test,5,E-
375.860929489,5,1000,0,1,3,5,1,0,4,2,0,250.0,test,5,E-
391.798973083,5,1000,0,1,3,5,1,0,4,2,0,250.0,test,5,E-
423.39015007,4,1000,5,1,3,5,1,0,4,2,0,250.0,test,4,E-
391.883850098,4,1000,5,1,3,5,1,0,4,2,0,250.0,test,4,E-
664.833068848,0,1000,2,1,3,5,1,0,4,2,0,250.0,test,0,E-
550.14705658,1,1000,3,1,3,5,1,0,4,2,0,250.0,test,1,E-
678.138017654,4,1000,5,0,3,5,1,0,4,2,0,250.0,test,5,E-
375.534057617,4,1000,5,1,3,5,1,0,4,2,0,250.0,test,4,E-
729.219913483,2,1000,4,1,3,5,1,0,4,2,0,250.0,test,2,E-
756.896018982,3,1000,1,1,3,5,1,0,4,2,0,250.0,test,3,E-
633.261203766,0,1000,2,1,3,5,1,0,4,2,0,250.0,test,0,E-
598.899841309,4,1000,5,1,3,5,1,0,4,2,0,250.0,test,4,E-
342.15092659,4,1000,5,1,3,5,1,0,4,2,0,250.0,test,4,E-
600.623846054,5,1000,0,1,3,5,1,0,4,2,0,250.0,test,5,E-
745.119094849,3,1000,1,1,3,5,1,0,4,2,0,250.0,test,3,E-
726.047039032,1,1000,3,1,3,5,1,0,4,2,0,250.0,test,1,E-
583.830833435,5,1000,0,1,3,5,1,0,4,2,0,250.0,test,5,E-
678.17902565,4,1000,5,1,3,5,1,0,4,2,0,250.0,test,4,E-
582.248926163,4,1000,5,1,3,5,1,0,4,2,0,250.0,test,4,E-
694.2050457,1,1000,3,0,3,5,1,0,4,2,0,250.0,test,2,E-
967.683076859,3,1000,1,1,3,5,1,0,4,2,0,250.0,test,3,E-
585.376977921,0,1000,2,1,3,5,1,0,4,2,0,250.0,test,0,E-
537.227153778,0,1000,2,1,3,5,1,0,4,2,0,250.0,test,0,E-
953.320026398,4,1000,5,1,3,5,1,0,4,2,0,250.0,test,4,E-
775.563001633,3,1000,1,1,3,5,1,0,4,2,0,250.0,test,3,E-
648.725986481,0,1000,2,1,3,5,1,0,4,2,0,250.0,test,0,E-
423.953056335,1,1000,3,1,3,5,1,0,4,2,0,250.0,test,1,E-
822.251796722,5,1000,0,1,3,5,1,0,4,2,0,250.0,test,5,E-
535.832881927,5,1000,0,1,3,5,1,0,4,2,0,250.0,test,5,E-
791.78404808,4,1000,5,1,3,5,1,0,4,2,0,250.0,test,4,E-
999.904155731,3,1000,1,1,3,5,1,0,4,2,0,250.0,test,3,E-
536.034107208,5,1000,0,1,3,5,1,0,4,2,0,250.0,test,5,E-
503.566026688,4,1000,5,1,3,5,1,0,4,2,0,250.0,test,4,E-
391.796827316,3,1000,1,1,3,5,1,0,4,2,0,250.0,test,3,E-
806.21099472,5,1000,0,1,3,5,1,0,4,2,0,250.0,test,5,E-
967.670917511,1,1000,3,1,3,5,1,0,4,2,0,250.0,test,1,E-
503.946065903,4,1000,5,0,3,5,1,0,4,2,0,250.0,test,5,E-
728.642940521,0,1000,2,1,3,5,1,0,4,2,0,250.0,test,0,E-
390.146970749,1,1000,3,1,3,5,1,0,4,2,0,250.0,test,1,E-
872.630834579,3,1000,1,1,3,5,1,0,4,2,0,250.0,test,3,E-
809.311151505,1,1000,3,1,3,5,1,0,4,2,0,250.0,test,1,E-
663.800001144,4,1000,5,1,3,5,1,0,4,2,0,250.0,test,4,E-
644.850969315,0,1000,2,1,3,5,1,0,4,2,0,250.0,test,0,E-
566.118001938,0,1000,2,1,3,5,1,0,4,2,0,250.0,test,0,E-
457.376003265,1,1000,3,1,3,5,1,0,4,2,0,250.0,test,1,E-
424.890995026,1,1000,3,1,3,5,1,0,4,2,0,250.0,test,1,E-
489.009141922,0,1000,2,1,3,5,1,0,4,2,0,250.0,test,0,E-
502.104043961,0,1000,2,1,3,5,1,0,4,2,0,250.0,test,0,E-
1046.18906975,4,1000,5,1,3,5,1,0,4,2,0,250.0,test,4,E-
550.205945969,0,1000,2,1,3,5,1,0,4,2,0,250.0,test,0,E-
517.938137054,5,1000,0,1,3,5,1,0,4,2,0,250.0,test,5,E-
454.085111618,5,1000,0,1,3,5,1,0,4,2,0,250.0,test,5,E-
694.168806076,1,1000,3,1,3,5,1,0,4,2,0,250.0,test,1,E-
838.217020035,3,1000,1,1,3,5,1,0,4,2,0,250.0,test,3,E-
374.144077301,3,1000,1,1,3,5,1,0,4,2,0,250.0,test,3,E-
870.612859726,1,1000,3,1,3,5,1,0,4,2,0,250.0,test,1,E-
470.113992691,1,1000,3,1,3,5,1,0,4,2,0,250.0,test,1,E-
374.202013016,2,1000,4,1,3,5,1,0,4,2,0,250.0,test,2,E-
503.565073013,5,1000,0,1,3,5,1,0,4,2,0,250.0,test,5,E-
791.704893112,3,1000,1,1,3,5,1,0,4,2,0,250.0,test,3,E-
406.080007553,3,1000,1,1,3,5,1,0,4,2,0,250.0,test,3,E-
599.890947342,0,1000,2,1,3,5,1,0,4,2,0,250.0,test,0,E-
487.550973892,1,1000,3,1,3,5,1,0,4,2,0,250.0,test,1,E-
535.938978195,5,1000,0,1,3,5,1,0,4,2,0,250.0,test,5,E-
951.61485672,2,1000,4,1,3,5,1,0,4,2,0,250.0,test,2,E-
376.051902771,2,1000,4,1,3,5,1,0,4,2,0,250.0,test,2,E-
599.745988846,4,1000,5,0,3,5,1,0,4,2,0,250.0,test,5,E-
391.644001007,4,1000,5,1,3,5,1,0,4,2,0,250.0,test,4,E-
632.036924362,2,1000,4,1,3,5,1,0,4,2,0,250.0,test,2,E-
584.014892578,1,1000,3,1,3,5,1,0,4,2,0,250.0,test,1,E-
535.744905472,5,1000,0,1,3,5,1,0,4,2,0,250.0,test,5,E-
471.784830093,5,1000,0,1,3,5,1,0,4,2,0,250.0,test,5,E-
807.97791481,1,1000,3,1,3,5,1,0,4,2,0,250.0,test,1,E-
393.097877502,1,1000,3,1,3,5,1,0,4,2,0,250.0,test,1,E-
615.837812424,5,1000,0,1,3,5,1,0,4,2,0,250.0,test,5,E-
1590.10004997,2,1000,4,1,3,5,1,0,4,2,0,250.0,test,2,E-
855.893135071,4,1000,5,1,3,5,1,0,4,2,0,250.0,test,4,E-
568.720817566,2,1000,4,0,3,5,1,0,4,2,0,250.0,test,1,E-
663.755893707,3,1000,1,1,3,5,1,0,4,2,0,250.0,test,3,E-
502.115011215,3,1000,1,1,3,5,1,0,4,2,0,250.0,test,3,E-
582.052230835,5,1000,0,1,3,5,1,0,4,2,0,250.0,test,5,E-
697.061061859,0,1000,2,1,3,5,1,0,4,2,0,250.0,test,0,E-
1349.94292259,2,1000,4,1,3,5,1,0,4,2,0,250.0,test,2,E-
536.484003067,1,1000,3,1,3,5,1,0,4,2,0,250.0,test,1,E-
807.249069214,4,1000,5,1,3,5,1,0,4,2,0,250.0,test,4,E-
