RT,correct_response,ms-prestimblank,curstim,correct,SRmap_1,SRmap_0,SRmap_3,SRmap_2,SRmap_5,SRmap_4,ms-precue,ntrials,type,response,condition
10990.0639057,2,1000,3,1,1,5,2,0,3,4,0,250.0,train,2,H-
2991.71280861,5,1000,0,1,1,5,2,0,3,4,0,250.0,train,5,H-
1007.58600235,2,1000,3,0,1,5,2,0,3,4,0,250.0,train,1,H-
2287.87112236,5,1000,0,1,1,5,2,0,3,4,0,250.0,train,5,H-
1775.39205551,5,1000,0,1,1,5,2,0,3,4,0,250.0,train,5,H-
1791.43595695,1,1000,1,0,1,5,2,0,3,4,0,250.0,train,0,H-
1104.11000252,1,1000,1,1,1,5,2,0,3,4,0,250.0,train,1,H-
1775.64787865,5,1000,0,1,1,5,2,0,3,4,0,250.0,train,5,H-
1423.817873,5,1000,0,1,1,5,2,0,3,4,0,250.0,train,5,H-
1391.96491241,1,1000,1,0,1,5,2,0,3,4,0,250.0,train,0,H-
1552.08206177,4,1000,4,0,1,5,2,0,3,4,0,250.0,train,5,H-
1375.93603134,5,1000,0,1,1,5,2,0,3,4,0,250.0,train,5,H-
1183.65192413,3,1000,5,1,1,5,2,0,3,4,0,250.0,train,3,H-
895.726919174,3,1000,5,1,1,5,2,0,3,4,0,250.0,train,3,H-
2207.51690865,1,1000,1,1,1,5,2,0,3,4,0,250.0,train,1,H-
1583.89306068,5,1000,0,1,1,5,2,0,3,4,0,250.0,train,5,H-
1535.9108448,0,1000,2,1,1,5,2,0,3,4,0,250.0,train,0,H-
1279.75606918,0,1000,2,1,1,5,2,0,3,4,0,250.0,train,0,H-
1296.04506493,3,1000,5,1,1,5,2,0,3,4,0,250.0,train,3,H-
1408.11991692,5,1000,0,1,1,5,2,0,3,4,0,250.0,train,5,H-
1136.17396355,3,1000,5,1,1,5,2,0,3,4,0,250.0,train,3,H-
1279.93392944,1,1000,1,1,1,5,2,0,3,4,0,250.0,train,1,H-
912.172079086,1,1000,1,1,1,5,2,0,3,4,0,250.0,train,1,H-
2207.99684525,0,1000,2,1,1,5,2,0,3,4,0,250.0,train,0,H-
1600.03495216,2,1000,3,1,1,5,2,0,3,4,0,250.0,train,2,H-
1615.98992348,5,1000,0,1,1,5,2,0,3,4,0,250.0,train,5,H-
943.928003311,2,1000,3,1,1,5,2,0,3,4,0,250.0,train,2,H-
1280.08008003,5,1000,0,1,1,5,2,0,3,4,0,250.0,train,5,H-
2367.82097816,4,1000,4,1,1,5,2,0,3,4,0,250.0,train,4,H-
1104.23803329,2,1000,3,1,1,5,2,0,3,4,0,250.0,train,2,H-
1216.92895889,1,1000,1,1,1,5,2,0,3,4,0,250.0,train,1,H-
608.263015747,0,1000,2,1,1,5,2,0,3,4,0,250.0,train,0,H-
880.318880081,2,1000,3,1,1,5,2,0,3,4,0,250.0,train,2,H-
704.209089279,2,1000,3,1,1,5,2,0,3,4,0,250.0,train,2,H-
960.26301384,5,1000,0,1,1,5,2,0,3,4,0,250.0,train,5,H-
704.1888237,2,1000,3,1,1,5,2,0,3,4,0,250.0,train,2,H-
1087.96191216,1,1000,1,1,1,5,2,0,3,4,0,250.0,train,1,H-
912.131071091,0,1000,2,1,1,5,2,0,3,4,0,250.0,train,0,H-
880.0740242,2,1000,3,1,1,5,2,0,3,4,0,250.0,train,2,H-
1008.19206238,3,1000,5,0,1,5,2,0,3,4,0,250.0,train,4,H-
2623.86989594,1,1000,1,0,1,5,2,0,3,4,0,250.0,train,0,H-
1375.9598732,4,1000,4,1,1,5,2,0,3,4,0,250.0,train,4,H-
544.242143631,4,1000,4,1,1,5,2,0,3,4,0,250.0,train,4,H-
1056.2582016,1,1000,1,1,1,5,2,0,3,4,0,250.0,train,1,H-
944.049119949,0,1000,2,1,1,5,2,0,3,4,0,250.0,train,0,H-
800.266027451,1,1000,1,1,1,5,2,0,3,4,0,250.0,train,1,H-
816.306829453,1,1000,1,1,1,5,2,0,3,4,0,250.0,train,1,H-
736.234903336,0,1000,2,0,1,5,2,0,3,4,0,250.0,train,1,H-
832.02791214,1,1000,1,1,1,5,2,0,3,4,0,250.0,train,1,H-
832.21912384,0,1000,2,1,1,5,2,0,3,4,0,250.0,train,0,H-
1519.72794533,5,1000,0,1,1,5,2,0,3,4,0,250.0,train,5,H-
912.244081497,1,1000,1,0,1,5,2,0,3,4,0,250.0,train,0,H-
688.199996948,1,1000,1,1,1,5,2,0,3,4,0,250.0,train,1,H-
496.093034744,1,1000,1,1,1,5,2,0,3,4,0,250.0,train,1,H-
1152.0960331,3,1000,5,0,1,5,2,0,3,4,0,250.0,train,2,H-
1152.19306946,5,1000,0,1,1,5,2,0,3,4,0,250.0,train,5,H-
944.141149521,0,1000,2,1,1,5,2,0,3,4,0,250.0,train,0,H-
912.098169327,4,1000,4,0,1,5,2,0,3,4,0,250.0,train,5,H-
912.127971649,1,1000,1,1,1,5,2,0,3,4,0,250.0,train,1,H-
1024.10197258,0,1000,2,1,1,5,2,0,3,4,0,250.0,train,0,H-
1647.35913277,4,1000,4,1,1,5,2,0,3,4,0,250.0,train,4,H-
863.808870316,1,1000,1,1,1,5,2,0,3,4,0,250.0,train,1,H-
1312.08109856,3,1000,5,0,1,5,2,0,3,4,0,250.0,train,1,H-
1167.91391373,2,1000,3,1,1,5,2,0,3,4,0,250.0,train,2,H-
656.179189682,2,1000,3,1,1,5,2,0,3,4,0,250.0,train,2,H-
1872.00880051,5,1000,0,1,1,5,2,0,3,4,0,250.0,train,5,H-
1279.66690063,4,1000,4,1,1,5,2,0,3,4,0,250.0,train,4,H-
2639.76287842,5,1000,0,1,1,5,2,0,3,4,0,250.0,train,5,H-
1919.62194443,1,1000,1,0,1,5,2,0,3,4,0,250.0,train,0,H-
528.177022934,0,1000,2,0,1,5,2,0,3,4,0,250.0,train,1,H-
815.679073334,0,1000,2,1,1,5,2,0,3,4,0,250.0,train,0,H-
1120.15008926,4,1000,4,1,1,5,2,0,3,4,0,250.0,train,4,H-
1008.04495811,0,1000,2,1,1,5,2,0,3,4,0,250.0,train,0,H-
1216.14193916,4,1000,4,1,1,5,2,0,3,4,0,250.0,train,4,H-
1328.10091972,5,1000,0,0,1,5,2,0,3,4,0,250.0,train,2,H-
1104.12287712,4,1000,4,1,1,5,2,0,3,4,0,250.0,train,4,H-
976.042985916,3,1000,5,1,1,5,2,0,3,4,0,250.0,train,3,H-
1503.96800041,5,1000,0,1,1,5,2,0,3,4,0,250.0,train,5,H-
800.117969513,2,1000,3,1,1,5,2,0,3,4,0,250.0,train,2,H-
1632.10701942,4,1000,4,1,1,5,2,0,3,4,0,250.0,train,4,H-
1311.97786331,1,1000,1,1,1,5,2,0,3,4,0,250.0,train,1,H-
1615.95392227,5,1000,0,1,1,5,2,0,3,4,0,250.0,train,5,H-
1008.16202164,2,1000,3,1,1,5,2,0,3,4,0,250.0,train,2,H-
1232.13982582,5,1000,0,1,1,5,2,0,3,4,0,250.0,train,5,H-
1152.19306946,2,1000,3,1,1,5,2,0,3,4,0,250.0,train,2,H-
976.093053818,1,1000,1,1,1,5,2,0,3,4,0,250.0,train,1,H-
3023.60987663,0,1000,2,1,1,5,2,0,3,4,0,250.0,train,0,H-
847.949028015,5,1000,0,1,1,5,2,0,3,4,0,250.0,train,5,H-
1568.17293167,1,1000,1,1,1,5,2,0,3,4,0,250.0,train,1,H-
1904.1390419,5,1000,0,1,1,5,2,0,3,4,0,250.0,train,5,H-
912.142038345,2,1000,3,1,1,5,2,0,3,4,0,250.0,train,2,H-
960.210084915,5,1000,0,1,1,5,2,0,3,4,0,250.0,train,5,H-
864.200115204,1,1000,1,1,1,5,2,0,3,4,0,250.0,train,1,H-
720.252990723,1,1000,1,1,1,5,2,0,3,4,0,250.0,train,1,H-
912.185907364,3,1000,5,1,1,5,2,0,3,4,0,250.0,train,3,H-
960.18409729,5,1000,0,1,1,5,2,0,3,4,0,250.0,train,5,H-
704.252004623,5,1000,0,1,1,5,2,0,3,4,0,250.0,train,5,H-
1024.27911758,1,1000,1,1,1,5,2,0,3,4,0,250.0,train,1,H-
800.18901825,2,1000,3,1,1,5,2,0,3,4,0,250.0,train,2,H-
928.500890732,0,1000,2,1,1,5,2,0,3,4,0,250.0,train,0,H-
1135.89382172,2,1000,3,1,1,5,2,0,3,4,0,250.0,train,2,H-
800.132989883,5,1000,0,1,1,5,2,0,3,4,0,250.0,train,5,H-
896.028995514,1,1000,1,1,1,5,2,0,3,4,0,250.0,train,1,H-
800.552845001,0,1000,2,0,1,5,2,0,3,4,0,250.0,train,1,H-
1120.60713768,3,1000,5,1,1,5,2,0,3,4,0,250.0,train,3,H-
1376.45602226,5,1000,0,1,1,5,2,0,3,4,0,250.0,train,5,H-
960.156917572,5,1000,0,1,1,5,2,0,3,4,0,250.0,train,5,H-
832.082986832,1,1000,1,1,1,5,2,0,3,4,0,250.0,train,1,H-
1023.41604233,3,1000,5,1,1,5,2,0,3,4,0,250.0,train,3,H-
304.053068161,1,1000,1,1,1,5,2,0,3,4,0,250.0,train,1,H-
991.877794266,2,1000,3,1,1,5,2,0,3,4,0,250.0,train,2,H-
1071.82812691,2,1000,3,1,1,5,2,0,3,4,0,250.0,train,2,H-
703.581094742,2,1000,3,1,1,5,2,0,3,4,0,250.0,train,2,H-
640.203952789,5,1000,0,1,1,5,2,0,3,4,0,250.0,train,5,H-
592.023849487,2,1000,3,1,1,5,2,0,3,4,0,250.0,train,2,H-
976.519823074,3,1000,5,0,1,5,2,0,3,4,0,250.0,train,4,H-
863.756895065,1,1000,1,0,1,5,2,0,3,4,0,250.0,train,0,H-
784.095048904,0,1000,2,1,1,5,2,0,3,4,0,250.0,train,0,H-
799.823045731,2,1000,3,1,1,5,2,0,3,4,0,250.0,train,2,H-
1535.41898727,5,1000,0,1,1,5,2,0,3,4,0,250.0,train,5,H-
863.795042038,3,1000,5,1,1,5,2,0,3,4,0,250.0,train,3,H-
1023.71287346,0,1000,2,1,1,5,2,0,3,4,0,250.0,train,0,H-
815.912008286,2,1000,3,1,1,5,2,0,3,4,0,250.0,train,2,H-
688.097953796,2,1000,3,1,1,5,2,0,3,4,0,250.0,train,2,H-
464.117050171,2,1000,3,1,1,5,2,0,3,4,0,250.0,train,2,H-
815.735816956,4,1000,4,0,1,5,2,0,3,4,0,250.0,train,5,H-
1232.00106621,1,1000,1,1,1,5,2,0,3,4,0,250.0,train,1,H-
1152.10008621,4,1000,4,1,1,5,2,0,3,4,0,250.0,train,4,H-
1104.24280167,1,1000,1,1,1,5,2,0,3,4,0,250.0,train,1,H-
704.162120819,1,1000,1,1,1,5,2,0,3,4,0,250.0,train,1,H-
432.636022568,1,1000,1,1,1,5,2,0,3,4,0,250.0,train,1,H-
832.536935806,0,1000,2,1,1,5,2,0,3,4,0,250.0,train,0,H-
656.726837158,1,1000,1,1,1,5,2,0,3,4,0,250.0,train,1,H-
1552.4520874,5,1000,0,1,1,5,2,0,3,4,0,250.0,train,5,H-
912.566184998,2,1000,3,1,1,5,2,0,3,4,0,250.0,train,2,H-
640.602111816,2,1000,3,1,1,5,2,0,3,4,0,250.0,train,2,H-
704.524993896,2,1000,3,1,1,5,2,0,3,4,0,250.0,train,2,H-
896.679878235,4,1000,4,1,1,5,2,0,3,4,0,250.0,train,4,H-
816.653013229,3,1000,5,0,1,5,2,0,3,4,0,250.0,train,5,H-
944.499015808,0,1000,2,1,1,5,2,0,3,4,0,250.0,train,0,H-
704.606056213,1,1000,1,1,1,5,2,0,3,4,0,250.0,train,1,H-
944.599151611,4,1000,4,1,1,5,2,0,3,4,0,250.0,train,4,H-
1184.46803093,0,1000,2,1,1,5,2,0,3,4,0,250.0,train,0,H-
752.571821213,1,1000,1,1,1,5,2,0,3,4,0,250.0,train,1,H-
848.649978638,5,1000,0,0,1,5,2,0,3,4,0,250.0,train,2,H-
544.635057449,5,1000,0,1,1,5,2,0,3,4,0,250.0,train,5,H-
1568.42899323,3,1000,5,1,1,5,2,0,3,4,0,250.0,train,3,H-
800.618171692,4,1000,4,1,1,5,2,0,3,4,0,250.0,train,4,H-
928.478002548,0,1000,2,1,1,5,2,0,3,4,0,250.0,train,0,H-
848.632097244,2,1000,3,1,1,5,2,0,3,4,0,250.0,train,2,H-
1264.49799538,5,1000,0,1,1,5,2,0,3,4,0,250.0,train,5,H-
928.647041321,2,1000,3,1,1,5,2,0,3,4,0,250.0,train,2,H-
752.544164658,2,1000,3,1,1,5,2,0,3,4,0,250.0,train,2,H-
720.548152924,0,1000,2,1,1,5,2,0,3,4,0,250.0,train,0,H-
752.616167068,2,1000,3,1,1,5,2,0,3,4,0,250.0,train,2,H-
831.277132034,2,1000,3,1,1,5,2,0,3,4,0,250.0,train,2,H-
848.664045334,5,1000,0,1,1,5,2,0,3,4,0,250.0,train,5,H-
431.820869446,5,1000,0,1,1,5,2,0,3,4,0,250.0,train,5,H-
1056.09607697,3,1000,5,1,1,5,2,0,3,4,0,250.0,train,3,H-
1520.1830864,0,1000,2,1,1,5,2,0,3,4,0,250.0,train,0,H-
1024.00898933,4,1000,4,1,1,5,2,0,3,4,0,250.0,train,4,H-
512.151002884,4,1000,4,1,1,5,2,0,3,4,0,250.0,train,4,H-
1295.92204094,0,1000,2,1,1,5,2,0,3,4,0,250.0,train,0,H-
992.225170135,1,1000,1,1,1,5,2,0,3,4,0,250.0,train,1,H-
528.184890747,1,1000,1,1,1,5,2,0,3,4,0,250.0,train,1,H-
1024.08909798,3,1000,5,1,1,5,2,0,3,4,0,250.0,train,3,H-
880.011796951,3,1000,5,1,1,5,2,0,3,4,0,250.0,train,3,H-
464.211940765,3,1000,5,1,1,5,2,0,3,4,0,250.0,train,3,H-
800.188064575,2,1000,3,1,1,5,2,0,3,4,0,250.0,train,2,H-
911.705970764,5,1000,0,1,1,5,2,0,3,4,0,250.0,train,5,H-
832.225084305,1,1000,1,1,1,5,2,0,3,4,0,250.0,train,1,H-
320.01209259,0,1000,2,0,1,5,2,0,3,4,0,250.0,train,5,H-
720.033884048,1,1000,1,1,1,5,2,0,3,4,0,250.0,train,1,H-
704.174995422,2,1000,3,1,1,5,2,0,3,4,0,250.0,train,2,H-
1391.82209969,0,1000,2,1,1,5,2,0,3,4,0,250.0,train,0,H-
1504.03404236,4,1000,4,1,1,5,2,0,3,4,0,250.0,train,4,H-
992.069005966,4,1000,4,0,1,5,2,0,3,4,0,250.0,train,5,H-
1551.94807053,5,1000,0,1,1,5,2,0,3,4,0,250.0,train,5,H-
896.255970001,5,1000,0,1,1,5,2,0,3,4,0,250.0,train,5,H-
896.31819725,2,1000,3,1,1,5,2,0,3,4,0,250.0,train,2,H-
816.17307663,5,1000,0,1,1,5,2,0,3,4,0,250.0,train,5,H-
864.585876465,3,1000,5,0,1,5,2,0,3,4,0,250.0,train,5,H-
399.845123291,5,1000,0,1,1,5,2,0,3,4,0,250.0,train,5,H-
447.722911835,3,1000,5,0,1,5,2,0,3,4,0,250.0,train,5,H-
463.953971863,2,1000,3,1,1,5,2,0,3,4,0,250.0,train,2,H-
864.04299736,3,1000,5,1,1,5,2,0,3,4,0,250.0,train,3,H-
640.111923218,3,1000,5,1,1,5,2,0,3,4,0,250.0,train,3,H-
447.978973389,3,1000,5,1,1,5,2,0,3,4,0,250.0,train,3,H-
735.724925995,1,1000,1,1,1,5,2,0,3,4,0,250.0,train,1,H-
831.804990768,0,1000,2,1,1,5,2,0,3,4,0,250.0,train,0,H-
688.047885895,1,1000,1,1,1,5,2,0,3,4,0,250.0,train,1,H-
736.315011978,1,1000,1,1,1,5,2,0,3,4,0,250.0,train,1,H-
543.616056442,1,1000,1,1,1,5,2,0,3,4,0,250.0,train,1,H-
768.018007278,5,1000,0,1,1,5,2,0,3,4,0,250.0,train,5,H-
735.821008682,2,1000,3,0,1,5,2,0,3,4,0,250.0,train,3,H-
591.753005981,3,1000,5,1,1,5,2,0,3,4,0,250.0,train,3,H-
1087.81099319,0,1000,2,1,1,5,2,0,3,4,0,250.0,train,0,H-
752.145051956,0,1000,2,1,1,5,2,0,3,4,0,250.0,train,0,H-
1088.30904961,4,1000,4,1,1,5,2,0,3,4,0,250.0,train,4,H-
1024.11007881,1,1000,1,1,1,5,2,0,3,4,0,250.0,train,1,H-
799.763917923,2,1000,3,1,1,5,2,0,3,4,0,250.0,train,2,H-
863.785982132,3,1000,5,1,1,5,2,0,3,4,0,250.0,train,3,H-
848.5891819,0,1000,2,0,1,5,2,0,3,4,0,250.0,train,1,H-
976.26709938,4,1000,4,1,1,5,2,0,3,4,0,250.0,train,4,H-
1008.25810432,4,1000,4,1,1,5,2,0,3,4,0,250.0,train,4,H-
816.145181656,3,1000,5,1,1,5,2,0,3,4,0,250.0,train,3,H-
752.279043198,3,1000,5,1,1,5,2,0,3,4,0,250.0,train,3,H-
671.660900116,4,1000,4,1,1,5,2,0,3,4,0,250.0,train,4,H-
943.799972534,0,1000,2,1,1,5,2,0,3,4,0,250.0,train,0,H-
911.994934082,4,1000,4,0,1,5,2,0,3,4,0,250.0,train,3,H-
655.823945999,4,1000,4,1,1,5,2,0,3,4,0,250.0,train,4,H-
736.102104187,5,1000,0,1,1,5,2,0,3,4,0,250.0,train,5,H-
672.122955322,0,1000,2,1,1,5,2,0,3,4,0,250.0,train,0,H-
480.657815933,0,1000,2,1,1,5,2,0,3,4,0,250.0,train,0,H-
367.785930634,0,1000,2,1,1,5,2,0,3,4,0,250.0,train,0,H-
623.808145523,5,1000,0,1,1,5,2,0,3,4,0,250.0,train,5,H-
1583.64009857,5,1000,0,1,1,5,2,0,3,4,0,250.0,train,5,H-
624.620914459,4,1000,4,1,1,5,2,0,3,4,0,250.0,train,4,H-
1071.83980942,4,1000,4,1,1,5,2,0,3,4,0,250.0,train,4,H-
640.028953552,5,1000,0,1,1,5,2,0,3,4,0,250.0,train,5,H-
527.878046036,5,1000,0,1,1,5,2,0,3,4,0,250.0,train,5,H-
592.226982117,1,1000,1,0,1,5,2,0,3,4,0,250.0,train,0,H-
672.163963318,0,1000,2,1,1,5,2,0,3,4,0,250.0,train,0,H-
639.559030533,5,1000,0,1,1,5,2,0,3,4,0,250.0,train,5,H-
767.885923386,0,1000,2,1,1,5,2,0,3,4,0,250.0,train,0,H-
735.738039017,0,1000,2,1,1,5,2,0,3,4,0,250.0,train,0,H-
1247.94507027,3,1000,5,1,1,5,2,0,3,4,0,250.0,train,3,H-
784.582138062,4,1000,4,1,1,5,2,0,3,4,0,250.0,train,4,H-
1951.61795616,5,1000,0,1,1,5,2,0,3,4,0,250.0,train,5,H-
736.138820648,4,1000,4,1,1,5,2,0,3,4,0,250.0,train,4,H-
992.276906967,1,1000,1,1,1,5,2,0,3,4,0,250.0,train,1,H-
559.638023376,0,1000,2,0,1,5,2,0,3,4,0,250.0,train,1,H-
992.2311306,3,1000,5,1,1,5,2,0,3,4,0,250.0,train,3,H-
624.249219894,3,1000,5,1,1,5,2,0,3,4,0,250.0,train,3,H-
655.749082565,0,1000,2,1,1,5,2,0,3,4,0,250.0,train,0,H-
799.828052521,2,1000,3,1,1,5,2,0,3,4,0,250.0,train,2,H-
1152.63605118,5,1000,0,1,1,5,2,0,3,4,0,250.0,train,5,H-
639.871120453,4,1000,4,1,1,5,2,0,3,4,0,250.0,train,4,H-
752.091169357,5,1000,0,1,1,5,2,0,3,4,0,250.0,train,5,H-
1072.30305672,3,1000,5,1,1,5,2,0,3,4,0,250.0,train,3,H-
544.347047806,3,1000,5,1,1,5,2,0,3,4,0,250.0,train,3,H-
1312.02292442,5,1000,0,1,1,5,2,0,3,4,0,250.0,train,5,H-
912.623167038,0,1000,2,1,1,5,2,0,3,4,0,250.0,train,0,H-
703.553915024,5,1000,0,1,1,5,2,0,3,4,0,250.0,train,5,H-
992.478132248,3,1000,5,1,1,5,2,0,3,4,0,250.0,train,3,H-
543.957948685,5,1000,0,1,1,5,2,0,3,4,0,250.0,train,5,H-
223.794937134,5,1000,0,1,1,5,2,0,3,4,0,250.0,train,5,H-
895.570993423,2,1000,3,1,1,5,2,0,3,4,0,250.0,train,2,H-
975.672960281,1,1000,1,1,1,5,2,0,3,4,0,250.0,train,1,H-
1584.12599564,5,1000,0,1,1,5,2,0,3,4,0,250.0,train,5,H-
1887.84694672,3,1000,1,0,3,4,2,0,1,5,0,250.0,test,2,H-
1343.55092049,5,1000,4,1,3,4,2,0,1,5,0,250.0,test,5,H-
1232.16891289,0,1000,2,1,3,4,2,0,1,5,0,250.0,test,0,H-
1120.11909485,2,1000,3,1,3,4,2,0,1,5,0,250.0,test,2,H-
976.355075836,0,1000,2,1,3,4,2,0,1,5,0,250.0,test,0,H-
848.252058029,0,1000,2,1,3,4,2,0,1,5,0,250.0,test,0,H-
608.116865158,2,1000,3,1,3,4,2,0,1,5,0,250.0,test,2,H-
1120.19896507,5,1000,4,1,3,4,2,0,1,5,0,250.0,test,5,H-
1376.04498863,5,1000,4,1,3,4,2,0,1,5,0,250.0,test,5,H-
800.266981125,5,1000,4,1,3,4,2,0,1,5,0,250.0,test,5,H-
1280.10511398,4,1000,0,1,3,4,2,0,1,5,0,250.0,test,4,H-
752.216815948,2,1000,3,1,3,4,2,0,1,5,0,250.0,test,2,H-
512.006998062,3,1000,1,1,3,4,2,0,1,5,0,250.0,test,3,H-
752.337217331,0,1000,2,1,3,4,2,0,1,5,0,250.0,test,0,H-
1904.08396721,2,1000,3,0,3,4,2,0,1,5,0,250.0,test,1,H-
1232.10597038,1,1000,5,0,3,4,2,0,1,5,0,250.0,test,0,H-
800.222158432,5,1000,4,1,3,4,2,0,1,5,0,250.0,test,5,H-
1200.22416115,3,1000,1,1,3,4,2,0,1,5,0,250.0,test,3,H-
1616.11199379,1,1000,5,1,3,4,2,0,1,5,0,250.0,test,1,H-
1776.19600296,4,1000,0,1,3,4,2,0,1,5,0,250.0,test,4,H-
1199.87392426,1,1000,5,1,3,4,2,0,1,5,0,250.0,test,1,H-
896.108150482,2,1000,3,1,3,4,2,0,1,5,0,250.0,test,2,H-
832.306146622,3,1000,1,1,3,4,2,0,1,5,0,250.0,test,3,H-
544.248104095,3,1000,1,1,3,4,2,0,1,5,0,250.0,test,3,H-
752.169132233,0,1000,2,1,3,4,2,0,1,5,0,250.0,test,0,H-
1248.25882912,2,1000,3,0,3,4,2,0,1,5,0,250.0,test,1,H-
863.7778759,1,1000,5,0,3,4,2,0,1,5,0,250.0,test,0,H-
1119.8220253,3,1000,1,0,3,4,2,0,1,5,0,250.0,test,0,H-
1007.84301758,5,1000,4,1,3,4,2,0,1,5,0,250.0,test,5,H-
1248.19803238,3,1000,1,1,3,4,2,0,1,5,0,250.0,test,3,H-
1312.1650219,1,1000,5,0,3,4,2,0,1,5,0,250.0,test,0,H-
1568.06516647,2,1000,3,1,3,4,2,0,1,5,0,250.0,test,2,H-
335.955142975,5,1000,4,0,3,4,2,0,1,5,0,250.0,test,1,H-
1168.23792458,1,1000,5,1,3,4,2,0,1,5,0,250.0,test,1,H-
1136.23189926,3,1000,1,1,3,4,2,0,1,5,0,250.0,test,3,H-
816.27702713,0,1000,2,1,3,4,2,0,1,5,0,250.0,test,0,H-
784.322023392,3,1000,1,1,3,4,2,0,1,5,0,250.0,test,3,H-
1248.13699722,1,1000,5,1,3,4,2,0,1,5,0,250.0,test,1,H-
800.088882446,2,1000,3,1,3,4,2,0,1,5,0,250.0,test,2,H-
816.267967224,4,1000,0,0,3,4,2,0,1,5,0,250.0,test,5,H-
1056.06889725,3,1000,1,1,3,4,2,0,1,5,0,250.0,test,3,H-
1152.04906464,1,1000,5,1,3,4,2,0,1,5,0,250.0,test,1,H-
1951.8430233,4,1000,0,0,3,4,2,0,1,5,0,250.0,test,5,H-
400.151014328,4,1000,0,1,3,4,2,0,1,5,0,250.0,test,4,H-
592.272043228,4,1000,0,1,3,4,2,0,1,5,0,250.0,test,4,H-
1152.14014053,1,1000,5,1,3,4,2,0,1,5,0,250.0,test,1,H-
656.337022781,4,1000,0,0,3,4,2,0,1,5,0,250.0,test,5,H-
480.176925659,2,1000,3,1,3,4,2,0,1,5,0,250.0,test,2,H-
832.240104675,2,1000,3,1,3,4,2,0,1,5,0,250.0,test,2,H-
1088.38796616,3,1000,1,1,3,4,2,0,1,5,0,250.0,test,3,H-
672.297000885,0,1000,2,1,3,4,2,0,1,5,0,250.0,test,0,H-
736.337184906,2,1000,3,1,3,4,2,0,1,5,0,250.0,test,2,H-
704.179048538,5,1000,4,1,3,4,2,0,1,5,0,250.0,test,5,H-
896.34180069,3,1000,1,1,3,4,2,0,1,5,0,250.0,test,3,H-
864.243030548,2,1000,3,0,3,4,2,0,1,5,0,250.0,test,1,H-
864.238023758,0,1000,2,1,3,4,2,0,1,5,0,250.0,test,0,H-
672.260046005,5,1000,4,1,3,4,2,0,1,5,0,250.0,test,5,H-
864.156961441,0,1000,2,1,3,4,2,0,1,5,0,250.0,test,0,H-
991.883993149,1,1000,5,1,3,4,2,0,1,5,0,250.0,test,1,H-
1024.01900291,3,1000,1,1,3,4,2,0,1,5,0,250.0,test,3,H-
799.853086472,2,1000,3,1,3,4,2,0,1,5,0,250.0,test,2,H-
863.948822021,0,1000,2,1,3,4,2,0,1,5,0,250.0,test,0,H-
575.714111328,0,1000,2,1,3,4,2,0,1,5,0,250.0,test,0,H-
640.274047852,5,1000,4,1,3,4,2,0,1,5,0,250.0,test,5,H-
1024.3229866,4,1000,0,1,3,4,2,0,1,5,0,250.0,test,4,H-
608.141183853,5,1000,4,1,3,4,2,0,1,5,0,250.0,test,5,H-
688.232898712,2,1000,3,1,3,4,2,0,1,5,0,250.0,test,2,H-
624.298095703,2,1000,3,1,3,4,2,0,1,5,0,250.0,test,2,H-
671.985864639,0,1000,2,1,3,4,2,0,1,5,0,250.0,test,0,H-
672.319173813,0,1000,2,1,3,4,2,0,1,5,0,250.0,test,0,H-
736.209869385,2,1000,3,1,3,4,2,0,1,5,0,250.0,test,2,H-
464.285850525,2,1000,3,0,3,4,2,0,1,5,0,250.0,test,0,H-
1408.04600716,4,1000,0,1,3,4,2,0,1,5,0,250.0,test,4,H-
1104.17819023,3,1000,1,1,3,4,2,0,1,5,0,250.0,test,3,H-
671.88501358,5,1000,4,1,3,4,2,0,1,5,0,250.0,test,5,H-
768.223047256,0,1000,2,1,3,4,2,0,1,5,0,250.0,test,0,H-
512.182950974,0,1000,2,1,3,4,2,0,1,5,0,250.0,test,0,H-
816.025972366,4,1000,0,0,3,4,2,0,1,5,0,250.0,test,5,H-
1040.16709328,3,1000,1,0,3,4,2,0,1,5,0,250.0,test,2,H-
1711.94791794,1,1000,5,1,3,4,2,0,1,5,0,250.0,test,1,H-
736.218929291,4,1000,0,0,3,4,2,0,1,5,0,250.0,test,5,H-
752.230882645,3,1000,1,0,3,4,2,0,1,5,0,250.0,test,0,H-
687.610149384,3,1000,1,1,3,4,2,0,1,5,0,250.0,test,3,H-
752.219200134,0,1000,2,1,3,4,2,0,1,5,0,250.0,test,0,H-
864.331007004,4,1000,0,0,3,4,2,0,1,5,0,250.0,test,5,H-
1328.05800438,1,1000,5,0,3,4,2,0,1,5,0,250.0,test,0,H-
672.08814621,1,1000,5,1,3,4,2,0,1,5,0,250.0,test,1,H-
1264.24002647,4,1000,0,1,3,4,2,0,1,5,0,250.0,test,4,H-
848.260879517,5,1000,4,1,3,4,2,0,1,5,0,250.0,test,5,H-
976.17316246,1,1000,5,1,3,4,2,0,1,5,0,250.0,test,1,H-
768.345117569,0,1000,2,1,3,4,2,0,1,5,0,250.0,test,0,H-
800.215005875,3,1000,1,1,3,4,2,0,1,5,0,250.0,test,3,H-
1008.30793381,5,1000,4,0,3,4,2,0,1,5,0,250.0,test,4,H-
944.180011749,2,1000,3,0,3,4,2,0,1,5,0,250.0,test,1,H-
1488.67702484,4,1000,0,1,3,4,2,0,1,5,0,250.0,test,4,H-
960.291147232,4,1000,0,1,3,4,2,0,1,5,0,250.0,test,4,H-
1343.96910667,1,1000,5,1,3,4,2,0,1,5,0,250.0,test,1,H-
784.123897552,0,1000,2,1,3,4,2,0,1,5,0,250.0,test,0,H-
736.202955246,0,1000,2,1,3,4,2,0,1,5,0,250.0,test,0,H-
960.099220276,2,1000,3,1,3,4,2,0,1,5,0,250.0,test,2,H-
1200.17981529,4,1000,0,1,3,4,2,0,1,5,0,250.0,test,4,H-
1088.09685707,2,1000,3,1,3,4,2,0,1,5,0,250.0,test,2,H-
720.266103745,0,1000,2,1,3,4,2,0,1,5,0,250.0,test,0,H-
976.093053818,0,1000,2,1,3,4,2,0,1,5,0,250.0,test,0,H-
1072.17383385,3,1000,1,1,3,4,2,0,1,5,0,250.0,test,3,H-
960.144042969,5,1000,4,1,3,4,2,0,1,5,0,250.0,test,5,H-
32.4010848999,4,1000,0,0,3,4,2,0,1,5,0,250.0,test,5,H-
239.849090576,2,1000,3,0,3,4,2,0,1,5,0,250.0,test,4,H-
1327.53491402,4,1000,0,1,3,4,2,0,1,5,0,250.0,test,4,H-
1087.82601357,1,1000,5,1,3,4,2,0,1,5,0,250.0,test,1,H-
1119.55809593,5,1000,4,1,3,4,2,0,1,5,0,250.0,test,5,H-
975.878953934,2,1000,3,1,3,4,2,0,1,5,0,250.0,test,2,H-
2191.49899483,3,1000,1,1,3,4,2,0,1,5,0,250.0,test,3,H-
1055.81402779,2,1000,3,1,3,4,2,0,1,5,0,250.0,test,2,H-
1152.30989456,4,1000,0,1,3,4,2,0,1,5,0,250.0,test,4,H-
752.216100693,0,1000,2,1,3,4,2,0,1,5,0,250.0,test,0,H-
1168.29681396,1,1000,5,1,3,4,2,0,1,5,0,250.0,test,1,H-
832.132101059,2,1000,3,1,3,4,2,0,1,5,0,250.0,test,2,H-
1104.11906242,1,1000,5,1,3,4,2,0,1,5,0,250.0,test,1,H-
624.258995056,3,1000,1,0,3,4,2,0,1,5,0,250.0,test,0,H-
1136.19995117,1,1000,5,1,3,4,2,0,1,5,0,250.0,test,1,H-
928.003072739,3,1000,1,1,3,4,2,0,1,5,0,250.0,test,3,H-
448.255062103,3,1000,1,1,3,4,2,0,1,5,0,250.0,test,3,H-
1248.28004837,2,1000,3,1,3,4,2,0,1,5,0,250.0,test,2,H-
912.312030792,5,1000,4,1,3,4,2,0,1,5,0,250.0,test,5,H-
768.260002136,0,1000,2,1,3,4,2,0,1,5,0,250.0,test,0,H-
288.26379776,4,1000,0,0,3,4,2,0,1,5,0,250.0,test,0,H-
816.280126572,4,1000,0,1,3,4,2,0,1,5,0,250.0,test,4,H-
736.144065857,5,1000,4,1,3,4,2,0,1,5,0,250.0,test,5,H-
448.345899582,4,1000,0,1,3,4,2,0,1,5,0,250.0,test,4,H-
1152.07982063,2,1000,3,1,3,4,2,0,1,5,0,250.0,test,2,H-
1472.12386131,5,1000,4,1,3,4,2,0,1,5,0,250.0,test,5,H-
1248.13294411,2,1000,3,1,3,4,2,0,1,5,0,250.0,test,2,H-
1104.30598259,1,1000,5,1,3,4,2,0,1,5,0,250.0,test,1,H-
1104.11500931,4,1000,0,1,3,4,2,0,1,5,0,250.0,test,4,H-
2144.01912689,5,1000,4,0,3,4,2,0,1,5,0,250.0,test,4,H-
1008.14199448,1,1000,5,1,3,4,2,0,1,5,0,250.0,test,1,H-
816.210031509,0,1000,2,1,3,4,2,0,1,5,0,250.0,test,0,H-
944.212913513,4,1000,0,1,3,4,2,0,1,5,0,250.0,test,4,H-
816.528081894,0,1000,2,1,3,4,2,0,1,5,0,250.0,test,0,H-
1152.08601952,3,1000,1,1,3,4,2,0,1,5,0,250.0,test,3,H-
896.147012711,5,1000,4,1,3,4,2,0,1,5,0,250.0,test,5,H-
880.116939545,5,1000,4,1,3,4,2,0,1,5,0,250.0,test,5,H-
1007.95602798,2,1000,3,1,3,4,2,0,1,5,0,250.0,test,2,H-
992.20085144,3,1000,1,1,3,4,2,0,1,5,0,250.0,test,3,H-
2048.05588722,5,1000,4,1,3,4,2,0,1,5,0,250.0,test,5,H-
1151.98898315,5,1000,4,1,3,4,2,0,1,5,0,250.0,test,5,H-
384.083986282,5,1000,4,1,3,4,2,0,1,5,0,250.0,test,5,H-
1120.16296387,3,1000,1,1,3,4,2,0,1,5,0,250.0,test,3,H-
624.15099144,5,1000,4,1,3,4,2,0,1,5,0,250.0,test,5,H-
992.223978043,4,1000,0,1,3,4,2,0,1,5,0,250.0,test,4,H-
1072.22414017,2,1000,3,1,3,4,2,0,1,5,0,250.0,test,2,H-
352.298021317,2,1000,3,1,3,4,2,0,1,5,0,250.0,test,2,H-
1296.13113403,3,1000,1,1,3,4,2,0,1,5,0,250.0,test,3,H-
975.987911224,0,1000,2,1,3,4,2,0,1,5,0,250.0,test,0,H-
623.867988586,3,1000,1,1,3,4,2,0,1,5,0,250.0,test,3,H-
400.220870972,3,1000,1,1,3,4,2,0,1,5,0,250.0,test,3,H-
1152.20284462,4,1000,0,1,3,4,2,0,1,5,0,250.0,test,4,H-
1664.11709785,3,1000,1,1,3,4,2,0,1,5,0,250.0,test,3,H-
592.104911804,3,1000,1,1,3,4,2,0,1,5,0,250.0,test,3,H-
960.222959518,1,1000,5,1,3,4,2,0,1,5,0,250.0,test,1,H-
896.188020706,5,1000,4,1,3,4,2,0,1,5,0,250.0,test,5,H-
495.805978775,5,1000,4,1,3,4,2,0,1,5,0,250.0,test,5,H-
1248.1379509,1,1000,5,1,3,4,2,0,1,5,0,250.0,test,1,H-
800.179958344,3,1000,1,1,3,4,2,0,1,5,0,250.0,test,3,H-
992.266893387,4,1000,0,1,3,4,2,0,1,5,0,250.0,test,4,H-
1344.05398369,1,1000,5,1,3,4,2,0,1,5,0,250.0,test,1,H-
752.30884552,0,1000,2,1,3,4,2,0,1,5,0,250.0,test,0,H-
816.954851151,2,1000,3,0,3,4,2,0,1,5,0,250.0,test,1,H-
736.277103424,3,1000,1,0,3,4,2,0,1,5,0,250.0,test,0,H-
911.85092926,4,1000,0,1,3,4,2,0,1,5,0,250.0,test,4,H-
48.2997894287,3,1000,1,0,3,4,2,0,1,5,0,250.0,test,4,H-
704.182863235,0,1000,2,1,3,4,2,0,1,5,0,250.0,test,0,H-
975.728988647,2,1000,3,1,3,4,2,0,1,5,0,250.0,test,2,H-
895.760059357,4,1000,0,1,3,4,2,0,1,5,0,250.0,test,4,H-
784.163951874,2,1000,3,1,3,4,2,0,1,5,0,250.0,test,2,H-
496.176958084,3,1000,1,1,3,4,2,0,1,5,0,250.0,test,3,H-
960.207939148,2,1000,3,0,3,4,2,0,1,5,0,250.0,test,4,H-
991.839885712,5,1000,4,1,3,4,2,0,1,5,0,250.0,test,5,H-
912.214994431,4,1000,0,1,3,4,2,0,1,5,0,250.0,test,4,H-
848.232984543,3,1000,1,1,3,4,2,0,1,5,0,250.0,test,3,H-
752.26187706,5,1000,4,1,3,4,2,0,1,5,0,250.0,test,5,H-
816.177129745,0,1000,2,1,3,4,2,0,1,5,0,250.0,test,0,H-
591.943025589,0,1000,2,1,3,4,2,0,1,5,0,250.0,test,0,H-
128.308057785,2,1000,3,0,3,4,2,0,1,5,0,250.0,test,0,H-
1119.81201172,3,1000,1,1,3,4,2,0,1,5,0,250.0,test,3,H-
752.124071121,2,1000,3,1,3,4,2,0,1,5,0,250.0,test,2,H-
896.189928055,3,1000,1,1,3,4,2,0,1,5,0,250.0,test,3,H-
1184.22698975,1,1000,5,1,3,4,2,0,1,5,0,250.0,test,1,H-
816.060066223,3,1000,1,1,3,4,2,0,1,5,0,250.0,test,3,H-
431.525945663,3,1000,1,1,3,4,2,0,1,5,0,250.0,test,3,H-
447.494029999,0,1000,2,0,3,4,2,0,1,5,0,250.0,test,3,H-
416.152954102,0,1000,2,1,3,4,2,0,1,5,0,250.0,test,0,H-
912.225961685,1,1000,5,0,3,4,2,0,1,5,0,250.0,test,2,H-
751.409053802,2,1000,3,1,3,4,2,0,1,5,0,250.0,test,2,H-
527.747869492,2,1000,3,1,3,4,2,0,1,5,0,250.0,test,2,H-
575.700044632,0,1000,2,1,3,4,2,0,1,5,0,250.0,test,0,H-
880.150794983,5,1000,4,1,3,4,2,0,1,5,0,250.0,test,5,H-
687.604904175,4,1000,0,1,3,4,2,0,1,5,0,250.0,test,4,H-
687.836885452,0,1000,2,1,3,4,2,0,1,5,0,250.0,test,0,H-
783.710002899,4,1000,0,1,3,4,2,0,1,5,0,250.0,test,4,H-
672.557830811,2,1000,3,1,3,4,2,0,1,5,0,250.0,test,2,H-
1199.60594177,1,1000,5,1,3,4,2,0,1,5,0,250.0,test,1,H-
544.559955597,4,1000,0,1,3,4,2,0,1,5,0,250.0,test,4,H-
752.017021179,2,1000,3,1,3,4,2,0,1,5,0,250.0,test,2,H-
800.56810379,4,1000,0,0,3,4,2,0,1,5,0,250.0,test,3,H-
832.561969757,5,1000,4,1,3,4,2,0,1,5,0,250.0,test,5,H-
703.519105911,0,1000,2,1,3,4,2,0,1,5,0,250.0,test,0,H-
735.877037048,0,1000,2,1,3,4,2,0,1,5,0,250.0,test,0,H-
1087.66818047,1,1000,5,1,3,4,2,0,1,5,0,250.0,test,1,H-
911.600828171,2,1000,3,1,3,4,2,0,1,5,0,250.0,test,2,H-
1247.590065,5,1000,4,0,3,4,2,0,1,5,0,250.0,test,4,H-
783.666133881,4,1000,0,1,3,4,2,0,1,5,0,250.0,test,4,H-
560.086011887,4,1000,0,1,3,4,2,0,1,5,0,250.0,test,4,H-
544.08288002,4,1000,0,1,3,4,2,0,1,5,0,250.0,test,4,H-
496.185064316,4,1000,0,1,3,4,2,0,1,5,0,250.0,test,4,H-
960.242033005,0,1000,2,1,3,4,2,0,1,5,0,250.0,test,0,H-
1551.93901062,2,1000,3,1,3,4,2,0,1,5,0,250.0,test,2,H-
128.340005875,3,1000,1,0,3,4,2,0,1,5,0,250.0,test,4,H-
752.645969391,1,1000,5,1,3,4,2,0,1,5,0,250.0,test,1,H-
1327.66795158,4,1000,0,1,3,4,2,0,1,5,0,250.0,test,4,H-
783.550977707,5,1000,4,1,3,4,2,0,1,5,0,250.0,test,5,H-
959.427118301,4,1000,0,1,3,4,2,0,1,5,0,250.0,test,4,H-
736.634969711,0,1000,2,1,3,4,2,0,1,5,0,250.0,test,0,H-
592.088937759,0,1000,2,1,3,4,2,0,1,5,0,250.0,test,0,H-
1152.17399597,3,1000,1,1,3,4,2,0,1,5,0,250.0,test,3,H-
704.169988632,2,1000,3,1,3,4,2,0,1,5,0,250.0,test,2,H-
815.873146057,5,1000,4,1,3,4,2,0,1,5,0,250.0,test,5,H-
719.877004623,5,1000,4,1,3,4,2,0,1,5,0,250.0,test,5,H-
1088.45210075,1,1000,5,1,3,4,2,0,1,5,0,250.0,test,1,H-
672.044992447,1,1000,5,1,3,4,2,0,1,5,0,250.0,test,1,H-
1247.99609184,5,1000,4,0,3,4,2,0,1,5,0,250.0,test,4,H-
816.089868546,4,1000,0,1,3,4,2,0,1,5,0,250.0,test,4,H-
1488.20304871,1,1000,5,0,3,4,2,0,1,5,0,250.0,test,0,H-
864.050149918,1,1000,5,1,3,4,2,0,1,5,0,250.0,test,1,H-
784.203052521,4,1000,0,1,3,4,2,0,1,5,0,250.0,test,4,H-
560.695886612,4,1000,0,1,3,4,2,0,1,5,0,250.0,test,4,H-
720.662117004,0,1000,2,1,3,4,2,0,1,5,0,250.0,test,0,H-
768.663883209,2,1000,3,1,3,4,2,0,1,5,0,250.0,test,2,H-
799.887895584,5,1000,4,1,3,4,2,0,1,5,0,250.0,test,5,H-
783.784151077,4,1000,0,1,3,4,2,0,1,5,0,250.0,test,4,H-
735.365152359,0,1000,2,1,3,4,2,0,1,5,0,250.0,test,0,H-
624.643087387,0,1000,2,1,3,4,2,0,1,5,0,250.0,test,0,H-
496.098041534,0,1000,2,1,3,4,2,0,1,5,0,250.0,test,0,H-
1536.14616394,1,1000,5,0,3,4,2,0,1,5,0,250.0,test,0,H-
815.437793732,1,1000,5,1,3,4,2,0,1,5,0,250.0,test,1,H-
687.800884247,2,1000,3,1,3,4,2,0,1,5,0,250.0,test,2,H-
1071.5470314,5,1000,4,1,3,4,2,0,1,5,0,250.0,test,5,H-
944.267034531,3,1000,1,1,3,4,2,0,1,5,0,250.0,test,3,H-
1280.03501892,2,1000,3,1,3,4,2,0,1,5,0,250.0,test,2,H-
