RT,correct_response,ms-prestimblank,curstim,correct,SRmap_1,SRmap_0,SRmap_3,SRmap_2,SRmap_5,SRmap_4,ms-precue,ntrials,type,response,condition
1014.92404938,2,600,4,1,3,5,0,1,4,2,400,250.0,train,2,E+
423.73418808,5,600,0,1,3,5,0,1,4,2,400,250.0,train,5,E+
151.814222336,0,600,3,1,3,5,0,1,4,2,400,250.0,train,0,E+
296.430110931,3,600,1,1,3,5,0,1,4,2,400,250.0,train,3,E+
71.8069076538,3,600,1,1,3,5,0,1,4,2,400,250.0,train,3,E+
183.7849617,3,600,1,1,3,5,0,1,4,2,400,250.0,train,3,E+
311.798810959,2,600,4,1,3,5,0,1,4,2,400,250.0,train,2,E+
5816.67709351,3,600,1,1,3,5,0,1,4,2,400,250.0,train,3,E+
71.662902832,0,600,3,1,3,5,0,1,4,2,400,250.0,train,0,E+
153.110980988,4,600,5,0,3,5,0,1,4,2,400,250.0,train,3,E+
55.703163147,0,600,3,1,3,5,0,1,4,2,400,250.0,train,0,E+
135.668039322,1,600,2,1,3,5,0,1,4,2,400,250.0,train,1,E+
55.732011795,0,600,3,1,3,5,0,1,4,2,400,250.0,train,0,E+
103.600025177,3,600,1,1,3,5,0,1,4,2,400,250.0,train,3,E+
1351.80902481,3,600,1,1,3,5,0,1,4,2,400,250.0,train,3,E+
23.7829685211,1,600,2,1,3,5,0,1,4,2,400,250.0,train,1,E+
73.0361938477,5,600,0,1,3,5,0,1,4,2,400,250.0,train,5,E+
663.833856583,4,600,5,1,3,5,0,1,4,2,400,250.0,train,4,E+
119.898796082,0,600,3,1,3,5,0,1,4,2,400,250.0,train,0,E+
727.946996689,4,600,5,1,3,5,0,1,4,2,400,250.0,train,4,E+
7.9779624939,0,600,3,1,3,5,0,1,4,2,400,250.0,train,0,E+
87.8801345825,2,600,4,1,3,5,0,1,4,2,400,250.0,train,2,E+
567.728996277,1,600,2,1,3,5,0,1,4,2,400,250.0,train,1,E+
455.714941025,3,600,1,1,3,5,0,1,4,2,400,250.0,train,3,E+
297.158956528,0,600,3,1,3,5,0,1,4,2,400,250.0,train,0,E+
263.715028763,2,600,4,1,3,5,0,1,4,2,400,250.0,train,2,E+
103.640079498,4,600,5,0,3,5,0,1,4,2,400,250.0,train,2,E+
71.7179775238,5,600,0,1,3,5,0,1,4,2,400,250.0,train,5,E+
23.8289833069,0,600,3,1,3,5,0,1,4,2,400,250.0,train,0,E+
711.670875549,3,600,1,1,3,5,0,1,4,2,400,250.0,train,3,E+
183.699846268,4,600,5,1,3,5,0,1,4,2,400,250.0,train,4,E+
57.2819709778,5,600,0,1,3,5,0,1,4,2,400,250.0,train,5,E+
119.647979736,1,600,2,1,3,5,0,1,4,2,400,250.0,train,1,E+
119.700908661,1,600,2,1,3,5,0,1,4,2,400,250.0,train,1,E+
55.6781291962,2,600,4,1,3,5,0,1,4,2,400,250.0,train,2,E+
152.984142303,5,600,0,1,3,5,0,1,4,2,400,250.0,train,5,E+
71.7978477478,5,600,0,1,3,5,0,1,4,2,400,250.0,train,5,E+
55.6609630585,3,600,1,1,3,5,0,1,4,2,400,250.0,train,3,E+
39.7171974182,4,600,5,1,3,5,0,1,4,2,400,250.0,train,4,E+
55.7169914246,5,600,0,1,3,5,0,1,4,2,400,250.0,train,5,E+
119.770050049,2,600,4,1,3,5,0,1,4,2,400,250.0,train,2,E+
103.8210392,0,600,3,1,3,5,0,1,4,2,400,250.0,train,0,E+
103.843927383,5,600,0,0,3,5,0,1,4,2,400,250.0,train,4,E+
55.9101104736,5,600,0,1,3,5,0,1,4,2,400,250.0,train,5,E+
519.794940948,5,600,0,1,3,5,0,1,4,2,400,250.0,train,5,E+
71.8479156494,5,600,0,1,3,5,0,1,4,2,400,250.0,train,5,E+
7.728099823,0,600,3,1,3,5,0,1,4,2,400,250.0,train,0,E+
71.9990730286,1,600,2,1,3,5,0,1,4,2,400,250.0,train,1,E+
23.9369869232,1,600,2,1,3,5,0,1,4,2,400,250.0,train,1,E+
168.320894241,0,600,3,1,3,5,0,1,4,2,400,250.0,train,0,E+
137.144088745,3,600,1,1,3,5,0,1,4,2,400,250.0,train,3,E+
39.8569107056,4,600,5,1,3,5,0,1,4,2,400,250.0,train,4,E+
119.841098785,0,600,3,1,3,5,0,1,4,2,400,250.0,train,0,E+
201.192140579,5,600,0,1,3,5,0,1,4,2,400,250.0,train,5,E+
103.718996048,5,600,0,1,3,5,0,1,4,2,400,250.0,train,5,E+
25.0210762024,1,600,2,1,3,5,0,1,4,2,400,250.0,train,1,E+
41.2468910217,4,600,5,1,3,5,0,1,4,2,400,250.0,train,4,E+
7.76791572571,5,600,0,1,3,5,0,1,4,2,400,250.0,train,5,E+
391.802072525,3,600,1,1,3,5,0,1,4,2,400,250.0,train,3,E+
327.823162079,3,600,1,1,3,5,0,1,4,2,400,250.0,train,3,E+
55.5329322815,1,600,2,1,3,5,0,1,4,2,400,250.0,train,1,E+
263.631105423,5,600,0,1,3,5,0,1,4,2,400,250.0,train,5,E+
231.705904007,3,600,1,1,3,5,0,1,4,2,400,250.0,train,3,E+
71.4588165283,3,600,1,1,3,5,0,1,4,2,400,250.0,train,3,E+
215.646982193,5,600,0,1,3,5,0,1,4,2,400,250.0,train,5,E+
535.740852356,4,600,5,1,3,5,0,1,4,2,400,250.0,train,4,E+
185.323953629,1,600,2,1,3,5,0,1,4,2,400,250.0,train,1,E+
57.2018623352,0,600,3,1,3,5,0,1,4,2,400,250.0,train,0,E+
119.735002518,2,600,4,1,3,5,0,1,4,2,400,250.0,train,2,E+
442.171096802,1,600,2,1,3,5,0,1,4,2,400,250.0,train,1,E+
41.2731170654,1,600,2,1,3,5,0,1,4,2,400,250.0,train,1,E+
247.640132904,5,600,0,1,3,5,0,1,4,2,400,250.0,train,5,E+
87.742805481,3,600,1,1,3,5,0,1,4,2,400,250.0,train,3,E+
7.81202316284,0,600,3,1,3,5,0,1,4,2,400,250.0,train,0,E+
151.679992676,3,600,1,1,3,5,0,1,4,2,400,250.0,train,3,E+
87.7230167389,3,600,1,1,3,5,0,1,4,2,400,250.0,train,3,E+
7.80892372131,3,600,1,1,3,5,0,1,4,2,400,250.0,train,3,E+
551.798820496,0,600,3,1,3,5,0,1,4,2,400,250.0,train,0,E+
375.756025314,0,600,3,1,3,5,0,1,4,2,400,250.0,train,0,E+
87.739944458,0,600,3,1,3,5,0,1,4,2,400,250.0,train,0,E+
55.7980537415,1,600,2,1,3,5,0,1,4,2,400,250.0,train,1,E+
7.79700279236,2,600,4,1,3,5,0,1,4,2,400,250.0,train,2,E+
56.5071105957,5,600,0,0,3,5,0,1,4,2,400,250.0,train,3,E+
71.8920230865,3,600,1,1,3,5,0,1,4,2,400,250.0,train,3,E+
407.784938812,5,600,0,1,3,5,0,1,4,2,400,250.0,train,5,E+
23.4849452972,1,600,2,1,3,5,0,1,4,2,400,250.0,train,1,E+
23.8199234009,4,600,5,1,3,5,0,1,4,2,400,250.0,train,4,E+
39.9520397186,5,600,0,1,3,5,0,1,4,2,400,250.0,train,5,E+
423.903942108,0,600,3,1,3,5,0,1,4,2,400,250.0,train,0,E+
7.98296928406,0,600,3,1,3,5,0,1,4,2,400,250.0,train,0,E+
73.2109546661,3,600,1,0,3,5,0,1,4,2,400,250.0,train,2,E+
569.245100021,1,600,2,1,3,5,0,1,4,2,400,250.0,train,1,E+
377.12597847,0,600,3,1,3,5,0,1,4,2,400,250.0,train,0,E+
8.54682922363,5,600,0,1,3,5,0,1,4,2,400,250.0,train,5,E+
327.548980713,0,600,3,1,3,5,0,1,4,2,400,250.0,train,0,E+
24.4779586792,5,600,0,1,3,5,0,1,4,2,400,250.0,train,5,E+
135.714054108,3,600,1,1,3,5,0,1,4,2,400,250.0,train,3,E+
424.499034882,4,600,5,1,3,5,0,1,4,2,400,250.0,train,4,E+
199.610948563,2,600,4,1,3,5,0,1,4,2,400,250.0,train,2,E+
344.460964203,2,600,4,1,3,5,0,1,4,2,400,250.0,train,2,E+
7.817029953,2,600,4,1,3,5,0,1,4,2,400,250.0,train,2,E+
8.38017463684,1,600,2,1,3,5,0,1,4,2,400,250.0,train,1,E+
183.541059494,5,600,0,1,3,5,0,1,4,2,400,250.0,train,5,E+
377.233028412,0,600,3,1,3,5,0,1,4,2,400,250.0,train,0,E+
25.1460075378,5,600,0,1,3,5,0,1,4,2,400,250.0,train,5,E+
1449.94091988,4,600,5,1,3,5,0,1,4,2,400,250.0,train,4,E+
41.0668849945,3,600,1,0,3,5,0,1,4,2,400,250.0,train,2,E+
23.745059967,5,600,0,1,3,5,0,1,4,2,400,250.0,train,5,E+
56.3790798187,2,600,4,0,3,5,0,1,4,2,400,250.0,train,1,E+
232.769012451,3,600,1,1,3,5,0,1,4,2,400,250.0,train,3,E+
103.797912598,5,600,0,1,3,5,0,1,4,2,400,250.0,train,5,E+
55.8078289032,5,600,0,1,3,5,0,1,4,2,400,250.0,train,5,E+
439.867019653,3,600,1,1,3,5,0,1,4,2,400,250.0,train,3,E+
391.880989075,4,600,5,1,3,5,0,1,4,2,400,250.0,train,4,E+
231.876134872,0,600,3,1,3,5,0,1,4,2,400,250.0,train,0,E+
521.096944809,1,600,2,0,3,5,0,1,4,2,400,250.0,train,3,E+
135.906934738,3,600,1,1,3,5,0,1,4,2,400,250.0,train,3,E+
71.9139575958,2,600,4,1,3,5,0,1,4,2,400,250.0,train,2,E+
727.854967117,1,600,2,1,3,5,0,1,4,2,400,250.0,train,1,E+
119.958877563,5,600,0,1,3,5,0,1,4,2,400,250.0,train,5,E+
887.953996658,1,600,2,1,3,5,0,1,4,2,400,250.0,train,1,E+
503.925085068,2,600,4,1,3,5,0,1,4,2,400,250.0,train,2,E+
327.950954437,3,600,1,1,3,5,0,1,4,2,400,250.0,train,3,E+
71.8820095062,3,600,1,1,3,5,0,1,4,2,400,250.0,train,3,E+
215.794801712,2,600,4,0,3,5,0,1,4,2,400,250.0,train,1,E+
7.81893730164,5,600,0,1,3,5,0,1,4,2,400,250.0,train,5,E+
72.5061893463,0,600,3,1,3,5,0,1,4,2,400,250.0,train,0,E+
249.071121216,3,600,1,1,3,5,0,1,4,2,400,250.0,train,3,E+
136.603116989,4,600,5,1,3,5,0,1,4,2,400,250.0,train,4,E+
201.098918915,5,600,0,1,3,5,0,1,4,2,400,250.0,train,5,E+
151.790857315,3,600,1,1,3,5,0,1,4,2,400,250.0,train,3,E+
54.4769763947,4,600,5,1,3,5,0,1,4,2,400,250.0,train,4,E+
103.639125824,0,600,3,1,3,5,0,1,4,2,400,250.0,train,0,E+
7.70807266235,2,600,4,0,3,5,0,1,4,2,400,250.0,train,4,E+
23.6520767212,0,600,3,1,3,5,0,1,4,2,400,250.0,train,0,E+
57.4021339417,3,600,1,0,3,5,0,1,4,2,400,250.0,train,2,E+
55.557012558,1,600,2,1,3,5,0,1,4,2,400,250.0,train,1,E+
151.654958725,2,600,4,1,3,5,0,1,4,2,400,250.0,train,2,E+
57.1961402893,5,600,0,1,3,5,0,1,4,2,400,250.0,train,5,E+
89.1239643097,5,600,0,1,3,5,0,1,4,2,400,250.0,train,5,E+
247.52497673,1,600,2,1,3,5,0,1,4,2,400,250.0,train,1,E+
151.660919189,4,600,5,1,3,5,0,1,4,2,400,250.0,train,4,E+
120.419979095,1,600,2,1,3,5,0,1,4,2,400,250.0,train,1,E+
71.7489719391,1,600,2,1,3,5,0,1,4,2,400,250.0,train,1,E+
183.601856232,1,600,2,1,3,5,0,1,4,2,400,250.0,train,1,E+
199.748039246,1,600,2,1,3,5,0,1,4,2,400,250.0,train,1,E+
71.7799663544,2,600,4,0,3,5,0,1,4,2,400,250.0,train,4,E+
249.101877213,5,600,0,1,3,5,0,1,4,2,400,250.0,train,5,E+
327.847957611,3,600,1,1,3,5,0,1,4,2,400,250.0,train,3,E+
248.50487709,2,600,4,1,3,5,0,1,4,2,400,250.0,train,2,E+
103.821992874,0,600,3,1,3,5,0,1,4,2,400,250.0,train,0,E+
7.83610343933,2,600,4,1,3,5,0,1,4,2,400,250.0,train,2,E+
39.8418903351,2,600,4,1,3,5,0,1,4,2,400,250.0,train,2,E+
7.94386863708,5,600,0,0,3,5,0,1,4,2,400,250.0,train,2,E+
39.9329662323,5,600,0,1,3,5,0,1,4,2,400,250.0,train,5,E+
87.8598690033,3,600,1,0,3,5,0,1,4,2,400,250.0,train,2,E+
7.88378715515,0,600,3,1,3,5,0,1,4,2,400,250.0,train,0,E+
25.1519680023,2,600,4,0,3,5,0,1,4,2,400,250.0,train,1,E+
7.92503356934,1,600,2,1,3,5,0,1,4,2,400,250.0,train,1,E+
23.7159729004,1,600,2,1,3,5,0,1,4,2,400,250.0,train,1,E+
89.2550945282,3,600,1,1,3,5,0,1,4,2,400,250.0,train,3,E+
23.6649513245,0,600,3,1,3,5,0,1,4,2,400,250.0,train,0,E+
23.6830711365,1,600,2,1,3,5,0,1,4,2,400,250.0,train,1,E+
105.135917664,4,600,5,0,3,5,0,1,4,2,400,250.0,train,3,E+
24.4541168213,3,600,1,1,3,5,0,1,4,2,400,250.0,train,3,E+
231.67014122,3,600,1,1,3,5,0,1,4,2,400,250.0,train,3,E+
23.6749649048,5,600,0,1,3,5,0,1,4,2,400,250.0,train,5,E+
55.7990074158,5,600,0,1,3,5,0,1,4,2,400,250.0,train,5,E+
295.711040497,2,600,4,1,3,5,0,1,4,2,400,250.0,train,2,E+
103.660106659,3,600,1,1,3,5,0,1,4,2,400,250.0,train,3,E+
374.578952789,3,600,1,1,3,5,0,1,4,2,400,250.0,train,3,E+
456.456184387,0,600,3,1,3,5,0,1,4,2,400,250.0,train,0,E+
313.301086426,0,600,3,1,3,5,0,1,4,2,400,250.0,train,0,E+
152.201890945,1,600,2,1,3,5,0,1,4,2,400,250.0,train,1,E+
55.6819438934,1,600,2,1,3,5,0,1,4,2,400,250.0,train,1,E+
24.5440006256,5,600,0,1,3,5,0,1,4,2,400,250.0,train,5,E+
41.3119792938,3,600,1,0,3,5,0,1,4,2,400,250.0,train,2,E+
70.643901825,4,600,5,1,3,5,0,1,4,2,400,250.0,train,4,E+
87.7101421356,4,600,5,1,3,5,0,1,4,2,400,250.0,train,4,E+
103.741884232,1,600,2,1,3,5,0,1,4,2,400,250.0,train,1,E+
312.93296814,1,600,2,1,3,5,0,1,4,2,400,250.0,train,1,E+
23.6451625824,1,600,2,1,3,5,0,1,4,2,400,250.0,train,1,E+
39.5510196686,0,600,3,1,3,5,0,1,4,2,400,250.0,train,0,E+
167.932033539,5,600,0,1,3,5,0,1,4,2,400,250.0,train,5,E+
39.8621559143,0,600,3,1,3,5,0,1,4,2,400,250.0,train,0,E+
72.4129676819,4,600,5,1,3,5,0,1,4,2,400,250.0,train,4,E+
151.829957962,5,600,0,1,3,5,0,1,4,2,400,250.0,train,5,E+
103.793859482,1,600,2,1,3,5,0,1,4,2,400,250.0,train,1,E+
135.892152786,0,600,3,0,3,5,0,1,4,2,400,250.0,train,3,E+
327.883958817,0,600,3,1,3,5,0,1,4,2,400,250.0,train,0,E+
71.9130039215,4,600,5,1,3,5,0,1,4,2,400,250.0,train,4,E+
8.01301002502,0,600,3,1,3,5,0,1,4,2,400,250.0,train,0,E+
55.9220314026,1,600,2,1,3,5,0,1,4,2,400,250.0,train,1,E+
151.863098145,5,600,0,1,3,5,0,1,4,2,400,250.0,train,5,E+
393.23091507,1,600,2,1,3,5,0,1,4,2,400,250.0,train,1,E+
41.1419868469,1,600,2,1,3,5,0,1,4,2,400,250.0,train,1,E+
8.53610038757,5,600,0,1,3,5,0,1,4,2,400,250.0,train,5,E+
297.173976898,5,600,0,1,3,5,0,1,4,2,400,250.0,train,5,E+
23.7939357758,1,600,2,1,3,5,0,1,4,2,400,250.0,train,1,E+
39.7078990936,4,600,5,1,3,5,0,1,4,2,400,250.0,train,4,E+
327.692985535,1,600,2,1,3,5,0,1,4,2,400,250.0,train,1,E+
25.130033493,5,600,0,1,3,5,0,1,4,2,400,250.0,train,5,E+
311.640977859,4,600,5,1,3,5,0,1,4,2,400,250.0,train,4,E+
263.681173325,2,600,4,1,3,5,0,1,4,2,400,250.0,train,2,E+
56.5569400787,1,600,2,1,3,5,0,1,4,2,400,250.0,train,1,E+
87.653875351,4,600,5,1,3,5,0,1,4,2,400,250.0,train,4,E+
121.331930161,5,600,0,1,3,5,0,1,4,2,400,250.0,train,5,E+
119.674921036,1,600,2,1,3,5,0,1,4,2,400,250.0,train,1,E+
135.554075241,4,600,5,1,3,5,0,1,4,2,400,250.0,train,4,E+
137.397050858,2,600,4,1,3,5,0,1,4,2,400,250.0,train,2,E+
55.6039810181,4,600,5,1,3,5,0,1,4,2,400,250.0,train,4,E+
103.698968887,3,600,1,0,3,5,0,1,4,2,400,250.0,train,2,E+
135.677099228,3,600,1,1,3,5,0,1,4,2,400,250.0,train,3,E+
247.649908066,3,600,1,1,3,5,0,1,4,2,400,250.0,train,3,E+
56.3659667969,3,600,1,1,3,5,0,1,4,2,400,250.0,train,3,E+
391.613006592,1,600,2,1,3,5,0,1,4,2,400,250.0,train,1,E+
24.4739055634,4,600,5,1,3,5,0,1,4,2,400,250.0,train,4,E+
55.7360649109,2,600,4,0,3,5,0,1,4,2,400,250.0,train,4,E+
121.119976044,2,600,4,1,3,5,0,1,4,2,400,250.0,train,2,E+
40.6289100647,2,600,4,1,3,5,0,1,4,2,400,250.0,train,2,E+
55.8938980103,5,600,0,1,3,5,0,1,4,2,400,250.0,train,5,E+
23.8709449768,5,600,0,1,3,5,0,1,4,2,400,250.0,train,5,E+
343.721866608,5,600,0,1,3,5,0,1,4,2,400,250.0,train,5,E+
23.9040851593,4,600,5,1,3,5,0,1,4,2,400,250.0,train,4,E+
407.768011093,2,600,4,1,3,5,0,1,4,2,400,250.0,train,2,E+
7.90309906006,5,600,0,1,3,5,0,1,4,2,400,250.0,train,5,E+
71.8419551849,5,600,0,1,3,5,0,1,4,2,400,250.0,train,5,E+
359.829187393,1,600,2,1,3,5,0,1,4,2,400,250.0,train,1,E+
55.9320449829,5,600,0,1,3,5,0,1,4,2,400,250.0,train,5,E+
88.5310173035,0,600,3,1,3,5,0,1,4,2,400,250.0,train,0,E+
55.9520721436,3,600,1,0,3,5,0,1,4,2,400,250.0,train,2,E+
120.036125183,3,600,1,1,3,5,0,1,4,2,400,250.0,train,3,E+
326.689958572,5,600,0,1,3,5,0,1,4,2,400,250.0,train,5,E+
153.218984604,1,600,2,0,3,5,0,1,4,2,400,250.0,train,3,E+
104.604959488,4,600,5,0,3,5,0,1,4,2,400,250.0,train,3,E+
121.248006821,4,600,5,1,3,5,0,1,4,2,400,250.0,train,4,E+
137.072086334,2,600,4,1,3,5,0,1,4,2,400,250.0,train,2,E+
120.479822159,5,600,0,1,3,5,0,1,4,2,400,250.0,train,5,E+
135.546922684,5,600,0,1,3,5,0,1,4,2,400,250.0,train,5,E+
167.737960815,4,600,5,1,3,5,0,1,4,2,400,250.0,train,4,E+
167.702913284,2,600,4,1,3,5,0,1,4,2,400,250.0,train,2,E+
87.6400470734,4,600,5,1,3,5,0,1,4,2,400,250.0,train,4,E+
55.722951889,5,600,0,1,3,5,0,1,4,2,400,250.0,train,5,E+
103.682994843,2,600,4,1,3,5,0,1,4,2,400,250.0,train,2,E+
23.7879753113,0,600,3,1,3,5,0,1,4,2,400,250.0,train,0,E+
135.638952255,3,600,1,1,3,5,0,1,4,2,400,250.0,train,3,E+
57.2340488434,0,600,3,1,3,5,0,1,4,2,400,250.0,train,0,E+
87.6619815826,2,600,4,1,3,5,0,1,4,2,400,250.0,train,2,E+
57.1520328522,3,600,1,1,3,5,0,1,4,2,400,250.0,train,3,E+
57.1699142456,5,600,0,1,3,5,0,1,4,2,400,250.0,train,5,E+
1591.75992012,0,1000,3,1,3,5,0,1,4,2,0,250.0,test,0,E+
503.712892532,3,1000,1,1,3,5,0,1,4,2,0,250.0,test,3,E+
423.111915588,1,1000,2,1,3,5,0,1,4,2,0,250.0,test,1,E+
455.806016922,5,1000,0,1,3,5,0,1,4,2,0,250.0,test,5,E+
518.130064011,4,1000,5,1,3,5,0,1,4,2,0,250.0,test,4,E+
471.832036972,3,1000,1,1,3,5,0,1,4,2,0,250.0,test,3,E+
310.099840164,4,1000,5,1,3,5,0,1,4,2,0,250.0,test,4,E+
342.099189758,3,1000,1,0,3,5,0,1,4,2,0,250.0,test,4,E+
472.795009613,0,1000,3,1,3,5,0,1,4,2,0,250.0,test,0,E+
535.862922668,3,1000,1,0,3,5,0,1,4,2,0,250.0,test,2,E+
470.108032227,4,1000,5,1,3,5,0,1,4,2,0,250.0,test,4,E+
566.065073013,2,1000,4,1,3,5,0,1,4,2,0,250.0,test,2,E+
598.881006241,2,1000,4,1,3,5,0,1,4,2,0,250.0,test,2,E+
422.044992447,0,1000,3,1,3,5,0,1,4,2,0,250.0,test,0,E+
504.791975021,2,1000,4,1,3,5,0,1,4,2,0,250.0,test,2,E+
454.0579319,1,1000,2,1,3,5,0,1,4,2,0,250.0,test,1,E+
552.530050278,3,1000,1,1,3,5,0,1,4,2,0,250.0,test,3,E+
405.987024307,3,1000,1,1,3,5,0,1,4,2,0,250.0,test,3,E+
390.1720047,0,1000,3,1,3,5,0,1,4,2,0,250.0,test,0,E+
582.24606514,4,1000,5,1,3,5,0,1,4,2,0,250.0,test,4,E+
454.035043716,1,1000,2,1,3,5,0,1,4,2,0,250.0,test,1,E+
489.15886879,3,1000,1,1,3,5,0,1,4,2,0,250.0,test,3,E+
550.107002258,5,1000,0,1,3,5,0,1,4,2,0,250.0,test,5,E+
436.854124069,2,1000,4,1,3,5,0,1,4,2,0,250.0,test,2,E+
454.1451931,5,1000,0,1,3,5,0,1,4,2,0,250.0,test,5,E+
358.995914459,4,1000,5,1,3,5,0,1,4,2,0,250.0,test,4,E+
406.123876572,4,1000,5,1,3,5,0,1,4,2,0,250.0,test,4,E+
391.005992889,4,1000,5,1,3,5,0,1,4,2,0,250.0,test,4,E+
375.53691864,0,1000,3,1,3,5,0,1,4,2,0,250.0,test,0,E+
456.44402504,3,1000,1,1,3,5,0,1,4,2,0,250.0,test,3,E+
374.181985855,5,1000,0,1,3,5,0,1,4,2,0,250.0,test,5,E+
503.041982651,2,1000,4,1,3,5,0,1,4,2,0,250.0,test,2,E+
279.46305275,4,1000,5,1,3,5,0,1,4,2,0,250.0,test,4,E+
391.126155853,5,1000,0,1,3,5,0,1,4,2,0,250.0,test,5,E+
407.783031464,5,1000,0,1,3,5,0,1,4,2,0,250.0,test,5,E+
376.075029373,4,1000,5,1,3,5,0,1,4,2,0,250.0,test,4,E+
423.918008804,0,1000,3,1,3,5,0,1,4,2,0,250.0,test,0,E+
487.08319664,2,1000,4,1,3,5,0,1,4,2,0,250.0,test,2,E+
422.095060349,5,1000,0,1,3,5,0,1,4,2,0,250.0,test,5,E+
390.033006668,4,1000,5,1,3,5,0,1,4,2,0,250.0,test,4,E+
551.771879196,2,1000,4,1,3,5,0,1,4,2,0,250.0,test,2,E+
487.367868423,1,1000,2,1,3,5,0,1,4,2,0,250.0,test,1,E+
391.563177109,4,1000,5,1,3,5,0,1,4,2,0,250.0,test,4,E+
615.123033524,0,1000,3,1,3,5,0,1,4,2,0,250.0,test,0,E+
391.772985458,0,1000,3,0,3,5,0,1,4,2,0,250.0,test,1,E+
551.735877991,1,1000,2,1,3,5,0,1,4,2,0,250.0,test,1,E+
343.921899796,4,1000,5,1,3,5,0,1,4,2,0,250.0,test,4,E+
503.854036331,2,1000,4,1,3,5,0,1,4,2,0,250.0,test,2,E+
582.185983658,3,1000,1,1,3,5,0,1,4,2,0,250.0,test,3,E+
486.258029938,3,1000,1,1,3,5,0,1,4,2,0,250.0,test,3,E+
422.106981277,5,1000,0,1,3,5,0,1,4,2,0,250.0,test,5,E+
374.260902405,1,1000,2,1,3,5,0,1,4,2,0,250.0,test,1,E+
407.866954803,3,1000,1,1,3,5,0,1,4,2,0,250.0,test,3,E+
374.05705452,0,1000,3,0,3,5,0,1,4,2,0,250.0,test,1,E+
438.047885895,1,1000,2,1,3,5,0,1,4,2,0,250.0,test,1,E+
391.326189041,1,1000,2,0,3,5,0,1,4,2,0,250.0,test,0,E+
390.131950378,0,1000,3,1,3,5,0,1,4,2,0,250.0,test,0,E+
328.411817551,0,1000,3,0,3,5,0,1,4,2,0,250.0,test,1,E+
406.926870346,3,1000,1,1,3,5,0,1,4,2,0,250.0,test,3,E+
566.118001938,2,1000,4,1,3,5,0,1,4,2,0,250.0,test,2,E+
518.24593544,3,1000,1,1,3,5,0,1,4,2,0,250.0,test,3,E+
423.778057098,4,1000,5,0,3,5,0,1,4,2,0,250.0,test,3,E+
310.065031052,4,1000,5,1,3,5,0,1,4,2,0,250.0,test,4,E+
390.205144882,0,1000,3,1,3,5,0,1,4,2,0,250.0,test,0,E+
406.286001205,1,1000,2,0,3,5,0,1,4,2,0,250.0,test,0,E+
486.642122269,3,1000,1,1,3,5,0,1,4,2,0,250.0,test,3,E+
455.577850342,3,1000,1,1,3,5,0,1,4,2,0,250.0,test,3,E+
422.680139542,4,1000,5,1,3,5,0,1,4,2,0,250.0,test,4,E+
358.258008957,4,1000,5,1,3,5,0,1,4,2,0,250.0,test,4,E+
488.298892975,3,1000,1,1,3,5,0,1,4,2,0,250.0,test,3,E+
359.885931015,1,1000,2,0,3,5,0,1,4,2,0,250.0,test,2,E+
471.899986267,2,1000,4,0,3,5,0,1,4,2,0,250.0,test,4,E+
423.738956451,1,1000,2,1,3,5,0,1,4,2,0,250.0,test,1,E+
566.127061844,5,1000,0,1,3,5,0,1,4,2,0,250.0,test,5,E+
775.177955627,1,1000,2,1,3,5,0,1,4,2,0,250.0,test,1,E+
536.375999451,2,1000,4,1,3,5,0,1,4,2,0,250.0,test,2,E+
407.900094986,1,1000,2,1,3,5,0,1,4,2,0,250.0,test,1,E+
598.285198212,3,1000,1,0,3,5,0,1,4,2,0,250.0,test,2,E+
487.142086029,5,1000,0,1,3,5,0,1,4,2,0,250.0,test,5,E+
518.213033676,5,1000,0,1,3,5,0,1,4,2,0,250.0,test,5,E+
488.40880394,0,1000,3,1,3,5,0,1,4,2,0,250.0,test,0,E+
503.895998001,4,1000,5,1,3,5,0,1,4,2,0,250.0,test,4,E+
519.619941711,3,1000,1,1,3,5,0,1,4,2,0,250.0,test,3,E+
422.043085098,0,1000,3,1,3,5,0,1,4,2,0,250.0,test,0,E+
712.543964386,3,1000,1,1,3,5,0,1,4,2,0,250.0,test,3,E+
438.098907471,2,1000,4,1,3,5,0,1,4,2,0,250.0,test,2,E+
423.373937607,5,1000,0,1,3,5,0,1,4,2,0,250.0,test,5,E+
423.372983932,0,1000,3,1,3,5,0,1,4,2,0,250.0,test,0,E+
470.206975937,5,1000,0,1,3,5,0,1,4,2,0,250.0,test,5,E+
470.025062561,1,1000,2,1,3,5,0,1,4,2,0,250.0,test,1,E+
502.133131027,2,1000,4,1,3,5,0,1,4,2,0,250.0,test,2,E+
406.080007553,0,1000,3,1,3,5,0,1,4,2,0,250.0,test,0,E+
374.920845032,4,1000,5,1,3,5,0,1,4,2,0,250.0,test,4,E+
457.770109177,1,1000,2,1,3,5,0,1,4,2,0,250.0,test,1,E+
438.943862915,4,1000,5,1,3,5,0,1,4,2,0,250.0,test,4,E+
406.070947647,0,1000,3,1,3,5,0,1,4,2,0,250.0,test,0,E+
422.800064087,4,1000,5,1,3,5,0,1,4,2,0,250.0,test,4,E+
519.786119461,4,1000,5,1,3,5,0,1,4,2,0,250.0,test,4,E+
631.727933884,2,1000,4,0,3,5,0,1,4,2,0,250.0,test,1,E+
454.809188843,5,1000,0,1,3,5,0,1,4,2,0,250.0,test,5,E+
439.841032028,0,1000,3,1,3,5,0,1,4,2,0,250.0,test,0,E+
727.097988129,1,1000,2,1,3,5,0,1,4,2,0,250.0,test,1,E+
406.929969788,0,1000,3,1,3,5,0,1,4,2,0,250.0,test,0,E+
503.960132599,3,1000,1,0,3,5,0,1,4,2,0,250.0,test,2,E+
452.862024307,1,1000,2,1,3,5,0,1,4,2,0,250.0,test,1,E+
487.071037292,1,1000,2,1,3,5,0,1,4,2,0,250.0,test,1,E+
391.754865646,5,1000,0,0,3,5,0,1,4,2,0,250.0,test,4,E+
375.766038895,0,1000,3,1,3,5,0,1,4,2,0,250.0,test,0,E+
439.147949219,2,1000,4,1,3,5,0,1,4,2,0,250.0,test,2,E+
503.918886185,2,1000,4,1,3,5,0,1,4,2,0,250.0,test,2,E+
392.328977585,5,1000,0,1,3,5,0,1,4,2,0,250.0,test,5,E+
569.181919098,1,1000,2,1,3,5,0,1,4,2,0,250.0,test,1,E+
521.161079407,3,1000,1,0,3,5,0,1,4,2,0,250.0,test,2,E+
390.79785347,1,1000,2,1,3,5,0,1,4,2,0,250.0,test,1,E+
406.051158905,5,1000,0,1,3,5,0,1,4,2,0,250.0,test,5,E+
422.101020813,5,1000,0,1,3,5,0,1,4,2,0,250.0,test,5,E+
392.752885818,5,1000,0,1,3,5,0,1,4,2,0,250.0,test,5,E+
438.121080399,2,1000,4,0,3,5,0,1,4,2,0,250.0,test,3,E+
439.291000366,4,1000,5,1,3,5,0,1,4,2,0,250.0,test,4,E+
486.016988754,0,1000,3,1,3,5,0,1,4,2,0,250.0,test,0,E+
438.081979752,1,1000,2,1,3,5,0,1,4,2,0,250.0,test,1,E+
374.044179916,4,1000,5,0,3,5,0,1,4,2,0,250.0,test,5,E+
440.496921539,2,1000,4,1,3,5,0,1,4,2,0,250.0,test,2,E+
438.044786453,5,1000,0,1,3,5,0,1,4,2,0,250.0,test,5,E+
374.238014221,0,1000,3,1,3,5,0,1,4,2,0,250.0,test,0,E+
440.51194191,2,1000,4,1,3,5,0,1,4,2,0,250.0,test,2,E+
390.082836151,0,1000,3,1,3,5,0,1,4,2,0,250.0,test,0,E+
359.026908875,4,1000,5,1,3,5,0,1,4,2,0,250.0,test,4,E+
391.461849213,4,1000,5,1,3,5,0,1,4,2,0,250.0,test,4,E+
614.482879639,2,1000,4,1,3,5,0,1,4,2,0,250.0,test,2,E+
423.514127731,0,1000,3,1,3,5,0,1,4,2,0,250.0,test,0,E+
390.908956528,0,1000,3,1,3,5,0,1,4,2,0,250.0,test,0,E+
359.917163849,5,1000,0,0,3,5,0,1,4,2,0,250.0,test,4,E+
422.093868256,5,1000,0,1,3,5,0,1,4,2,0,250.0,test,5,E+
342.209100723,0,1000,3,1,3,5,0,1,4,2,0,250.0,test,0,E+
455.481767654,2,1000,4,0,3,5,0,1,4,2,0,250.0,test,1,E+
359.753131866,0,1000,3,1,3,5,0,1,4,2,0,250.0,test,0,E+
599.774122238,3,1000,1,1,3,5,0,1,4,2,0,250.0,test,3,E+
407.774925232,4,1000,5,1,3,5,0,1,4,2,0,250.0,test,4,E+
503.749132156,4,1000,5,1,3,5,0,1,4,2,0,250.0,test,4,E+
487.788915634,4,1000,5,1,3,5,0,1,4,2,0,250.0,test,4,E+
424.733877182,1,1000,2,1,3,5,0,1,4,2,0,250.0,test,1,E+
406.152963638,5,1000,0,1,3,5,0,1,4,2,0,250.0,test,5,E+
630.113124847,1,1000,2,1,3,5,0,1,4,2,0,250.0,test,1,E+
473.181009293,1,1000,2,1,3,5,0,1,4,2,0,250.0,test,1,E+
534.156084061,3,1000,1,1,3,5,0,1,4,2,0,250.0,test,3,E+
393.301010132,4,1000,5,1,3,5,0,1,4,2,0,250.0,test,4,E+
390.142917633,2,1000,4,0,3,5,0,1,4,2,0,250.0,test,1,E+
423.485994339,5,1000,0,1,3,5,0,1,4,2,0,250.0,test,5,E+
438.071012497,1,1000,2,1,3,5,0,1,4,2,0,250.0,test,1,E+
358.096122742,0,1000,3,1,3,5,0,1,4,2,0,250.0,test,0,E+
457.384109497,4,1000,5,1,3,5,0,1,4,2,0,250.0,test,4,E+
391.529083252,0,1000,3,1,3,5,0,1,4,2,0,250.0,test,0,E+
342.082977295,1,1000,2,1,3,5,0,1,4,2,0,250.0,test,1,E+
471.022129059,3,1000,1,1,3,5,0,1,4,2,0,250.0,test,3,E+
374.161958694,0,1000,3,1,3,5,0,1,4,2,0,250.0,test,0,E+
326.990127563,4,1000,5,1,3,5,0,1,4,2,0,250.0,test,4,E+
455.538988113,2,1000,4,1,3,5,0,1,4,2,0,250.0,test,2,E+
358.92701149,5,1000,0,0,3,5,0,1,4,2,0,250.0,test,4,E+
486.118078232,4,1000,5,1,3,5,0,1,4,2,0,250.0,test,4,E+
423.882007599,0,1000,3,1,3,5,0,1,4,2,0,250.0,test,0,E+
535.884141922,3,1000,1,1,3,5,0,1,4,2,0,250.0,test,3,E+
439.806938171,3,1000,1,0,3,5,0,1,4,2,0,250.0,test,2,E+
615.849971771,1,1000,2,1,3,5,0,1,4,2,0,250.0,test,1,E+
439.929008484,4,1000,5,1,3,5,0,1,4,2,0,250.0,test,4,E+
407.873153687,4,1000,5,1,3,5,0,1,4,2,0,250.0,test,4,E+
391.777992249,4,1000,5,1,3,5,0,1,4,2,0,250.0,test,4,E+
423.964977264,0,1000,3,1,3,5,0,1,4,2,0,250.0,test,0,E+
519.781112671,1,1000,2,1,3,5,0,1,4,2,0,250.0,test,1,E+
422.158002853,3,1000,1,0,3,5,0,1,4,2,0,250.0,test,2,E+
391.788959503,4,1000,5,1,3,5,0,1,4,2,0,250.0,test,4,E+
535.065174103,2,1000,4,1,3,5,0,1,4,2,0,250.0,test,2,E+
695.91999054,0,1000,3,1,3,5,0,1,4,2,0,250.0,test,0,E+
568.536996841,3,1000,1,1,3,5,0,1,4,2,0,250.0,test,3,E+
727.949142456,4,1000,5,1,3,5,0,1,4,2,0,250.0,test,4,E+
615.954875946,1,1000,2,1,3,5,0,1,4,2,0,250.0,test,1,E+
358.209133148,3,1000,1,1,3,5,0,1,4,2,0,250.0,test,3,E+
569.328069687,5,1000,0,1,3,5,0,1,4,2,0,250.0,test,5,E+
470.733880997,5,1000,0,1,3,5,0,1,4,2,0,250.0,test,5,E+
518.014907837,1,1000,2,1,3,5,0,1,4,2,0,250.0,test,1,E+
422.724962234,2,1000,4,0,3,5,0,1,4,2,0,250.0,test,3,E+
438.138961792,0,1000,3,1,3,5,0,1,4,2,0,250.0,test,0,E+
777.363061905,0,1000,3,1,3,5,0,1,4,2,0,250.0,test,0,E+
534.703969955,2,1000,4,1,3,5,0,1,4,2,0,250.0,test,2,E+
406.147003174,0,1000,3,1,3,5,0,1,4,2,0,250.0,test,0,E+
438.045978546,3,1000,1,1,3,5,0,1,4,2,0,250.0,test,3,E+
374.149084091,1,1000,2,1,3,5,0,1,4,2,0,250.0,test,1,E+
582.118988037,4,1000,5,1,3,5,0,1,4,2,0,250.0,test,4,E+
486.180067062,4,1000,5,1,3,5,0,1,4,2,0,250.0,test,4,E+
487.560987473,3,1000,1,0,3,5,0,1,4,2,0,250.0,test,2,E+
582.073926926,2,1000,4,1,3,5,0,1,4,2,0,250.0,test,2,E+
439.840078354,2,1000,4,1,3,5,0,1,4,2,0,250.0,test,2,E+
423.549890518,2,1000,4,1,3,5,0,1,4,2,0,250.0,test,2,E+
487.576961517,1,1000,2,1,3,5,0,1,4,2,0,250.0,test,1,E+
407.54199028,1,1000,2,1,3,5,0,1,4,2,0,250.0,test,1,E+
391.711950302,0,1000,3,1,3,5,0,1,4,2,0,250.0,test,0,E+
503.841161728,1,1000,2,1,3,5,0,1,4,2,0,250.0,test,1,E+
439.826965332,5,1000,0,0,3,5,0,1,4,2,0,250.0,test,4,E+
407.10401535,4,1000,5,1,3,5,0,1,4,2,0,250.0,test,4,E+
599.717140198,1,1000,2,1,3,5,0,1,4,2,0,250.0,test,1,E+
535.933017731,5,1000,0,1,3,5,0,1,4,2,0,250.0,test,5,E+
423.856019974,0,1000,3,1,3,5,0,1,4,2,0,250.0,test,0,E+
407.5319767,4,1000,5,1,3,5,0,1,4,2,0,250.0,test,4,E+
391.885042191,4,1000,5,1,3,5,0,1,4,2,0,250.0,test,4,E+
631.191015244,2,1000,4,1,3,5,0,1,4,2,0,250.0,test,2,E+
598.010063171,3,1000,1,1,3,5,0,1,4,2,0,250.0,test,3,E+
488.559007645,2,1000,4,1,3,5,0,1,4,2,0,250.0,test,2,E+
470.142126083,4,1000,5,1,3,5,0,1,4,2,0,250.0,test,4,E+
472.545862198,1,1000,2,1,3,5,0,1,4,2,0,250.0,test,1,E+
407.819986343,0,1000,3,1,3,5,0,1,4,2,0,250.0,test,0,E+
456.552028656,0,1000,3,1,3,5,0,1,4,2,0,250.0,test,0,E+
502.075195312,2,1000,4,1,3,5,0,1,4,2,0,250.0,test,2,E+
390.803098679,4,1000,5,1,3,5,0,1,4,2,0,250.0,test,4,E+
646.948814392,1,1000,2,1,3,5,0,1,4,2,0,250.0,test,1,E+
485.96405983,2,1000,4,1,3,5,0,1,4,2,0,250.0,test,2,E+
406.02016449,4,1000,5,1,3,5,0,1,4,2,0,250.0,test,4,E+
550.086021423,5,1000,0,1,3,5,0,1,4,2,0,250.0,test,5,E+
422.939062119,2,1000,4,1,3,5,0,1,4,2,0,250.0,test,2,E+
631.509065628,4,1000,5,1,3,5,0,1,4,2,0,250.0,test,4,E+
646.966934204,3,1000,1,1,3,5,0,1,4,2,0,250.0,test,3,E+
327.444076538,4,1000,5,1,3,5,0,1,4,2,0,250.0,test,4,E+
455.050945282,2,1000,4,1,3,5,0,1,4,2,0,250.0,test,2,E+
360.038042068,3,1000,1,0,3,5,0,1,4,2,0,250.0,test,4,E+
422.131061554,4,1000,5,1,3,5,0,1,4,2,0,250.0,test,4,E+
394.019842148,0,1000,3,1,3,5,0,1,4,2,0,250.0,test,0,E+
615.858078003,5,1000,0,1,3,5,0,1,4,2,0,250.0,test,5,E+
455.497980118,3,1000,1,0,3,5,0,1,4,2,0,250.0,test,2,E+
487.768888474,2,1000,4,1,3,5,0,1,4,2,0,250.0,test,2,E+
377.171993256,4,1000,5,1,3,5,0,1,4,2,0,250.0,test,4,E+
423.989057541,0,1000,3,1,3,5,0,1,4,2,0,250.0,test,0,E+
598.838090897,2,1000,4,1,3,5,0,1,4,2,0,250.0,test,2,E+
391.502141953,2,1000,4,1,3,5,0,1,4,2,0,250.0,test,2,E+
408.586978912,0,1000,3,1,3,5,0,1,4,2,0,250.0,test,0,E+
391.797065735,0,1000,3,1,3,5,0,1,4,2,0,250.0,test,0,E+
408.556938171,0,1000,3,1,3,5,0,1,4,2,0,250.0,test,0,E+
375.116825104,5,1000,0,1,3,5,0,1,4,2,0,250.0,test,5,E+
408.56218338,3,1000,1,1,3,5,0,1,4,2,0,250.0,test,3,E+
487.871170044,1,1000,2,1,3,5,0,1,4,2,0,250.0,test,1,E+
584.389925003,3,1000,1,1,3,5,0,1,4,2,0,250.0,test,3,E+
503.925085068,4,1000,5,1,3,5,0,1,4,2,0,250.0,test,4,E+
360.57806015,4,1000,5,1,3,5,0,1,4,2,0,250.0,test,4,E+
438.164949417,2,1000,4,1,3,5,0,1,4,2,0,250.0,test,2,E+
376.513004303,4,1000,5,1,3,5,0,1,4,2,0,250.0,test,4,E+
438.217163086,1,1000,2,1,3,5,0,1,4,2,0,250.0,test,1,E+
408.354997635,5,1000,0,1,3,5,0,1,4,2,0,250.0,test,5,E+
374.134778976,0,1000,3,1,3,5,0,1,4,2,0,250.0,test,0,E+
408.617019653,2,1000,4,0,3,5,0,1,4,2,0,250.0,test,1,E+
326.826810837,0,1000,3,1,3,5,0,1,4,2,0,250.0,test,0,E+
390.089035034,5,1000,0,1,3,5,0,1,4,2,0,250.0,test,5,E+
358.782052994,1,1000,2,1,3,5,0,1,4,2,0,250.0,test,1,E+
