RT,correct_response,ms-prestimblank,curstim,correct,SRmap_1,SRmap_0,SRmap_3,SRmap_2,SRmap_5,SRmap_4,ms-precue,ntrials,type,response,condition
14436.2869263,0,600,2,1,1,5,3,0,2,4,400,250.0,train,0,E+
3846.66800499,3,600,3,1,1,5,3,0,2,4,400,250.0,train,3,E+
1112.62392998,1,600,1,1,1,5,3,0,2,4,400,250.0,train,1,E+
2264.53709602,5,600,0,1,1,5,3,0,2,4,400,250.0,train,5,E+
1751.33609772,0,600,2,1,1,5,3,0,2,4,400,250.0,train,0,E+
1207.57913589,1,600,1,0,1,5,3,0,2,4,400,250.0,train,0,E+
1831.30383492,3,600,3,1,1,5,3,0,2,4,400,250.0,train,3,E+
1111.35721207,0,600,2,1,1,5,3,0,2,4,400,250.0,train,0,E+
1271.02684975,2,600,5,1,1,5,3,0,2,4,400,250.0,train,2,E+
903.589010239,2,600,5,1,1,5,3,0,2,4,400,250.0,train,2,E+
919.579029083,3,600,3,0,1,5,3,0,2,4,400,250.0,train,4,E+
1447.25108147,4,600,4,1,1,5,3,0,2,4,400,250.0,train,4,E+
1175.28009415,1,600,1,0,1,5,3,0,2,4,400,250.0,train,0,E+
1399.55687523,3,600,3,1,1,5,3,0,2,4,400,250.0,train,3,E+
3590.90018272,5,600,0,1,1,5,3,0,2,4,400,250.0,train,5,E+
1239.2911911,2,600,5,1,1,5,3,0,2,4,400,250.0,train,2,E+
1079.15401459,1,600,1,1,1,5,3,0,2,4,400,250.0,train,1,E+
1047.38616943,3,600,3,1,1,5,3,0,2,4,400,250.0,train,3,E+
1127.54893303,2,600,5,1,1,5,3,0,2,4,400,250.0,train,2,E+
1879.40311432,5,600,0,1,1,5,3,0,2,4,400,250.0,train,5,E+
1048.9449501,2,600,5,1,1,5,3,0,2,4,400,250.0,train,2,E+
983.345031738,1,600,1,1,1,5,3,0,2,4,400,250.0,train,1,E+
791.423082352,2,600,5,1,1,5,3,0,2,4,400,250.0,train,2,E+
1799.29900169,5,600,0,1,1,5,3,0,2,4,400,250.0,train,5,E+
1159.40999985,4,600,4,1,1,5,3,0,2,4,400,250.0,train,4,E+
855.383872986,0,600,2,1,1,5,3,0,2,4,400,250.0,train,0,E+
807.3990345,2,600,5,1,1,5,3,0,2,4,400,250.0,train,2,E+
935.271024704,4,600,4,0,1,5,3,0,2,4,400,250.0,train,5,E+
727.478981018,1,600,1,0,1,5,3,0,2,4,400,250.0,train,0,E+
1335.48283577,3,600,3,1,1,5,3,0,2,4,400,250.0,train,3,E+
1176.85103416,4,600,4,0,1,5,3,0,2,4,400,250.0,train,5,E+
727.097988129,2,600,5,1,1,5,3,0,2,4,400,250.0,train,2,E+
919.4419384,0,600,2,1,1,5,3,0,2,4,400,250.0,train,0,E+
487.637042999,0,600,2,1,1,5,3,0,2,4,400,250.0,train,0,E+
743.493080139,2,600,5,1,1,5,3,0,2,4,400,250.0,train,2,E+
759.453058243,1,600,1,0,1,5,3,0,2,4,400,250.0,train,0,E+
681.174993515,1,600,1,1,1,5,3,0,2,4,400,250.0,train,1,E+
903.40590477,4,600,4,1,1,5,3,0,2,4,400,250.0,train,4,E+
665.00711441,2,600,5,1,1,5,3,0,2,4,400,250.0,train,2,E+
1287.58192062,5,600,0,1,1,5,3,0,2,4,400,250.0,train,5,E+
791.676998138,1,600,1,1,1,5,3,0,2,4,400,250.0,train,1,E+
727.550029755,3,600,3,1,1,5,3,0,2,4,400,250.0,train,3,E+
791.541099548,5,600,0,1,1,5,3,0,2,4,400,250.0,train,5,E+
696.841001511,2,600,5,1,1,5,3,0,2,4,400,250.0,train,2,E+
1559.36908722,4,600,4,1,1,5,3,0,2,4,400,250.0,train,4,E+
888.891935349,4,600,4,0,1,5,3,0,2,4,400,250.0,train,5,E+
791.654109955,1,600,1,1,1,5,3,0,2,4,400,250.0,train,1,E+
630.391120911,3,600,3,0,1,5,3,0,2,4,400,250.0,train,2,E+
1255.55300713,2,600,5,1,1,5,3,0,2,4,400,250.0,train,2,E+
744.967937469,3,600,3,1,1,5,3,0,2,4,400,250.0,train,3,E+
775.44593811,0,600,2,1,1,5,3,0,2,4,400,250.0,train,0,E+
1383.259058,5,600,0,1,1,5,3,0,2,4,400,250.0,train,5,E+
790.997028351,4,600,4,1,1,5,3,0,2,4,400,250.0,train,4,E+
855.621099472,3,600,3,1,1,5,3,0,2,4,400,250.0,train,3,E+
599.626064301,2,600,5,1,1,5,3,0,2,4,400,250.0,train,2,E+
855.567932129,3,600,3,1,1,5,3,0,2,4,400,250.0,train,3,E+
695.468902588,2,600,5,1,1,5,3,0,2,4,400,250.0,train,2,E+
759.523153305,0,600,2,1,1,5,3,0,2,4,400,250.0,train,0,E+
601.385116577,2,600,5,1,1,5,3,0,2,4,400,250.0,train,2,E+
888.633012772,3,600,3,1,1,5,3,0,2,4,400,250.0,train,3,E+
535.472869873,2,600,5,1,1,5,3,0,2,4,400,250.0,train,2,E+
471.701145172,2,600,5,1,1,5,3,0,2,4,400,250.0,train,2,E+
487.623929977,0,600,2,1,1,5,3,0,2,4,400,250.0,train,0,E+
791.630983353,5,600,0,0,1,5,3,0,2,4,400,250.0,train,3,E+
518.935918808,0,600,2,1,1,5,3,0,2,4,400,250.0,train,0,E+
1527.01210976,2,600,5,1,1,5,3,0,2,4,400,250.0,train,2,E+
599.413871765,5,600,0,1,1,5,3,0,2,4,400,250.0,train,5,E+
1015.04015923,5,600,0,1,1,5,3,0,2,4,400,250.0,train,5,E+
552.982091904,0,600,2,1,1,5,3,0,2,4,400,250.0,train,0,E+
871.608018875,2,600,5,1,1,5,3,0,2,4,400,250.0,train,2,E+
343.647956848,5,600,0,1,1,5,3,0,2,4,400,250.0,train,5,E+
983.475923538,1,600,1,1,1,5,3,0,2,4,400,250.0,train,1,E+
967.385053635,4,600,4,1,1,5,3,0,2,4,400,250.0,train,4,E+
617.045879364,5,600,0,1,1,5,3,0,2,4,400,250.0,train,5,E+
567.416191101,4,600,4,0,1,5,3,0,2,4,400,250.0,train,5,E+
873.015880585,4,600,4,1,1,5,3,0,2,4,400,250.0,train,4,E+
759.730100632,2,600,5,1,1,5,3,0,2,4,400,250.0,train,2,E+
583.53304863,4,600,4,0,1,5,3,0,2,4,400,250.0,train,5,E+
807.374000549,1,600,1,0,1,5,3,0,2,4,400,250.0,train,0,E+
1031.39615059,3,600,3,1,1,5,3,0,2,4,400,250.0,train,3,E+
1351.34506226,3,600,3,1,1,5,3,0,2,4,400,250.0,train,3,E+
585.046052933,0,600,2,1,1,5,3,0,2,4,400,250.0,train,0,E+
919.69203949,4,600,4,1,1,5,3,0,2,4,400,250.0,train,4,E+
855.711936951,1,600,1,1,1,5,3,0,2,4,400,250.0,train,1,E+
695.451974869,3,600,3,1,1,5,3,0,2,4,400,250.0,train,3,E+
775.568008423,1,600,1,1,1,5,3,0,2,4,400,250.0,train,1,E+
566.05386734,4,600,4,1,1,5,3,0,2,4,400,250.0,train,4,E+
633.17489624,3,600,3,0,1,5,3,0,2,4,400,250.0,train,2,E+
727.415800095,1,600,1,1,1,5,3,0,2,4,400,250.0,train,1,E+
1063.29393387,5,600,0,1,1,5,3,0,2,4,400,250.0,train,5,E+
919.664859772,2,600,5,1,1,5,3,0,2,4,400,250.0,train,2,E+
599.613904953,5,600,0,1,1,5,3,0,2,4,400,250.0,train,5,E+
406.543970108,2,600,5,1,1,5,3,0,2,4,400,250.0,train,2,E+
727.386951447,1,600,1,1,1,5,3,0,2,4,400,250.0,train,1,E+
567.457914352,2,600,5,1,1,5,3,0,2,4,400,250.0,train,2,E+
519.455194473,5,600,0,1,1,5,3,0,2,4,400,250.0,train,5,E+
647.546052933,5,600,0,1,1,5,3,0,2,4,400,250.0,train,5,E+
376.095056534,5,600,0,1,1,5,3,0,2,4,400,250.0,train,5,E+
423.741817474,2,600,5,1,1,5,3,0,2,4,400,250.0,train,2,E+
535.69483757,1,600,1,0,1,5,3,0,2,4,400,250.0,train,0,E+
1511.34777069,4,600,4,1,1,5,3,0,2,4,400,250.0,train,4,E+
615.438938141,2,600,5,1,1,5,3,0,2,4,400,250.0,train,2,E+
409.465074539,4,600,4,0,1,5,3,0,2,4,400,250.0,train,5,E+
759.375810623,3,600,3,1,1,5,3,0,2,4,400,250.0,train,3,E+
567.616939545,0,600,2,1,1,5,3,0,2,4,400,250.0,train,0,E+
648.909091949,2,600,5,1,1,5,3,0,2,4,400,250.0,train,2,E+
1495.48006058,3,600,3,1,1,5,3,0,2,4,400,250.0,train,3,E+
632.814884186,5,600,0,1,1,5,3,0,2,4,400,250.0,train,5,E+
727.447032928,1,600,1,1,1,5,3,0,2,4,400,250.0,train,1,E+
791.522979736,5,600,0,1,1,5,3,0,2,4,400,250.0,train,5,E+
1095.50786018,0,600,2,0,1,5,3,0,2,4,400,250.0,train,1,E+
599.636077881,1,600,1,1,1,5,3,0,2,4,400,250.0,train,1,E+
487.790107727,1,600,1,1,1,5,3,0,2,4,400,250.0,train,1,E+
551.722049713,0,600,2,0,1,5,3,0,2,4,400,250.0,train,1,E+
1511.27004623,5,600,0,1,1,5,3,0,2,4,400,250.0,train,5,E+
1031.49795532,3,600,3,1,1,5,3,0,2,4,400,250.0,train,3,E+
2151.22008324,4,600,4,1,1,5,3,0,2,4,400,250.0,train,4,E+
663.529157639,4,600,4,1,1,5,3,0,2,4,400,250.0,train,4,E+
679.725170135,2,600,5,1,1,5,3,0,2,4,400,250.0,train,2,E+
935.635089874,3,600,3,1,1,5,3,0,2,4,400,250.0,train,3,E+
311.660051346,3,600,3,1,1,5,3,0,2,4,400,250.0,train,3,E+
1063.54212761,4,600,4,1,1,5,3,0,2,4,400,250.0,train,4,E+
375.543117523,2,600,5,0,1,5,3,0,2,4,400,250.0,train,1,E+
583.414077759,3,600,3,1,1,5,3,0,2,4,400,250.0,train,3,E+
311.243057251,2,600,5,1,1,5,3,0,2,4,400,250.0,train,2,E+
567.600011826,0,600,2,1,1,5,3,0,2,4,400,250.0,train,0,E+
407.722949982,5,600,0,0,1,5,3,0,2,4,400,250.0,train,4,E+
232.983112335,3,600,3,0,1,5,3,0,2,4,400,250.0,train,4,E+
264.9538517,5,600,0,1,1,5,3,0,2,4,400,250.0,train,5,E+
137.194871902,5,600,0,1,1,5,3,0,2,4,400,250.0,train,5,E+
23.6299037933,2,600,5,0,1,5,3,0,2,4,400,250.0,train,1,E+
55.6690692902,0,600,2,1,1,5,3,0,2,4,400,250.0,train,0,E+
103.413105011,5,600,0,1,1,5,3,0,2,4,400,250.0,train,5,E+
343.73998642,2,600,5,1,1,5,3,0,2,4,400,250.0,train,2,E+
199.689865112,5,600,0,1,1,5,3,0,2,4,400,250.0,train,5,E+
87.7208709717,4,600,4,1,1,5,3,0,2,4,400,250.0,train,4,E+
71.5320110321,4,600,4,1,1,5,3,0,2,4,400,250.0,train,4,E+
55.6120872498,4,600,4,1,1,5,3,0,2,4,400,250.0,train,4,E+
713.407993317,3,600,3,0,1,5,3,0,2,4,400,250.0,train,2,E+
55.48787117,0,600,2,1,1,5,3,0,2,4,400,250.0,train,0,E+
567.234992981,0,600,2,1,1,5,3,0,2,4,400,250.0,train,0,E+
711.555957794,4,600,4,0,1,5,3,0,2,4,400,250.0,train,5,E+
311.662912369,2,600,5,1,1,5,3,0,2,4,400,250.0,train,2,E+
391.630172729,4,600,4,1,1,5,3,0,2,4,400,250.0,train,4,E+
151.567935944,2,600,5,1,1,5,3,0,2,4,400,250.0,train,2,E+
9.12499427795,2,600,5,1,1,5,3,0,2,4,400,250.0,train,2,E+
54.5740127563,3,600,3,1,1,5,3,0,2,4,400,250.0,train,3,E+
471.354961395,1,600,1,1,1,5,3,0,2,4,400,250.0,train,1,E+
439.413070679,1,600,1,1,1,5,3,0,2,4,400,250.0,train,1,E+
535.228967667,4,600,4,0,1,5,3,0,2,4,400,250.0,train,2,E+
119.789123535,1,600,1,1,1,5,3,0,2,4,400,250.0,train,1,E+
471.662044525,4,600,4,0,1,5,3,0,2,4,400,250.0,train,3,E+
167.558908463,5,600,0,1,1,5,3,0,2,4,400,250.0,train,5,E+
231.364011765,4,600,4,1,1,5,3,0,2,4,400,250.0,train,4,E+
311.421871185,3,600,3,1,1,5,3,0,2,4,400,250.0,train,3,E+
183.593034744,5,600,0,1,1,5,3,0,2,4,400,250.0,train,5,E+
55.7460784912,5,600,0,1,1,5,3,0,2,4,400,250.0,train,5,E+
583.499908447,5,600,0,1,1,5,3,0,2,4,400,250.0,train,5,E+
327.742815018,1,600,1,1,1,5,3,0,2,4,400,250.0,train,1,E+
23.7600803375,0,600,2,1,1,5,3,0,2,4,400,250.0,train,0,E+
983.510971069,1,600,1,1,1,5,3,0,2,4,400,250.0,train,1,E+
487.515926361,1,600,1,1,1,5,3,0,2,4,400,250.0,train,1,E+
7.63010978699,0,600,2,1,1,5,3,0,2,4,400,250.0,train,0,E+
71.6969966888,2,600,5,1,1,5,3,0,2,4,400,250.0,train,2,E+
679.083108902,1,600,1,1,1,5,3,0,2,4,400,250.0,train,1,E+
55.5641651154,2,600,5,1,1,5,3,0,2,4,400,250.0,train,2,E+
39.3769741058,2,600,5,1,1,5,3,0,2,4,400,250.0,train,2,E+
423.739910126,0,600,2,1,1,5,3,0,2,4,400,250.0,train,0,E+
551.638126373,4,600,4,1,1,5,3,0,2,4,400,250.0,train,4,E+
71.7031955719,1,600,1,1,1,5,3,0,2,4,400,250.0,train,1,E+
455.434083939,2,600,5,1,1,5,3,0,2,4,400,250.0,train,2,E+
391.425132751,0,600,2,1,1,5,3,0,2,4,400,250.0,train,0,E+
359.30109024,3,600,3,1,1,5,3,0,2,4,400,250.0,train,3,E+
375.425100327,4,600,4,1,1,5,3,0,2,4,400,250.0,train,4,E+
39.6058559418,1,600,1,1,1,5,3,0,2,4,400,250.0,train,1,E+
279.570102692,4,600,4,0,1,5,3,0,2,4,400,250.0,train,3,E+
503.64780426,3,600,3,1,1,5,3,0,2,4,400,250.0,train,3,E+
86.5218639374,3,600,3,1,1,5,3,0,2,4,400,250.0,train,3,E+
71.2659358978,4,600,4,1,1,5,3,0,2,4,400,250.0,train,4,E+
105.046987534,0,600,2,1,1,5,3,0,2,4,400,250.0,train,0,E+
966.954946518,1,600,1,1,1,5,3,0,2,4,400,250.0,train,1,E+
263.406038284,5,600,0,1,1,5,3,0,2,4,400,250.0,train,5,E+
55.2670955658,5,600,0,1,1,5,3,0,2,4,400,250.0,train,5,E+
151.520013809,2,600,5,0,1,5,3,0,2,4,400,250.0,train,1,E+
103.714942932,1,600,1,1,1,5,3,0,2,4,400,250.0,train,1,E+
55.7420253754,1,600,1,1,1,5,3,0,2,4,400,250.0,train,1,E+
7.73000717163,0,600,2,1,1,5,3,0,2,4,400,250.0,train,0,E+
535.490989685,1,600,1,1,1,5,3,0,2,4,400,250.0,train,1,E+
183.578014374,3,600,3,1,1,5,3,0,2,4,400,250.0,train,3,E+
263.563871384,2,600,5,1,1,5,3,0,2,4,400,250.0,train,2,E+
135.581016541,1,600,1,1,1,5,3,0,2,4,400,250.0,train,1,E+
167.413949966,2,600,5,1,1,5,3,0,2,4,400,250.0,train,2,E+
423.465013504,3,600,3,1,1,5,3,0,2,4,400,250.0,train,3,E+
201.073884964,4,600,4,1,1,5,3,0,2,4,400,250.0,train,4,E+
375.730037689,4,600,4,1,1,5,3,0,2,4,400,250.0,train,4,E+
119.786024094,0,600,2,1,1,5,3,0,2,4,400,250.0,train,0,E+
182.288169861,2,600,5,1,1,5,3,0,2,4,400,250.0,train,2,E+
7.70998001099,1,600,1,1,1,5,3,0,2,4,400,250.0,train,1,E+
311.616897583,3,600,3,1,1,5,3,0,2,4,400,250.0,train,3,E+
41.1279201508,3,600,3,0,1,5,3,0,2,4,400,250.0,train,2,E+
135.668039322,5,600,0,1,1,5,3,0,2,4,400,250.0,train,5,E+
151.538848877,5,600,0,1,1,5,3,0,2,4,400,250.0,train,5,E+
102.264165878,4,600,4,1,1,5,3,0,2,4,400,250.0,train,4,E+
39.7729873657,3,600,3,1,1,5,3,0,2,4,400,250.0,train,3,E+
215.809106827,5,600,0,1,1,5,3,0,2,4,400,250.0,train,5,E+
135.426044464,4,600,4,1,1,5,3,0,2,4,400,250.0,train,4,E+
119.746923447,0,600,2,1,1,5,3,0,2,4,400,250.0,train,0,E+
295.616865158,4,600,4,0,1,5,3,0,2,4,400,250.0,train,5,E+
169.255018234,1,600,1,1,1,5,3,0,2,4,400,250.0,train,1,E+
103.586912155,0,600,2,1,1,5,3,0,2,4,400,250.0,train,0,E+
104.890823364,2,600,5,0,1,5,3,0,2,4,400,250.0,train,1,E+
121.026039124,0,600,2,1,1,5,3,0,2,4,400,250.0,train,0,E+
87.7439975739,1,600,1,1,1,5,3,0,2,4,400,250.0,train,1,E+
262.43686676,3,600,3,1,1,5,3,0,2,4,400,250.0,train,3,E+
55.655002594,1,600,1,1,1,5,3,0,2,4,400,250.0,train,1,E+
311.558008194,4,600,4,1,1,5,3,0,2,4,400,250.0,train,4,E+
168.985843658,2,600,5,1,1,5,3,0,2,4,400,250.0,train,2,E+
199.470996857,4,600,4,0,1,5,3,0,2,4,400,250.0,train,5,E+
102.245807648,1,600,1,1,1,5,3,0,2,4,400,250.0,train,1,E+
423.261165619,5,600,0,1,1,5,3,0,2,4,400,250.0,train,5,E+
87.8269672394,0,600,2,1,1,5,3,0,2,4,400,250.0,train,0,E+
151.744842529,0,600,2,0,1,5,3,0,2,4,400,250.0,train,3,E+
55.7060241699,0,600,2,1,1,5,3,0,2,4,400,250.0,train,0,E+
184.988975525,5,600,0,1,1,5,3,0,2,4,400,250.0,train,5,E+
425.087928772,2,600,5,1,1,5,3,0,2,4,400,250.0,train,2,E+
167.396068573,2,600,5,1,1,5,3,0,2,4,400,250.0,train,2,E+
391.421794891,4,600,4,1,1,5,3,0,2,4,400,250.0,train,4,E+
424.926042557,3,600,3,1,1,5,3,0,2,4,400,250.0,train,3,E+
39.6220684052,0,600,2,1,1,5,3,0,2,4,400,250.0,train,0,E+
327.66699791,2,600,5,1,1,5,3,0,2,4,400,250.0,train,2,E+
199.784040451,0,600,2,1,1,5,3,0,2,4,400,250.0,train,0,E+
375.421047211,4,600,4,0,1,5,3,0,2,4,400,250.0,train,3,E+
167.469978333,3,600,3,0,1,5,3,0,2,4,400,250.0,train,2,E+
361.093997955,3,600,3,1,1,5,3,0,2,4,400,250.0,train,3,E+
54.5241832733,2,600,5,0,1,5,3,0,2,4,400,250.0,train,1,E+
183.289051056,1,600,1,1,1,5,3,0,2,4,400,250.0,train,1,E+
199.603796005,3,600,3,1,1,5,3,0,2,4,400,250.0,train,3,E+
263.705968857,4,600,4,1,1,5,3,0,2,4,400,250.0,train,4,E+
103.772163391,5,600,0,1,1,5,3,0,2,4,400,250.0,train,5,E+
87.5761508942,0,600,2,1,1,5,3,0,2,4,400,250.0,train,0,E+
72.3490715027,0,600,2,1,1,5,3,0,2,4,400,250.0,train,0,E+
199.244976044,5,600,0,1,1,5,3,0,2,4,400,250.0,train,5,E+
807.284832001,5,600,0,1,1,5,3,0,2,4,400,250.0,train,5,E+
487.25605011,5,600,0,1,1,5,3,0,2,4,400,250.0,train,5,E+
503.450155258,5,600,0,1,1,5,3,0,2,4,400,250.0,train,5,E+
7.48491287231,5,600,0,1,1,5,3,0,2,4,400,250.0,train,5,E+
711.704969406,3,600,3,1,1,5,3,0,2,4,400,250.0,train,3,E+
183.359861374,5,600,0,1,1,5,3,0,2,4,400,250.0,train,5,E+
391.617059708,3,600,3,0,1,5,3,0,2,4,400,250.0,train,2,E+
1160.9120369,1,600,1,1,1,5,3,0,2,4,400,250.0,train,1,E+
2632.46202469,1,1000,1,0,1,5,3,0,2,4,0,250.0,test,0,E+
887.229919434,2,1000,5,1,1,5,3,0,2,4,0,250.0,test,2,E+
1015.20895958,4,1000,4,0,1,5,3,0,2,4,0,250.0,test,5,E+
919.28601265,3,1000,3,1,1,5,3,0,2,4,0,250.0,test,3,E+
583.494901657,3,1000,3,1,1,5,3,0,2,4,0,250.0,test,3,E+
533.643007278,0,1000,2,1,1,5,3,0,2,4,0,250.0,test,0,E+
725.867986679,2,1000,5,1,1,5,3,0,2,4,0,250.0,test,2,E+
727.72693634,5,1000,0,1,1,5,3,0,2,4,0,250.0,test,5,E+
535.501003265,1,1000,1,1,1,5,3,0,2,4,0,250.0,test,1,E+
439.624071121,5,1000,0,1,1,5,3,0,2,4,0,250.0,test,5,E+
839.280128479,3,1000,3,1,1,5,3,0,2,4,0,250.0,test,3,E+
487.340927124,1,1000,1,1,1,5,3,0,2,4,0,250.0,test,1,E+
469.947814941,1,1000,1,1,1,5,3,0,2,4,0,250.0,test,1,E+
486.249923706,4,1000,4,0,1,5,3,0,2,4,0,250.0,test,5,E+
647.553920746,5,1000,0,1,1,5,3,0,2,4,0,250.0,test,5,E+
567.38781929,5,1000,0,1,1,5,3,0,2,4,0,250.0,test,5,E+
487.622022629,5,1000,0,1,1,5,3,0,2,4,0,250.0,test,5,E+
440.764188766,5,1000,0,1,1,5,3,0,2,4,0,250.0,test,5,E+
823.544979095,1,1000,1,1,1,5,3,0,2,4,0,250.0,test,1,E+
761.05093956,5,1000,0,1,1,5,3,0,2,4,0,250.0,test,5,E+
613.774061203,2,1000,5,0,1,5,3,0,2,4,0,250.0,test,1,E+
647.558927536,0,1000,2,1,1,5,3,0,2,4,0,250.0,test,0,E+
997.833967209,4,1000,4,1,1,5,3,0,2,4,0,250.0,test,4,E+
725.125789642,3,1000,3,0,1,5,3,0,2,4,0,250.0,test,2,E+
551.645040512,0,1000,2,1,1,5,3,0,2,4,0,250.0,test,0,E+
711.589813232,5,1000,0,1,1,5,3,0,2,4,0,250.0,test,5,E+
853.800058365,4,1000,4,1,1,5,3,0,2,4,0,250.0,test,4,E+
517.853021622,0,1000,2,1,1,5,3,0,2,4,0,250.0,test,0,E+
855.394124985,4,1000,4,1,1,5,3,0,2,4,0,250.0,test,4,E+
676.563024521,3,1000,3,1,1,5,3,0,2,4,0,250.0,test,3,E+
517.986059189,1,1000,1,1,1,5,3,0,2,4,0,250.0,test,1,E+
615.744113922,1,1000,1,1,1,5,3,0,2,4,0,250.0,test,1,E+
533.936023712,1,1000,1,1,1,5,3,0,2,4,0,250.0,test,1,E+
487.519025803,0,1000,2,1,1,5,3,0,2,4,0,250.0,test,0,E+
663.03896904,2,1000,5,1,1,5,3,0,2,4,0,250.0,test,2,E+
453.972101212,0,1000,2,1,1,5,3,0,2,4,0,250.0,test,0,E+
758.948087692,4,1000,4,1,1,5,3,0,2,4,0,250.0,test,4,E+
599.503040314,4,1000,4,1,1,5,3,0,2,4,0,250.0,test,4,E+
597.973823547,1,1000,1,1,1,5,3,0,2,4,0,250.0,test,1,E+
759.535074234,1,1000,1,1,1,5,3,0,2,4,0,250.0,test,1,E+
565.962076187,5,1000,0,1,1,5,3,0,2,4,0,250.0,test,5,E+
535.634994507,0,1000,2,1,1,5,3,0,2,4,0,250.0,test,0,E+
472.763776779,4,1000,4,1,1,5,3,0,2,4,0,250.0,test,4,E+
565.879821777,2,1000,5,0,1,5,3,0,2,4,0,250.0,test,1,E+
1445.72806358,4,1000,4,1,1,5,3,0,2,4,0,250.0,test,4,E+
501.983880997,0,1000,2,1,1,5,3,0,2,4,0,250.0,test,0,E+
952.981948853,3,1000,3,1,1,5,3,0,2,4,0,250.0,test,3,E+
837.741136551,5,1000,0,1,1,5,3,0,2,4,0,250.0,test,5,E+
823.517084122,2,1000,5,0,1,5,3,0,2,4,0,250.0,test,1,E+
665.000200272,0,1000,2,1,1,5,3,0,2,4,0,250.0,test,0,E+
581.411838531,5,1000,0,1,1,5,3,0,2,4,0,250.0,test,5,E+
597.734212875,2,1000,5,0,1,5,3,0,2,4,0,250.0,test,1,E+
1973.68097305,3,1000,3,1,1,5,3,0,2,4,0,250.0,test,3,E+
695.430040359,0,1000,2,1,1,5,3,0,2,4,0,250.0,test,0,E+
439.652919769,0,1000,2,1,1,5,3,0,2,4,0,250.0,test,0,E+
855.147838593,3,1000,3,1,1,5,3,0,2,4,0,250.0,test,3,E+
469.971895218,0,1000,2,1,1,5,3,0,2,4,0,250.0,test,0,E+
661.794900894,2,1000,5,1,1,5,3,0,2,4,0,250.0,test,2,E+
501.939058304,1,1000,1,1,1,5,3,0,2,4,0,250.0,test,1,E+
501.874923706,2,1000,5,1,1,5,3,0,2,4,0,250.0,test,2,E+
839.51997757,4,1000,4,0,1,5,3,0,2,4,0,250.0,test,3,E+
727.632045746,2,1000,5,1,1,5,3,0,2,4,0,250.0,test,2,E+
503.727197647,1,1000,1,1,1,5,3,0,2,4,0,250.0,test,1,E+
521.032094955,1,1000,1,1,1,5,3,0,2,4,0,250.0,test,1,E+
933.680057526,4,1000,4,1,1,5,3,0,2,4,0,250.0,test,4,E+
520.989894867,5,1000,0,1,1,5,3,0,2,4,0,250.0,test,5,E+
1272.8099823,5,1000,0,1,1,5,3,0,2,4,0,250.0,test,5,E+
821.981906891,2,1000,5,1,1,5,3,0,2,4,0,250.0,test,2,E+
583.481788635,1,1000,1,1,1,5,3,0,2,4,0,250.0,test,1,E+
1029.72602844,3,1000,3,1,1,5,3,0,2,4,0,250.0,test,3,E+
647.190093994,2,1000,5,1,1,5,3,0,2,4,0,250.0,test,2,E+
567.328929901,2,1000,5,1,1,5,3,0,2,4,0,250.0,test,2,E+
712.285995483,4,1000,4,1,1,5,3,0,2,4,0,250.0,test,4,E+
485.905885696,0,1000,2,1,1,5,3,0,2,4,0,250.0,test,0,E+
695.018053055,2,1000,5,1,1,5,3,0,2,4,0,250.0,test,2,E+
405.807971954,0,1000,2,1,1,5,3,0,2,4,0,250.0,test,0,E+
585.042953491,5,1000,0,1,1,5,3,0,2,4,0,250.0,test,5,E+
519.335985184,5,1000,0,1,1,5,3,0,2,4,0,250.0,test,5,E+
487.496137619,5,1000,0,1,1,5,3,0,2,4,0,250.0,test,5,E+
793.025970459,4,1000,4,0,1,5,3,0,2,4,0,250.0,test,5,E+
741.750955582,2,1000,5,1,1,5,3,0,2,4,0,250.0,test,2,E+
807.31010437,3,1000,3,1,1,5,3,0,2,4,0,250.0,test,3,E+
550.034999847,0,1000,2,1,1,5,3,0,2,4,0,250.0,test,0,E+
821.855068207,3,1000,3,1,1,5,3,0,2,4,0,250.0,test,3,E+
535.567045212,3,1000,3,1,1,5,3,0,2,4,0,250.0,test,3,E+
519.331932068,5,1000,0,1,1,5,3,0,2,4,0,250.0,test,5,E+
679.692029953,3,1000,3,1,1,5,3,0,2,4,0,250.0,test,3,E+
567.244052887,1,1000,1,1,1,5,3,0,2,4,0,250.0,test,1,E+
613.971948624,5,1000,0,1,1,5,3,0,2,4,0,250.0,test,5,E+
725.886106491,3,1000,3,1,1,5,3,0,2,4,0,250.0,test,3,E+
566.008090973,2,1000,5,0,1,5,3,0,2,4,0,250.0,test,1,E+
967.54693985,3,1000,3,1,1,5,3,0,2,4,0,250.0,test,3,E+
567.654132843,2,1000,5,1,1,5,3,0,2,4,0,250.0,test,2,E+
501.879930496,1,1000,1,0,1,5,3,0,2,4,0,250.0,test,0,E+
823.424816132,5,1000,0,1,1,5,3,0,2,4,0,250.0,test,5,E+
1045.45783997,4,1000,4,1,1,5,3,0,2,4,0,250.0,test,4,E+
533.868074417,4,1000,4,1,1,5,3,0,2,4,0,250.0,test,4,E+
581.85505867,0,1000,2,1,1,5,3,0,2,4,0,250.0,test,0,E+
407.644033432,0,1000,2,1,1,5,3,0,2,4,0,250.0,test,0,E+
503.592014313,0,1000,2,1,1,5,3,0,2,4,0,250.0,test,0,E+
615.572214127,4,1000,4,0,1,5,3,0,2,4,0,250.0,test,0,E+
1015.47884941,3,1000,3,1,1,5,3,0,2,4,0,250.0,test,3,E+
725.86607933,2,1000,5,1,1,5,3,0,2,4,0,250.0,test,2,E+
583.514213562,2,1000,5,1,1,5,3,0,2,4,0,250.0,test,2,E+
805.782079697,3,1000,3,1,1,5,3,0,2,4,0,250.0,test,3,E+
581.919908524,2,1000,5,1,1,5,3,0,2,4,0,250.0,test,2,E+
439.63599205,0,1000,2,1,1,5,3,0,2,4,0,250.0,test,0,E+
455.801010132,3,1000,3,1,1,5,3,0,2,4,0,250.0,test,3,E+
615.503072739,5,1000,0,1,1,5,3,0,2,4,0,250.0,test,5,E+
887.301921844,3,1000,3,1,1,5,3,0,2,4,0,250.0,test,3,E+
438.47990036,3,1000,3,1,1,5,3,0,2,4,0,250.0,test,3,E+
501.789093018,1,1000,1,1,1,5,3,0,2,4,0,250.0,test,1,E+
565.853118896,3,1000,3,1,1,5,3,0,2,4,0,250.0,test,3,E+
455.712080002,0,1000,2,1,1,5,3,0,2,4,0,250.0,test,0,E+
517.940998077,1,1000,1,1,1,5,3,0,2,4,0,250.0,test,1,E+
518.32318306,5,1000,0,1,1,5,3,0,2,4,0,250.0,test,5,E+
502.349853516,3,1000,3,0,1,5,3,0,2,4,0,250.0,test,4,E+
679.571151733,3,1000,3,1,1,5,3,0,2,4,0,250.0,test,3,E+
597.814083099,4,1000,4,1,1,5,3,0,2,4,0,250.0,test,4,E+
453.733205795,3,1000,3,1,1,5,3,0,2,4,0,250.0,test,3,E+
453.855037689,0,1000,2,1,1,5,3,0,2,4,0,250.0,test,0,E+
456.977128983,0,1000,2,1,1,5,3,0,2,4,0,250.0,test,0,E+
519.632816315,1,1000,1,1,1,5,3,0,2,4,0,250.0,test,1,E+
567.838191986,3,1000,3,1,1,5,3,0,2,4,0,250.0,test,3,E+
742.363929749,2,1000,5,0,1,5,3,0,2,4,0,250.0,test,1,E+
823.630094528,3,1000,3,1,1,5,3,0,2,4,0,250.0,test,3,E+
645.817041397,1,1000,1,1,1,5,3,0,2,4,0,250.0,test,1,E+
677.896022797,0,1000,2,1,1,5,3,0,2,4,0,250.0,test,0,E+
581.826925278,1,1000,1,1,1,5,3,0,2,4,0,250.0,test,1,E+
455.666065216,2,1000,5,1,1,5,3,0,2,4,0,250.0,test,2,E+
629.967927933,4,1000,4,0,1,5,3,0,2,4,0,250.0,test,3,E+
647.42398262,1,1000,1,1,1,5,3,0,2,4,0,250.0,test,1,E+
615.535974503,5,1000,0,1,1,5,3,0,2,4,0,250.0,test,5,E+
1095.2000618,3,1000,3,1,1,5,3,0,2,4,0,250.0,test,3,E+
551.418066025,5,1000,0,1,1,5,3,0,2,4,0,250.0,test,5,E+
773.785829544,2,1000,5,1,1,5,3,0,2,4,0,250.0,test,2,E+
664.95513916,5,1000,0,1,1,5,3,0,2,4,0,250.0,test,5,E+
789.714097977,3,1000,3,1,1,5,3,0,2,4,0,250.0,test,3,E+
631.403923035,2,1000,5,1,1,5,3,0,2,4,0,250.0,test,2,E+
775.639057159,5,1000,0,1,1,5,3,0,2,4,0,250.0,test,5,E+
823.040962219,3,1000,3,1,1,5,3,0,2,4,0,250.0,test,3,E+
645.891904831,2,1000,5,1,1,5,3,0,2,4,0,250.0,test,2,E+
485.756158829,0,1000,2,1,1,5,3,0,2,4,0,250.0,test,0,E+
535.640954971,2,1000,5,0,1,5,3,0,2,4,0,250.0,test,1,E+
567.577123642,1,1000,1,1,1,5,3,0,2,4,0,250.0,test,1,E+
1207.42321014,4,1000,4,0,1,5,3,0,2,4,0,250.0,test,5,E+
1799.31211472,4,1000,4,1,1,5,3,0,2,4,0,250.0,test,4,E+
487.262964249,4,1000,4,1,1,5,3,0,2,4,0,250.0,test,4,E+
565.849065781,5,1000,0,1,1,5,3,0,2,4,0,250.0,test,5,E+
567.420959473,1,1000,1,0,1,5,3,0,2,4,0,250.0,test,0,E+
681.062936783,0,1000,2,1,1,5,3,0,2,4,0,250.0,test,0,E+
1047.71184921,4,1000,4,1,1,5,3,0,2,4,0,250.0,test,4,E+
565.871953964,0,1000,2,1,1,5,3,0,2,4,0,250.0,test,0,E+
1783.05912018,3,1000,3,1,1,5,3,0,2,4,0,250.0,test,3,E+
582.051992416,0,1000,2,1,1,5,3,0,2,4,0,250.0,test,0,E+
549.827098846,1,1000,1,1,1,5,3,0,2,4,0,250.0,test,1,E+
485.837936401,1,1000,1,1,1,5,3,0,2,4,0,250.0,test,1,E+
581.98094368,2,1000,5,1,1,5,3,0,2,4,0,250.0,test,2,E+
519.041061401,1,1000,1,1,1,5,3,0,2,4,0,250.0,test,1,E+
407.627105713,2,1000,5,1,1,5,3,0,2,4,0,250.0,test,2,E+
535.614967346,1,1000,1,1,1,5,3,0,2,4,0,250.0,test,1,E+
854.324102402,4,1000,4,1,1,5,3,0,2,4,0,250.0,test,4,E+
533.960103989,0,1000,2,1,1,5,3,0,2,4,0,250.0,test,0,E+
600.549936295,2,1000,5,1,1,5,3,0,2,4,0,250.0,test,2,E+
613.997936249,4,1000,4,1,1,5,3,0,2,4,0,250.0,test,4,E+
677.927970886,3,1000,3,0,1,5,3,0,2,4,0,250.0,test,2,E+
455.610990524,0,1000,2,1,1,5,3,0,2,4,0,250.0,test,0,E+
663.614034653,3,1000,3,0,1,5,3,0,2,4,0,250.0,test,4,E+
567.584991455,1,1000,1,1,1,5,3,0,2,4,0,250.0,test,1,E+
1109.8549366,2,1000,5,1,1,5,3,0,2,4,0,250.0,test,2,E+
1029.72817421,0,1000,2,1,1,5,3,0,2,4,0,250.0,test,0,E+
743.504047394,4,1000,4,1,1,5,3,0,2,4,0,250.0,test,4,E+
500.636100769,1,1000,1,1,1,5,3,0,2,4,0,250.0,test,1,E+
551.656007767,3,1000,3,0,1,5,3,0,2,4,0,250.0,test,2,E+
551.383018494,0,1000,2,1,1,5,3,0,2,4,0,250.0,test,0,E+
1029.83212471,4,1000,4,1,1,5,3,0,2,4,0,250.0,test,4,E+
581.818819046,2,1000,5,1,1,5,3,0,2,4,0,250.0,test,2,E+
648.947954178,3,1000,3,0,1,5,3,0,2,4,0,250.0,test,4,E+
677.91390419,2,1000,5,1,1,5,3,0,2,4,0,250.0,test,2,E+
553.09510231,1,1000,1,1,1,5,3,0,2,4,0,250.0,test,1,E+
727.575778961,5,1000,0,1,1,5,3,0,2,4,0,250.0,test,5,E+
695.573091507,2,1000,5,1,1,5,3,0,2,4,0,250.0,test,2,E+
695.242166519,3,1000,3,1,1,5,3,0,2,4,0,250.0,test,3,E+
821.839094162,4,1000,4,1,1,5,3,0,2,4,0,250.0,test,4,E+
631.302833557,4,1000,4,1,1,5,3,0,2,4,0,250.0,test,4,E+
693.816900253,5,1000,0,1,1,5,3,0,2,4,0,250.0,test,5,E+
567.703008652,4,1000,4,1,1,5,3,0,2,4,0,250.0,test,4,E+
615.766048431,1,1000,1,1,1,5,3,0,2,4,0,250.0,test,1,E+
535.357952118,1,1000,1,1,1,5,3,0,2,4,0,250.0,test,1,E+
487.542152405,3,1000,3,0,1,5,3,0,2,4,0,250.0,test,2,E+
599.639177322,0,1000,2,1,1,5,3,0,2,4,0,250.0,test,0,E+
567.270040512,4,1000,4,1,1,5,3,0,2,4,0,250.0,test,4,E+
565.814971924,4,1000,4,0,1,5,3,0,2,4,0,250.0,test,5,E+
693.928956985,5,1000,0,1,1,5,3,0,2,4,0,250.0,test,5,E+
487.12515831,5,1000,0,1,1,5,3,0,2,4,0,250.0,test,5,E+
600.977897644,1,1000,1,0,1,5,3,0,2,4,0,250.0,test,0,E+
613.770008087,2,1000,5,1,1,5,3,0,2,4,0,250.0,test,2,E+
999.427080154,4,1000,4,1,1,5,3,0,2,4,0,250.0,test,4,E+
517.921924591,4,1000,4,1,1,5,3,0,2,4,0,250.0,test,4,E+
757.811069489,2,1000,5,1,1,5,3,0,2,4,0,250.0,test,2,E+
485.940933228,0,1000,2,1,1,5,3,0,2,4,0,250.0,test,0,E+
551.681995392,5,1000,0,1,1,5,3,0,2,4,0,250.0,test,5,E+
599.745035172,2,1000,5,1,1,5,3,0,2,4,0,250.0,test,2,E+
565.918922424,5,1000,0,1,1,5,3,0,2,4,0,250.0,test,5,E+
471.578121185,5,1000,0,1,1,5,3,0,2,4,0,250.0,test,5,E+
358.049869537,5,1000,0,1,1,5,3,0,2,4,0,250.0,test,5,E+
357.938051224,5,1000,0,1,1,5,3,0,2,4,0,250.0,test,5,E+
472.82409668,1,1000,1,1,1,5,3,0,2,4,0,250.0,test,1,E+
517.988920212,2,1000,5,1,1,5,3,0,2,4,0,250.0,test,2,E+
486.107826233,0,1000,2,1,1,5,3,0,2,4,0,250.0,test,0,E+
791.531085968,4,1000,4,1,1,5,3,0,2,4,0,250.0,test,4,E+
663.406848907,2,1000,5,1,1,5,3,0,2,4,0,250.0,test,2,E+
503.252029419,2,1000,5,0,1,5,3,0,2,4,0,250.0,test,1,E+
519.638061523,3,1000,3,0,1,5,3,0,2,4,0,250.0,test,2,E+
649.015188217,3,1000,3,1,1,5,3,0,2,4,0,250.0,test,3,E+
821.860074997,4,1000,4,1,1,5,3,0,2,4,0,250.0,test,4,E+
917.836904526,3,1000,3,1,1,5,3,0,2,4,0,250.0,test,3,E+
535.4180336,0,1000,2,1,1,5,3,0,2,4,0,250.0,test,0,E+
599.714994431,2,1000,5,1,1,5,3,0,2,4,0,250.0,test,2,E+
519.186019897,5,1000,0,1,1,5,3,0,2,4,0,250.0,test,5,E+
823.668003082,3,1000,3,1,1,5,3,0,2,4,0,250.0,test,3,E+
487.411022186,4,1000,4,1,1,5,3,0,2,4,0,250.0,test,4,E+
582.479953766,0,1000,2,1,1,5,3,0,2,4,0,250.0,test,0,E+
871.241807938,3,1000,3,1,1,5,3,0,2,4,0,250.0,test,3,E+
869.863986969,4,1000,4,1,1,5,3,0,2,4,0,250.0,test,4,E+
580.589056015,1,1000,1,1,1,5,3,0,2,4,0,250.0,test,1,E+
728.94692421,4,1000,4,0,1,5,3,0,2,4,0,250.0,test,5,E+
663.514852524,1,1000,1,0,1,5,3,0,2,4,0,250.0,test,0,E+
615.180015564,0,1000,2,1,1,5,3,0,2,4,0,250.0,test,0,E+
951.411008835,3,1000,3,1,1,5,3,0,2,4,0,250.0,test,3,E+
661.88788414,5,1000,0,1,1,5,3,0,2,4,0,250.0,test,5,E+
517.852067947,1,1000,1,1,1,5,3,0,2,4,0,250.0,test,1,E+
933.738946915,3,1000,3,1,1,5,3,0,2,4,0,250.0,test,3,E+
805.852174759,4,1000,4,1,1,5,3,0,2,4,0,250.0,test,4,E+
519.537210464,3,1000,3,1,1,5,3,0,2,4,0,250.0,test,3,E+
501.774072647,3,1000,3,0,1,5,3,0,2,4,0,250.0,test,4,E+
519.562959671,4,1000,4,0,1,5,3,0,2,4,0,250.0,test,5,E+
1670.70388794,2,1000,5,1,1,5,3,0,2,4,0,250.0,test,2,E+
725.952863693,2,1000,5,1,1,5,3,0,2,4,0,250.0,test,2,E+
742.022037506,5,1000,0,1,1,5,3,0,2,4,0,250.0,test,5,E+
501.962900162,4,1000,4,1,1,5,3,0,2,4,0,250.0,test,4,E+
999.335050583,3,1000,3,1,1,5,3,0,2,4,0,250.0,test,3,E+
676.378965378,2,1000,5,1,1,5,3,0,2,4,0,250.0,test,2,E+
583.254098892,2,1000,5,1,1,5,3,0,2,4,0,250.0,test,2,E+
661.960124969,1,1000,1,0,1,5,3,0,2,4,0,250.0,test,0,E+
597.553014755,5,1000,0,1,1,5,3,0,2,4,0,250.0,test,5,E+
871.695041656,3,1000,3,1,1,5,3,0,2,4,0,250.0,test,3,E+
597.750902176,5,1000,0,1,1,5,3,0,2,4,0,250.0,test,5,E+
599.442958832,5,1000,0,1,1,5,3,0,2,4,0,250.0,test,5,E+
807.524204254,2,1000,5,1,1,5,3,0,2,4,0,250.0,test,2,E+
