RT,correct_response,ms-prestimblank,curstim,correct,SRmap_1,SRmap_0,SRmap_3,SRmap_2,SRmap_5,SRmap_4,ms-precue,ntrials,type,response,condition
3129.84609604,1,1000,3,0,0,3,1,2,5,4,0,250.0,train,0,H+
699.611902237,1,1000,3,1,0,3,1,2,5,4,0,250.0,train,1,H+
843.688964844,2,1000,2,1,0,3,1,2,5,4,0,250.0,train,2,H+
1307.08599091,0,1000,1,1,0,3,1,2,5,4,0,250.0,train,0,H+
698.281049728,0,1000,1,1,0,3,1,2,5,4,0,250.0,train,0,H+
554.380178452,0,1000,1,1,0,3,1,2,5,4,0,250.0,train,0,H+
714.349031448,1,1000,3,1,0,3,1,2,5,4,0,250.0,train,1,H+
522.406101227,0,1000,1,1,0,3,1,2,5,4,0,250.0,train,0,H+
426.369190216,2,1000,2,1,0,3,1,2,5,4,0,250.0,train,2,H+
1082.3969841,4,1000,4,1,0,3,1,2,5,4,0,250.0,train,4,H+
730.401039124,2,1000,2,1,0,3,1,2,5,4,0,250.0,train,2,H+
762.345075607,3,1000,0,1,0,3,1,2,5,4,0,250.0,train,3,H+
345.082044601,5,1000,5,1,0,3,1,2,5,4,0,250.0,train,5,H+
538.460016251,1,1000,3,1,0,3,1,2,5,4,0,250.0,train,1,H+
1339.8771286,5,1000,5,1,0,3,1,2,5,4,0,250.0,train,5,H+
986.404895782,5,1000,5,1,0,3,1,2,5,4,0,250.0,train,5,H+
362.276077271,5,1000,5,1,0,3,1,2,5,4,0,250.0,train,5,H+
394.343852997,4,1000,4,0,0,3,1,2,5,4,0,250.0,train,5,H+
939.043998718,3,1000,0,1,0,3,1,2,5,4,0,250.0,train,3,H+
651.646137238,1,1000,3,1,0,3,1,2,5,4,0,250.0,train,1,H+
618.235826492,0,1000,1,1,0,3,1,2,5,4,0,250.0,train,0,H+
554.360866547,1,1000,3,1,0,3,1,2,5,4,0,250.0,train,1,H+
666.361093521,5,1000,5,1,0,3,1,2,5,4,0,250.0,train,5,H+
1066.32113457,4,1000,4,1,0,3,1,2,5,4,0,250.0,train,4,H+
874.351978302,2,1000,2,1,0,3,1,2,5,4,0,250.0,train,2,H+
475.806951523,1,1000,3,1,0,3,1,2,5,4,0,250.0,train,1,H+
555.817127228,5,1000,5,0,0,3,1,2,5,4,0,250.0,train,1,H+
891.834974289,2,1000,2,1,0,3,1,2,5,4,0,250.0,train,2,H+
506.408929825,0,1000,1,1,0,3,1,2,5,4,0,250.0,train,0,H+
1050.44317245,4,1000,4,1,0,3,1,2,5,4,0,250.0,train,4,H+
458.413124084,0,1000,1,1,0,3,1,2,5,4,0,250.0,train,0,H+
538.995027542,3,1000,0,0,0,3,1,2,5,4,0,250.0,train,5,H+
619.812965393,1,1000,3,1,0,3,1,2,5,4,0,250.0,train,1,H+
618.366003036,1,1000,3,1,0,3,1,2,5,4,0,250.0,train,1,H+
474.378108978,2,1000,2,0,0,3,1,2,5,4,0,250.0,train,0,H+
666.285991669,2,1000,2,1,0,3,1,2,5,4,0,250.0,train,2,H+
539.793968201,1,1000,3,1,0,3,1,2,5,4,0,250.0,train,1,H+
826.270103455,5,1000,5,1,0,3,1,2,5,4,0,250.0,train,5,H+
1226.43899918,0,1000,1,1,0,3,1,2,5,4,0,250.0,train,0,H+
715.095996857,2,1000,2,1,0,3,1,2,5,4,0,250.0,train,2,H+
602.426052094,2,1000,2,1,0,3,1,2,5,4,0,250.0,train,2,H+
618.306159973,4,1000,4,1,0,3,1,2,5,4,0,250.0,train,4,H+
554.323911667,1,1000,3,0,0,3,1,2,5,4,0,250.0,train,5,H+
1082.41605759,4,1000,4,0,0,3,1,2,5,4,0,250.0,train,5,H+
666.383981705,4,1000,4,1,0,3,1,2,5,4,0,250.0,train,4,H+
1162.37998009,5,1000,5,1,0,3,1,2,5,4,0,250.0,train,5,H+
555.772066116,0,1000,1,1,0,3,1,2,5,4,0,250.0,train,0,H+
522.232055664,0,1000,1,1,0,3,1,2,5,4,0,250.0,train,0,H+
954.200029373,3,1000,0,1,0,3,1,2,5,4,0,250.0,train,3,H+
570.329904556,3,1000,0,1,0,3,1,2,5,4,0,250.0,train,3,H+
539.046049118,0,1000,1,1,0,3,1,2,5,4,0,250.0,train,0,H+
938.308000565,2,1000,2,1,0,3,1,2,5,4,0,250.0,train,2,H+
538.27381134,0,1000,1,1,0,3,1,2,5,4,0,250.0,train,0,H+
730.298995972,1,1000,3,1,0,3,1,2,5,4,0,250.0,train,1,H+
714.154005051,2,1000,2,1,0,3,1,2,5,4,0,250.0,train,2,H+
890.36488533,0,1000,1,1,0,3,1,2,5,4,0,250.0,train,0,H+
667.808771133,2,1000,2,1,0,3,1,2,5,4,0,250.0,train,2,H+
1083.11605453,4,1000,4,1,0,3,1,2,5,4,0,250.0,train,4,H+
570.332050323,4,1000,4,1,0,3,1,2,5,4,0,250.0,train,4,H+
651.832818985,1,1000,3,1,0,3,1,2,5,4,0,250.0,train,1,H+
523.777961731,1,1000,3,1,0,3,1,2,5,4,0,250.0,train,1,H+
875.813007355,5,1000,5,1,0,3,1,2,5,4,0,250.0,train,5,H+
1354.43806648,3,1000,0,1,0,3,1,2,5,4,0,250.0,train,3,H+
666.367053986,1,1000,3,1,0,3,1,2,5,4,0,250.0,train,1,H+
778.383016586,5,1000,5,1,0,3,1,2,5,4,0,250.0,train,5,H+
491.694927216,5,1000,5,1,0,3,1,2,5,4,0,250.0,train,5,H+
922.415971756,5,1000,5,1,0,3,1,2,5,4,0,250.0,train,5,H+
683.111906052,2,1000,2,0,0,3,1,2,5,4,0,250.0,train,0,H+
1435.12988091,4,1000,4,1,0,3,1,2,5,4,0,250.0,train,4,H+
634.268045425,1,1000,3,1,0,3,1,2,5,4,0,250.0,train,1,H+
698.318004608,2,1000,2,1,0,3,1,2,5,4,0,250.0,train,2,H+
1290.41314125,4,1000,4,1,0,3,1,2,5,4,0,250.0,train,4,H+
1674.37696457,3,1000,0,1,0,3,1,2,5,4,0,250.0,train,3,H+
555.770158768,0,1000,1,1,0,3,1,2,5,4,0,250.0,train,0,H+
954.353094101,3,1000,0,1,0,3,1,2,5,4,0,250.0,train,3,H+
714.385986328,1,1000,3,1,0,3,1,2,5,4,0,250.0,train,1,H+
1130.14292717,3,1000,0,1,0,3,1,2,5,4,0,250.0,train,3,H+
635.792970657,1,1000,3,1,0,3,1,2,5,4,0,250.0,train,1,H+
793.119907379,5,1000,5,1,0,3,1,2,5,4,0,250.0,train,5,H+
1099.87211227,3,1000,0,1,0,3,1,2,5,4,0,250.0,train,3,H+
586.374044418,1,1000,3,1,0,3,1,2,5,4,0,250.0,train,1,H+
682.306051254,5,1000,5,1,0,3,1,2,5,4,0,250.0,train,5,H+
939.681053162,4,1000,4,1,0,3,1,2,5,4,0,250.0,train,4,H+
907.078027725,5,1000,5,0,0,3,1,2,5,4,0,250.0,train,1,H+
570.106983185,0,1000,1,1,0,3,1,2,5,4,0,250.0,train,0,H+
732.225894928,2,1000,2,1,0,3,1,2,5,4,0,250.0,train,2,H+
1193.22013855,3,1000,0,1,0,3,1,2,5,4,0,250.0,train,3,H+
1148.43082428,4,1000,4,1,0,3,1,2,5,4,0,250.0,train,4,H+
762.362003326,2,1000,2,1,0,3,1,2,5,4,0,250.0,train,2,H+
826.418876648,5,1000,5,1,0,3,1,2,5,4,0,250.0,train,5,H+
1147.76182175,3,1000,0,1,0,3,1,2,5,4,0,250.0,train,3,H+
827.868938446,3,1000,0,1,0,3,1,2,5,4,0,250.0,train,3,H+
650.350093842,2,1000,2,0,0,3,1,2,5,4,0,250.0,train,0,H+
746.401071548,0,1000,1,1,0,3,1,2,5,4,0,250.0,train,0,H+
1034.36899185,3,1000,0,1,0,3,1,2,5,4,0,250.0,train,3,H+
571.061849594,0,1000,1,1,0,3,1,2,5,4,0,250.0,train,0,H+
522.316932678,0,1000,1,1,0,3,1,2,5,4,0,250.0,train,0,H+
1162.44006157,3,1000,0,1,0,3,1,2,5,4,0,250.0,train,3,H+
618.39389801,1,1000,3,1,0,3,1,2,5,4,0,250.0,train,1,H+
746.311903,5,1000,5,1,0,3,1,2,5,4,0,250.0,train,5,H+
794.403076172,2,1000,2,1,0,3,1,2,5,4,0,250.0,train,2,H+
762.281894684,1,1000,3,1,0,3,1,2,5,4,0,250.0,train,1,H+
779.10900116,2,1000,2,1,0,3,1,2,5,4,0,250.0,train,2,H+
570.34611702,0,1000,1,1,0,3,1,2,5,4,0,250.0,train,0,H+
539.798021317,0,1000,1,1,0,3,1,2,5,4,0,250.0,train,0,H+
699.798822403,5,1000,5,1,0,3,1,2,5,4,0,250.0,train,5,H+
474.305868149,3,1000,0,1,0,3,1,2,5,4,0,250.0,train,3,H+
379.823923111,1,1000,3,1,0,3,1,2,5,4,0,250.0,train,1,H+
522.393941879,0,1000,1,1,0,3,1,2,5,4,0,250.0,train,0,H+
731.825828552,2,1000,2,0,0,3,1,2,5,4,0,250.0,train,0,H+
555.869102478,0,1000,1,1,0,3,1,2,5,4,0,250.0,train,0,H+
586.349010468,0,1000,1,1,0,3,1,2,5,4,0,250.0,train,0,H+
571.599006653,1,1000,3,1,0,3,1,2,5,4,0,250.0,train,1,H+
474.363088608,1,1000,3,1,0,3,1,2,5,4,0,250.0,train,1,H+
1066.37120247,3,1000,0,1,0,3,1,2,5,4,0,250.0,train,3,H+
602.313041687,4,1000,4,1,0,3,1,2,5,4,0,250.0,train,4,H+
1114.4220829,5,1000,5,1,0,3,1,2,5,4,0,250.0,train,5,H+
634.335041046,3,1000,0,0,0,3,1,2,5,4,0,250.0,train,4,H+
603.758096695,0,1000,1,1,0,3,1,2,5,4,0,250.0,train,0,H+
554.381847382,0,1000,1,1,0,3,1,2,5,4,0,250.0,train,0,H+
587.819814682,1,1000,3,1,0,3,1,2,5,4,0,250.0,train,1,H+
891.638994217,4,1000,4,0,0,3,1,2,5,4,0,250.0,train,3,H+
602.397918701,4,1000,4,1,0,3,1,2,5,4,0,250.0,train,4,H+
907.092094421,2,1000,2,1,0,3,1,2,5,4,0,250.0,train,2,H+
826.377868652,5,1000,5,1,0,3,1,2,5,4,0,250.0,train,5,H+
650.270938873,1,1000,3,1,0,3,1,2,5,4,0,250.0,train,1,H+
906.376123428,3,1000,0,1,0,3,1,2,5,4,0,250.0,train,3,H+
714.361906052,2,1000,2,1,0,3,1,2,5,4,0,250.0,train,2,H+
938.389062881,4,1000,4,1,0,3,1,2,5,4,0,250.0,train,4,H+
650.371789932,4,1000,4,1,0,3,1,2,5,4,0,250.0,train,4,H+
842.441082001,3,1000,0,1,0,3,1,2,5,4,0,250.0,train,3,H+
650.416135788,3,1000,0,1,0,3,1,2,5,4,0,250.0,train,3,H+
618.423938751,0,1000,1,1,0,3,1,2,5,4,0,250.0,train,0,H+
1451.1179924,3,1000,0,1,0,3,1,2,5,4,0,250.0,train,3,H+
842.363119125,5,1000,5,0,0,3,1,2,5,4,0,250.0,train,1,H+
1355.80682755,4,1000,4,1,0,3,1,2,5,4,0,250.0,train,4,H+
667.4451828,0,1000,1,1,0,3,1,2,5,4,0,250.0,train,0,H+
874.350070953,3,1000,0,1,0,3,1,2,5,4,0,250.0,train,3,H+
746.381998062,4,1000,4,0,0,3,1,2,5,4,0,250.0,train,3,H+
1275.4778862,3,1000,0,1,0,3,1,2,5,4,0,250.0,train,3,H+
826.251029968,5,1000,5,1,0,3,1,2,5,4,0,250.0,train,5,H+
554.30316925,5,1000,5,1,0,3,1,2,5,4,0,250.0,train,5,H+
1114.34292793,3,1000,0,1,0,3,1,2,5,4,0,250.0,train,3,H+
650.267124176,0,1000,1,1,0,3,1,2,5,4,0,250.0,train,0,H+
635.026931763,0,1000,1,1,0,3,1,2,5,4,0,250.0,train,0,H+
922.291994095,4,1000,4,1,0,3,1,2,5,4,0,250.0,train,4,H+
602.376937866,0,1000,1,1,0,3,1,2,5,4,0,250.0,train,0,H+
426.856040955,4,1000,4,1,0,3,1,2,5,4,0,250.0,train,4,H+
476.686954498,0,1000,1,1,0,3,1,2,5,4,0,250.0,train,0,H+
842.526912689,3,1000,0,0,0,3,1,2,5,4,0,250.0,train,4,H+
555.850028992,2,1000,2,1,0,3,1,2,5,4,0,250.0,train,2,H+
970.377922058,5,1000,5,1,0,3,1,2,5,4,0,250.0,train,5,H+
618.438005447,1,1000,3,1,0,3,1,2,5,4,0,250.0,train,1,H+
634.296894073,5,1000,5,0,0,3,1,2,5,4,0,250.0,train,1,H+
714.393138885,1,1000,3,1,0,3,1,2,5,4,0,250.0,train,1,H+
602.354049683,2,1000,2,1,0,3,1,2,5,4,0,250.0,train,2,H+
506.367921829,4,1000,4,1,0,3,1,2,5,4,0,250.0,train,4,H+
554.96096611,0,1000,1,1,0,3,1,2,5,4,0,250.0,train,0,H+
730.326890945,5,1000,5,1,0,3,1,2,5,4,0,250.0,train,5,H+
778.398990631,1,1000,3,1,0,3,1,2,5,4,0,250.0,train,1,H+
826.406002045,5,1000,5,1,0,3,1,2,5,4,0,250.0,train,5,H+
634.330034256,5,1000,5,1,0,3,1,2,5,4,0,250.0,train,5,H+
666.217088699,2,1000,2,1,0,3,1,2,5,4,0,250.0,train,2,H+
554.360151291,0,1000,1,1,0,3,1,2,5,4,0,250.0,train,0,H+
459.022045135,0,1000,1,1,0,3,1,2,5,4,0,250.0,train,0,H+
651.775121689,5,1000,5,1,0,3,1,2,5,4,0,250.0,train,5,H+
778.424024582,3,1000,0,1,0,3,1,2,5,4,0,250.0,train,3,H+
459.846973419,3,1000,0,1,0,3,1,2,5,4,0,250.0,train,3,H+
571.040153503,2,1000,2,1,0,3,1,2,5,4,0,250.0,train,2,H+
618.316888809,0,1000,1,1,0,3,1,2,5,4,0,250.0,train,0,H+
939.133882523,1,1000,3,1,0,3,1,2,5,4,0,250.0,train,1,H+
666.360855103,3,1000,0,1,0,3,1,2,5,4,0,250.0,train,3,H+
426.363945007,4,1000,4,1,0,3,1,2,5,4,0,250.0,train,4,H+
522.405862808,4,1000,4,1,0,3,1,2,5,4,0,250.0,train,4,H+
522.37701416,2,1000,2,1,0,3,1,2,5,4,0,250.0,train,2,H+
570.370197296,1,1000,3,1,0,3,1,2,5,4,0,250.0,train,1,H+
538.438796997,0,1000,1,1,0,3,1,2,5,4,0,250.0,train,0,H+
698.325157166,5,1000,5,1,0,3,1,2,5,4,0,250.0,train,5,H+
651.793003082,4,1000,4,1,0,3,1,2,5,4,0,250.0,train,4,H+
891.950130463,3,1000,0,0,0,3,1,2,5,4,0,250.0,train,2,H+
635.847806931,1,1000,3,1,0,3,1,2,5,4,0,250.0,train,1,H+
778.347015381,5,1000,5,1,0,3,1,2,5,4,0,250.0,train,5,H+
587.662935257,2,1000,2,1,0,3,1,2,5,4,0,250.0,train,2,H+
555.732011795,0,1000,1,1,0,3,1,2,5,4,0,250.0,train,0,H+
778.382062912,5,1000,5,1,0,3,1,2,5,4,0,250.0,train,5,H+
778.29003334,3,1000,0,0,0,3,1,2,5,4,0,250.0,train,4,H+
570.390939713,4,1000,4,1,0,3,1,2,5,4,0,250.0,train,4,H+
746.434926987,4,1000,4,1,0,3,1,2,5,4,0,250.0,train,4,H+
1018.36419106,4,1000,4,1,0,3,1,2,5,4,0,250.0,train,4,H+
714.368104935,0,1000,1,1,0,3,1,2,5,4,0,250.0,train,0,H+
730.376958847,0,1000,1,1,0,3,1,2,5,4,0,250.0,train,0,H+
618.370056152,4,1000,4,1,0,3,1,2,5,4,0,250.0,train,4,H+
891.132116318,4,1000,4,1,0,3,1,2,5,4,0,250.0,train,4,H+
762.432098389,3,1000,0,1,0,3,1,2,5,4,0,250.0,train,3,H+
810.373067856,4,1000,4,1,0,3,1,2,5,4,0,250.0,train,4,H+
617.703914642,1,1000,3,1,0,3,1,2,5,4,0,250.0,train,1,H+
601.943016052,2,1000,2,1,0,3,1,2,5,4,0,250.0,train,2,H+
650.348901749,5,1000,5,1,0,3,1,2,5,4,0,250.0,train,5,H+
746.369838715,1,1000,3,1,0,3,1,2,5,4,0,250.0,train,1,H+
939.076185226,3,1000,0,1,0,3,1,2,5,4,0,250.0,train,3,H+
1003.81302834,1,1000,3,1,0,3,1,2,5,4,0,250.0,train,1,H+
506.355047226,1,1000,3,1,0,3,1,2,5,4,0,250.0,train,1,H+
491.5599823,0,1000,1,1,0,3,1,2,5,4,0,250.0,train,0,H+
555.665016174,2,1000,2,1,0,3,1,2,5,4,0,250.0,train,2,H+
410.298109055,2,1000,2,1,0,3,1,2,5,4,0,250.0,train,2,H+
475.660085678,5,1000,5,0,0,3,1,2,5,4,0,250.0,train,4,H+
682.38902092,3,1000,0,1,0,3,1,2,5,4,0,250.0,train,3,H+
874.397993088,5,1000,5,1,0,3,1,2,5,4,0,250.0,train,5,H+
474.352121353,5,1000,5,1,0,3,1,2,5,4,0,250.0,train,5,H+
1626.84106827,3,1000,0,1,0,3,1,2,5,4,0,250.0,train,3,H+
522.337913513,2,1000,2,1,0,3,1,2,5,4,0,250.0,train,2,H+
764.710903168,3,1000,0,1,0,3,1,2,5,4,0,250.0,train,3,H+
619.755983353,5,1000,5,1,0,3,1,2,5,4,0,250.0,train,5,H+
507.858991623,2,1000,2,1,0,3,1,2,5,4,0,250.0,train,2,H+
539.044141769,2,1000,2,1,0,3,1,2,5,4,0,250.0,train,2,H+
699.782848358,5,1000,5,1,0,3,1,2,5,4,0,250.0,train,5,H+
970.131158829,3,1000,0,1,0,3,1,2,5,4,0,250.0,train,3,H+
682.416915894,5,1000,5,1,0,3,1,2,5,4,0,250.0,train,5,H+
650.381088257,2,1000,2,1,0,3,1,2,5,4,0,250.0,train,2,H+
778.383970261,3,1000,0,1,0,3,1,2,5,4,0,250.0,train,3,H+
538.376092911,0,1000,1,1,0,3,1,2,5,4,0,250.0,train,0,H+
699.822902679,3,1000,0,1,0,3,1,2,5,4,0,250.0,train,3,H+
666.342973709,3,1000,0,1,0,3,1,2,5,4,0,250.0,train,3,H+
394.415140152,5,1000,5,1,0,3,1,2,5,4,0,250.0,train,5,H+
490.365028381,3,1000,0,0,0,3,1,2,5,4,0,250.0,train,2,H+
634.320020676,3,1000,0,1,0,3,1,2,5,4,0,250.0,train,3,H+
394.316196442,2,1000,2,1,0,3,1,2,5,4,0,250.0,train,2,H+
602.287054062,1,1000,3,1,0,3,1,2,5,4,0,250.0,train,1,H+
522.341966629,2,1000,2,1,0,3,1,2,5,4,0,250.0,train,2,H+
506.319999695,5,1000,5,0,0,3,1,2,5,4,0,250.0,train,3,H+
1210.37697792,4,1000,4,1,0,3,1,2,5,4,0,250.0,train,4,H+
634.407997131,3,1000,0,1,0,3,1,2,5,4,0,250.0,train,3,H+
746.315002441,5,1000,5,1,0,3,1,2,5,4,0,250.0,train,5,H+
618.411064148,4,1000,4,1,0,3,1,2,5,4,0,250.0,train,4,H+
1003.6919117,5,1000,5,1,0,3,1,2,5,4,0,250.0,train,5,H+
1003.0708313,5,1000,5,1,0,3,1,2,5,4,0,250.0,train,5,H+
475.638866425,2,1000,2,1,0,3,1,2,5,4,0,250.0,train,2,H+
618.276834488,2,1000,2,1,0,3,1,2,5,4,0,250.0,train,2,H+
1690.36698341,3,1000,0,1,0,3,1,2,5,4,0,250.0,train,3,H+
1067.85202026,3,1000,0,1,0,3,1,2,5,4,0,250.0,train,3,H+
1515.77496529,4,1000,4,1,0,3,1,2,5,4,0,250.0,train,4,H+
490.370988846,4,1000,4,1,0,3,1,2,5,4,0,250.0,train,4,H+
634.355068207,5,1000,5,0,0,3,1,2,5,4,0,250.0,train,1,H+
586.428165436,5,1000,5,1,0,3,1,2,5,4,0,250.0,train,5,H+
491.804838181,5,1000,5,1,0,3,1,2,5,4,0,250.0,train,5,H+
667.862176895,4,1000,4,1,0,3,1,2,5,4,0,250.0,train,4,H+
811.743021011,2,1000,2,1,0,3,1,2,5,4,0,250.0,train,2,H+
538.334846497,0,1000,1,1,0,3,1,2,5,4,0,250.0,train,0,H+
378.299951553,0,1000,1,1,0,3,1,2,5,4,0,250.0,train,0,H+
570.371866226,4,1000,4,1,0,3,1,2,5,4,0,250.0,train,4,H+
1754.19807434,4,1000,4,1,0,3,1,2,5,4,0,250.0,test,4,H+
1163.08188438,5,1000,5,1,0,3,1,2,5,4,0,250.0,test,5,H+
698.360919952,5,1000,5,1,0,3,1,2,5,4,0,250.0,test,5,H+
651.874780655,0,1000,1,1,0,3,1,2,5,4,0,250.0,test,0,H+
730.463981628,5,1000,5,1,0,3,1,2,5,4,0,250.0,test,5,H+
778.323888779,1,1000,3,1,0,3,1,2,5,4,0,250.0,test,1,H+
906.414985657,3,1000,0,1,0,3,1,2,5,4,0,250.0,test,3,H+
602.397918701,5,1000,5,1,0,3,1,2,5,4,0,250.0,test,5,H+
634.369850159,2,1000,2,1,0,3,1,2,5,4,0,250.0,test,2,H+
747.858047485,3,1000,0,1,0,3,1,2,5,4,0,250.0,test,3,H+
506.364107132,1,1000,3,0,0,3,1,2,5,4,0,250.0,test,0,H+
859.086036682,0,1000,1,1,0,3,1,2,5,4,0,250.0,test,0,H+
474.337100983,0,1000,1,1,0,3,1,2,5,4,0,250.0,test,0,H+
778.309106827,5,1000,5,1,0,3,1,2,5,4,0,250.0,test,5,H+
570.297956467,2,1000,2,1,0,3,1,2,5,4,0,250.0,test,2,H+
555.689811707,5,1000,5,1,0,3,1,2,5,4,0,250.0,test,5,H+
1098.26397896,3,1000,0,1,0,3,1,2,5,4,0,250.0,test,3,H+
602.39982605,3,1000,0,1,0,3,1,2,5,4,0,250.0,test,3,H+
459.134817123,3,1000,0,1,0,3,1,2,5,4,0,250.0,test,3,H+
618.364095688,0,1000,1,1,0,3,1,2,5,4,0,250.0,test,0,H+
779.829025269,3,1000,0,1,0,3,1,2,5,4,0,250.0,test,3,H+
778.959989548,1,1000,3,1,0,3,1,2,5,4,0,250.0,test,1,H+
442.466020584,1,1000,3,1,0,3,1,2,5,4,0,250.0,test,1,H+
346.276044846,1,1000,3,1,0,3,1,2,5,4,0,250.0,test,1,H+
570.453882217,3,1000,0,1,0,3,1,2,5,4,0,250.0,test,3,H+
539.073944092,2,1000,2,1,0,3,1,2,5,4,0,250.0,test,2,H+
569.113969803,0,1000,1,1,0,3,1,2,5,4,0,250.0,test,0,H+
411.046028137,0,1000,1,1,0,3,1,2,5,4,0,250.0,test,0,H+
715.802907944,5,1000,5,1,0,3,1,2,5,4,0,250.0,test,5,H+
539.029121399,0,1000,1,1,0,3,1,2,5,4,0,250.0,test,0,H+
586.416959763,2,1000,2,1,0,3,1,2,5,4,0,250.0,test,2,H+
634.375095367,3,1000,0,1,0,3,1,2,5,4,0,250.0,test,3,H+
602.35786438,2,1000,2,1,0,3,1,2,5,4,0,250.0,test,2,H+
426.462173462,2,1000,2,1,0,3,1,2,5,4,0,250.0,test,2,H+
522.420167923,0,1000,1,1,0,3,1,2,5,4,0,250.0,test,0,H+
746.429204941,4,1000,4,1,0,3,1,2,5,4,0,250.0,test,4,H+
650.40397644,1,1000,3,0,0,3,1,2,5,4,0,250.0,test,5,H+
1082.43393898,4,1000,4,1,0,3,1,2,5,4,0,250.0,test,4,H+
970.392942429,5,1000,5,1,0,3,1,2,5,4,0,250.0,test,5,H+
571.832895279,3,1000,0,0,0,3,1,2,5,4,0,250.0,test,4,H+
938.416957855,5,1000,5,1,0,3,1,2,5,4,0,250.0,test,5,H+
747.779846191,5,1000,5,1,0,3,1,2,5,4,0,250.0,test,5,H+
922.121047974,1,1000,3,1,0,3,1,2,5,4,0,250.0,test,1,H+
507.776021957,1,1000,3,1,0,3,1,2,5,4,0,250.0,test,1,H+
650.984048843,1,1000,3,1,0,3,1,2,5,4,0,250.0,test,1,H+
571.635007858,2,1000,2,1,0,3,1,2,5,4,0,250.0,test,2,H+
970.297813416,4,1000,4,1,0,3,1,2,5,4,0,250.0,test,4,H+
490.320920944,4,1000,4,1,0,3,1,2,5,4,0,250.0,test,4,H+
954.221010208,0,1000,1,1,0,3,1,2,5,4,0,250.0,test,0,H+
714.426994324,2,1000,2,1,0,3,1,2,5,4,0,250.0,test,2,H+
588.546037674,5,1000,5,1,0,3,1,2,5,4,0,250.0,test,5,H+
650.310993195,1,1000,3,1,0,3,1,2,5,4,0,250.0,test,1,H+
553.815126419,5,1000,5,0,0,3,1,2,5,4,0,250.0,test,4,H+
635.86306572,1,1000,3,1,0,3,1,2,5,4,0,250.0,test,1,H+
491.791009903,1,1000,3,1,0,3,1,2,5,4,0,250.0,test,1,H+
395.7259655,1,1000,3,1,0,3,1,2,5,4,0,250.0,test,1,H+
633.186817169,4,1000,4,1,0,3,1,2,5,4,0,250.0,test,4,H+
443.857908249,4,1000,4,1,0,3,1,2,5,4,0,250.0,test,4,H+
714.424133301,5,1000,5,1,0,3,1,2,5,4,0,250.0,test,5,H+
523.078203201,0,1000,1,1,0,3,1,2,5,4,0,250.0,test,0,H+
746.311903,3,1000,0,0,0,3,1,2,5,4,0,250.0,test,4,H+
346.351861954,3,1000,0,1,0,3,1,2,5,4,0,250.0,test,3,H+
570.374011993,0,1000,1,1,0,3,1,2,5,4,0,250.0,test,0,H+
666.401863098,5,1000,5,1,0,3,1,2,5,4,0,250.0,test,5,H+
491.054058075,5,1000,5,1,0,3,1,2,5,4,0,250.0,test,5,H+
490.456104279,3,1000,0,1,0,3,1,2,5,4,0,250.0,test,3,H+
379.099845886,4,1000,4,1,0,3,1,2,5,4,0,250.0,test,4,H+
522.424936295,4,1000,4,1,0,3,1,2,5,4,0,250.0,test,4,H+
523.068189621,1,1000,3,1,0,3,1,2,5,4,0,250.0,test,1,H+
490.384817123,2,1000,2,1,0,3,1,2,5,4,0,250.0,test,2,H+
523.087024689,0,1000,1,1,0,3,1,2,5,4,0,250.0,test,0,H+
651.843070984,2,1000,2,1,0,3,1,2,5,4,0,250.0,test,2,H+
506.368160248,4,1000,4,1,0,3,1,2,5,4,0,250.0,test,4,H+
778.303146362,5,1000,5,1,0,3,1,2,5,4,0,250.0,test,5,H+
539.837837219,3,1000,0,1,0,3,1,2,5,4,0,250.0,test,3,H+
603.808879852,1,1000,3,0,0,3,1,2,5,4,0,250.0,test,5,H+
1529.03079987,4,1000,4,1,0,3,1,2,5,4,0,250.0,test,4,H+
458.232879639,3,1000,0,1,0,3,1,2,5,4,0,250.0,test,3,H+
475.641965866,4,1000,4,1,0,3,1,2,5,4,0,250.0,test,4,H+
602.385997772,1,1000,3,1,0,3,1,2,5,4,0,250.0,test,1,H+
619.08197403,2,1000,2,1,0,3,1,2,5,4,0,250.0,test,2,H+
602.308034897,4,1000,4,1,0,3,1,2,5,4,0,250.0,test,4,H+
522.418022156,0,1000,1,1,0,3,1,2,5,4,0,250.0,test,0,H+
426.360845566,0,1000,1,1,0,3,1,2,5,4,0,250.0,test,0,H+
570.425033569,5,1000,5,1,0,3,1,2,5,4,0,250.0,test,5,H+
699.043989182,3,1000,0,1,0,3,1,2,5,4,0,250.0,test,3,H+
730.345010757,4,1000,4,1,0,3,1,2,5,4,0,250.0,test,4,H+
554.491996765,0,1000,1,1,0,3,1,2,5,4,0,250.0,test,0,H+
682.365179062,1,1000,3,1,0,3,1,2,5,4,0,250.0,test,1,H+
792.222976685,0,1000,1,1,0,3,1,2,5,4,0,250.0,test,0,H+
555.78994751,4,1000,4,1,0,3,1,2,5,4,0,250.0,test,4,H+
410.427808762,4,1000,4,1,0,3,1,2,5,4,0,250.0,test,4,H+
891.753911972,1,1000,3,1,0,3,1,2,5,4,0,250.0,test,1,H+
458.374023438,1,1000,3,1,0,3,1,2,5,4,0,250.0,test,1,H+
378.34405899,1,1000,3,1,0,3,1,2,5,4,0,250.0,test,1,H+
346.376895905,1,1000,3,1,0,3,1,2,5,4,0,250.0,test,1,H+
618.465900421,3,1000,0,1,0,3,1,2,5,4,0,250.0,test,3,H+
362.483024597,5,1000,5,0,0,3,1,2,5,4,0,250.0,test,4,H+
746.312141418,1,1000,3,1,0,3,1,2,5,4,0,250.0,test,1,H+
378.191947937,1,1000,3,1,0,3,1,2,5,4,0,250.0,test,1,H+
587.796926498,3,1000,0,1,0,3,1,2,5,4,0,250.0,test,3,H+
554.448127747,0,1000,1,1,0,3,1,2,5,4,0,250.0,test,0,H+
458.232879639,0,1000,1,1,0,3,1,2,5,4,0,250.0,test,0,H+
523.834943771,1,1000,3,1,0,3,1,2,5,4,0,250.0,test,1,H+
570.266962051,4,1000,4,1,0,3,1,2,5,4,0,250.0,test,4,H+
554.354906082,2,1000,2,1,0,3,1,2,5,4,0,250.0,test,2,H+
442.398071289,4,1000,4,1,0,3,1,2,5,4,0,250.0,test,4,H+
538.377046585,5,1000,5,1,0,3,1,2,5,4,0,250.0,test,5,H+
507.82585144,2,1000,2,1,0,3,1,2,5,4,0,250.0,test,2,H+
523.851156235,0,1000,1,1,0,3,1,2,5,4,0,250.0,test,0,H+
394.835948944,1,1000,3,1,0,3,1,2,5,4,0,250.0,test,1,H+
507.853984833,0,1000,1,0,0,3,1,2,5,4,0,250.0,test,2,H+
650.327920914,3,1000,0,0,0,3,1,2,5,4,0,250.0,test,4,H+
554.353952408,2,1000,2,1,0,3,1,2,5,4,0,250.0,test,2,H+
714.201927185,5,1000,5,1,0,3,1,2,5,4,0,250.0,test,5,H+
538.414001465,1,1000,3,0,0,3,1,2,5,4,0,250.0,test,2,H+
586.398124695,1,1000,3,1,0,3,1,2,5,4,0,250.0,test,1,H+
1194.44394112,3,1000,0,1,0,3,1,2,5,4,0,250.0,test,3,H+
489.907979965,3,1000,0,1,0,3,1,2,5,4,0,250.0,test,3,H+
779.80017662,5,1000,5,0,0,3,1,2,5,4,0,250.0,test,1,H+
523.707866669,1,1000,3,1,0,3,1,2,5,4,0,250.0,test,1,H+
602.425098419,2,1000,2,1,0,3,1,2,5,4,0,250.0,test,2,H+
715.065956116,5,1000,5,1,0,3,1,2,5,4,0,250.0,test,5,H+
571.808099747,1,1000,3,1,0,3,1,2,5,4,0,250.0,test,1,H+
730.375051498,3,1000,0,1,0,3,1,2,5,4,0,250.0,test,3,H+
602.377891541,1,1000,3,1,0,3,1,2,5,4,0,250.0,test,1,H+
571.23208046,2,1000,2,1,0,3,1,2,5,4,0,250.0,test,2,H+
634.305000305,0,1000,1,1,0,3,1,2,5,4,0,250.0,test,0,H+
522.365093231,2,1000,2,1,0,3,1,2,5,4,0,250.0,test,2,H+
426.297187805,2,1000,2,1,0,3,1,2,5,4,0,250.0,test,2,H+
474.341869354,4,1000,4,1,0,3,1,2,5,4,0,250.0,test,4,H+
362.279891968,3,1000,0,1,0,3,1,2,5,4,0,250.0,test,3,H+
490.36192894,5,1000,5,0,0,3,1,2,5,4,0,250.0,test,1,H+
762.281894684,5,1000,5,1,0,3,1,2,5,4,0,250.0,test,5,H+
746.333122253,1,1000,3,1,0,3,1,2,5,4,0,250.0,test,1,H+
634.331941605,2,1000,2,1,0,3,1,2,5,4,0,250.0,test,2,H+
666.390895844,2,1000,2,1,0,3,1,2,5,4,0,250.0,test,2,H+
666.337966919,4,1000,4,1,0,3,1,2,5,4,0,250.0,test,4,H+
890.918970108,3,1000,0,1,0,3,1,2,5,4,0,250.0,test,3,H+
922.309160233,1,1000,3,1,0,3,1,2,5,4,0,250.0,test,1,H+
506.313085556,2,1000,2,1,0,3,1,2,5,4,0,250.0,test,2,H+
827.852964401,4,1000,4,1,0,3,1,2,5,4,0,250.0,test,4,H+
555.644989014,3,1000,0,1,0,3,1,2,5,4,0,250.0,test,3,H+
570.995092392,0,1000,1,1,0,3,1,2,5,4,0,250.0,test,0,H+
682.364940643,5,1000,5,1,0,3,1,2,5,4,0,250.0,test,5,H+
762.366056442,5,1000,5,1,0,3,1,2,5,4,0,250.0,test,5,H+
474.364042282,5,1000,5,1,0,3,1,2,5,4,0,250.0,test,5,H+
666.337013245,2,1000,2,1,0,3,1,2,5,4,0,250.0,test,2,H+
1179.83007431,3,1000,0,1,0,3,1,2,5,4,0,250.0,test,3,H+
762.477874756,5,1000,5,1,0,3,1,2,5,4,0,250.0,test,5,H+
507.739067078,3,1000,0,1,0,3,1,2,5,4,0,250.0,test,3,H+
555.240869522,2,1000,2,1,0,3,1,2,5,4,0,250.0,test,2,H+
635.763168335,0,1000,1,1,0,3,1,2,5,4,0,250.0,test,0,H+
683.815002441,3,1000,0,1,0,3,1,2,5,4,0,250.0,test,3,H+
603.028059006,4,1000,4,1,0,3,1,2,5,4,0,250.0,test,4,H+
842.354059219,1,1000,3,1,0,3,1,2,5,4,0,250.0,test,1,H+
522.527933121,2,1000,2,1,0,3,1,2,5,4,0,250.0,test,2,H+
474.339962006,0,1000,1,1,0,3,1,2,5,4,0,250.0,test,0,H+
394.40703392,2,1000,2,0,0,3,1,2,5,4,0,250.0,test,0,H+
794.400930405,5,1000,5,1,0,3,1,2,5,4,0,250.0,test,5,H+
890.385150909,4,1000,4,1,0,3,1,2,5,4,0,250.0,test,4,H+
587.828874588,0,1000,1,1,0,3,1,2,5,4,0,250.0,test,0,H+
714.407920837,3,1000,0,1,0,3,1,2,5,4,0,250.0,test,3,H+
1194.45896149,0,1000,1,1,0,3,1,2,5,4,0,250.0,test,0,H+
811.120033264,1,1000,3,1,0,3,1,2,5,4,0,250.0,test,1,H+
618.407011032,5,1000,5,1,0,3,1,2,5,4,0,250.0,test,5,H+
538.31410408,0,1000,1,1,0,3,1,2,5,4,0,250.0,test,0,H+
730.306148529,5,1000,5,1,0,3,1,2,5,4,0,250.0,test,5,H+
714.412927628,4,1000,4,1,0,3,1,2,5,4,0,250.0,test,4,H+
682.481050491,2,1000,2,1,0,3,1,2,5,4,0,250.0,test,2,H+
474.395990372,2,1000,2,1,0,3,1,2,5,4,0,250.0,test,2,H+
539.788007736,0,1000,1,1,0,3,1,2,5,4,0,250.0,test,0,H+
570.303916931,0,1000,1,1,0,3,1,2,5,4,0,250.0,test,0,H+
603.781938553,2,1000,2,1,0,3,1,2,5,4,0,250.0,test,2,H+
778.32198143,5,1000,5,1,0,3,1,2,5,4,0,250.0,test,5,H+
506.167173386,5,1000,5,1,0,3,1,2,5,4,0,250.0,test,5,H+
618.241071701,4,1000,4,1,0,3,1,2,5,4,0,250.0,test,4,H+
843.033790588,1,1000,3,1,0,3,1,2,5,4,0,250.0,test,1,H+
618.412971497,2,1000,2,1,0,3,1,2,5,4,0,250.0,test,2,H+
618.391036987,0,1000,1,1,0,3,1,2,5,4,0,250.0,test,0,H+
714.452981949,3,1000,0,0,0,3,1,2,5,4,0,250.0,test,4,H+
539.772987366,1,1000,3,1,0,3,1,2,5,4,0,250.0,test,1,H+
539.824008942,1,1000,3,1,0,3,1,2,5,4,0,250.0,test,1,H+
554.34012413,2,1000,2,1,0,3,1,2,5,4,0,250.0,test,2,H+
634.442090988,1,1000,3,1,0,3,1,2,5,4,0,250.0,test,1,H+
571.846961975,2,1000,2,1,0,3,1,2,5,4,0,250.0,test,2,H+
955.778837204,5,1000,5,1,0,3,1,2,5,4,0,250.0,test,5,H+
715.843915939,0,1000,1,1,0,3,1,2,5,4,0,250.0,test,0,H+
746.421813965,5,1000,5,1,0,3,1,2,5,4,0,250.0,test,5,H+
602.375984192,2,1000,2,1,0,3,1,2,5,4,0,250.0,test,2,H+
618.338108063,0,1000,1,1,0,3,1,2,5,4,0,250.0,test,0,H+
682.408809662,0,1000,1,1,0,3,1,2,5,4,0,250.0,test,0,H+
602.22196579,4,1000,4,1,0,3,1,2,5,4,0,250.0,test,4,H+
635.11800766,0,1000,1,1,0,3,1,2,5,4,0,250.0,test,0,H+
874.349832535,3,1000,0,0,0,3,1,2,5,4,0,250.0,test,4,H+
698.395967484,1,1000,3,1,0,3,1,2,5,4,0,250.0,test,1,H+
650.04491806,1,1000,3,1,0,3,1,2,5,4,0,250.0,test,1,H+
714.253902435,2,1000,2,1,0,3,1,2,5,4,0,250.0,test,2,H+
794.414997101,2,1000,2,1,0,3,1,2,5,4,0,250.0,test,2,H+
618.427038193,2,1000,2,1,0,3,1,2,5,4,0,250.0,test,2,H+
682.324886322,1,1000,3,1,0,3,1,2,5,4,0,250.0,test,1,H+
986.389160156,4,1000,4,1,0,3,1,2,5,4,0,250.0,test,4,H+
539.855003357,1,1000,3,1,0,3,1,2,5,4,0,250.0,test,1,H+
634.288787842,4,1000,4,1,0,3,1,2,5,4,0,250.0,test,4,H+
522.360086441,1,1000,3,1,0,3,1,2,5,4,0,250.0,test,1,H+
507.761955261,2,1000,2,1,0,3,1,2,5,4,0,250.0,test,2,H+
410.414934158,2,1000,2,1,0,3,1,2,5,4,0,250.0,test,2,H+
410.237073898,1,1000,3,1,0,3,1,2,5,4,0,250.0,test,1,H+
363.618135452,4,1000,4,1,0,3,1,2,5,4,0,250.0,test,4,H+
314.241886139,1,1000,3,1,0,3,1,2,5,4,0,250.0,test,1,H+
410.346031189,5,1000,5,0,0,3,1,2,5,4,0,250.0,test,2,H+
745.851039886,3,1000,0,1,0,3,1,2,5,4,0,250.0,test,3,H+
281.937122345,5,1000,5,1,0,3,1,2,5,4,0,250.0,test,5,H+
890.384197235,1,1000,3,1,0,3,1,2,5,4,0,250.0,test,1,H+
538.38801384,1,1000,3,1,0,3,1,2,5,4,0,250.0,test,1,H+
618.33190918,2,1000,2,1,0,3,1,2,5,4,0,250.0,test,2,H+
537.874937057,1,1000,3,1,0,3,1,2,5,4,0,250.0,test,1,H+
1258.52394104,4,1000,4,1,0,3,1,2,5,4,0,250.0,test,4,H+
587.749004364,0,1000,1,1,0,3,1,2,5,4,0,250.0,test,0,H+
443.104982376,1,1000,3,1,0,3,1,2,5,4,0,250.0,test,1,H+
522.421121597,4,1000,4,0,0,3,1,2,5,4,0,250.0,test,1,H+
810.430049896,4,1000,4,1,0,3,1,2,5,4,0,250.0,test,4,H+
1306.43796921,3,1000,0,1,0,3,1,2,5,4,0,250.0,test,3,H+
570.441961288,2,1000,2,1,0,3,1,2,5,4,0,250.0,test,2,H+
746.393918991,3,1000,0,1,0,3,1,2,5,4,0,250.0,test,3,H+
538.380861282,4,1000,4,1,0,3,1,2,5,4,0,250.0,test,4,H+
602.368831635,5,1000,5,1,0,3,1,2,5,4,0,250.0,test,5,H+
714.420080185,1,1000,3,1,0,3,1,2,5,4,0,250.0,test,1,H+
730.41510582,0,1000,1,1,0,3,1,2,5,4,0,250.0,test,0,H+
666.409015656,0,1000,1,1,0,3,1,2,5,4,0,250.0,test,0,H+
618.399858475,1,1000,3,1,0,3,1,2,5,4,0,250.0,test,1,H+
698.356866837,5,1000,5,1,0,3,1,2,5,4,0,250.0,test,5,H+
571.170806885,2,1000,2,1,0,3,1,2,5,4,0,250.0,test,2,H+
1258.32700729,4,1000,4,1,0,3,1,2,5,4,0,250.0,test,4,H+
1850.43001175,2,1000,2,1,0,3,1,2,5,4,0,250.0,test,2,H+
554.280042648,0,1000,1,1,0,3,1,2,5,4,0,250.0,test,0,H+
1226.31001472,4,1000,4,1,0,3,1,2,5,4,0,250.0,test,4,H+
746.378898621,4,1000,4,1,0,3,1,2,5,4,0,250.0,test,4,H+
970.395803452,5,1000,5,1,0,3,1,2,5,4,0,250.0,test,5,H+
603.671789169,0,1000,1,1,0,3,1,2,5,4,0,250.0,test,0,H+
635.035991669,2,1000,2,1,0,3,1,2,5,4,0,250.0,test,2,H+
586.408853531,0,1000,1,1,0,3,1,2,5,4,0,250.0,test,0,H+
474.360227585,0,1000,1,1,0,3,1,2,5,4,0,250.0,test,0,H+
586.395978928,5,1000,5,1,0,3,1,2,5,4,0,250.0,test,5,H+
954.412937164,3,1000,0,1,0,3,1,2,5,4,0,250.0,test,3,H+
955.817937851,4,1000,4,1,0,3,1,2,5,4,0,250.0,test,4,H+
571.769952774,2,1000,2,1,0,3,1,2,5,4,0,250.0,test,2,H+
523.785829544,2,1000,2,1,0,3,1,2,5,4,0,250.0,test,2,H+
809.174060822,5,1000,5,1,0,3,1,2,5,4,0,250.0,test,5,H+
634.378194809,1,1000,3,1,0,3,1,2,5,4,0,250.0,test,1,H+
