RT,correct_response,ms-prestimblank,curstim,correct,SRmap_1,SRmap_0,SRmap_3,SRmap_2,SRmap_5,SRmap_4,ms-precue,ntrials,type,response,condition
37356.6539288,3,1000,0,0,4,3,5,2,0,1,0,250.0,train,2,M
24732.6261997,3,1000,0,0,4,3,5,2,0,1,0,250.0,train,1,M
15115.7770157,4,1000,1,0,4,3,5,2,0,1,0,250.0,train,3,M
1562.50309944,1,1000,4,0,4,3,5,2,0,1,0,250.0,train,3,M
4442.40808487,0,1000,5,0,4,3,5,2,0,1,0,250.0,train,3,M
4474.48897362,3,1000,0,0,4,3,5,2,0,1,0,250.0,train,1,M
938.39597702,1,1000,4,1,4,3,5,2,0,1,0,250.0,train,1,M
9514.74714279,0,1000,5,0,4,3,5,2,0,1,0,250.0,train,3,M
2650.32696724,5,1000,3,0,4,3,5,2,0,1,0,250.0,train,1,M
6474.57194328,0,1000,5,0,4,3,5,2,0,1,0,250.0,train,1,M
746.385097504,2,1000,2,0,4,3,5,2,0,1,0,250.0,train,5,M
6746.70791626,3,1000,0,0,4,3,5,2,0,1,0,250.0,train,5,M
9738.92688751,1,1000,4,0,4,3,5,2,0,1,0,250.0,train,3,M
27547.53685,0,1000,5,1,4,3,5,2,0,1,0,250.0,train,0,M
12074.7931004,5,1000,3,0,4,3,5,2,0,1,0,250.0,train,4,M
4986.67407036,4,1000,1,1,4,3,5,2,0,1,0,250.0,train,4,M
1995.3930378,1,1000,4,1,4,3,5,2,0,1,0,250.0,train,1,M
2922.59812355,2,1000,2,1,4,3,5,2,0,1,0,250.0,train,2,M
2266.53409004,5,1000,3,1,4,3,5,2,0,1,0,250.0,train,5,M
906.360149384,5,1000,3,1,4,3,5,2,0,1,0,250.0,train,5,M
2154.21795845,4,1000,1,1,4,3,5,2,0,1,0,250.0,train,4,M
1178.42507362,4,1000,1,1,4,3,5,2,0,1,0,250.0,train,4,M
1306.25200272,1,1000,4,1,4,3,5,2,0,1,0,250.0,train,1,M
1226.38988495,4,1000,1,1,4,3,5,2,0,1,0,250.0,train,4,M
1418.42579842,5,1000,3,1,4,3,5,2,0,1,0,250.0,train,5,M
2362.43200302,2,1000,2,1,4,3,5,2,0,1,0,250.0,train,2,M
2186.57588959,3,1000,0,0,4,3,5,2,0,1,0,250.0,train,2,M
2251.90401077,2,1000,2,1,4,3,5,2,0,1,0,250.0,train,2,M
1354.39109802,4,1000,1,1,4,3,5,2,0,1,0,250.0,train,4,M
1323.99296761,1,1000,4,1,4,3,5,2,0,1,0,250.0,train,1,M
4458.66012573,3,1000,0,1,4,3,5,2,0,1,0,250.0,train,3,M
1227.98800468,2,1000,2,1,4,3,5,2,0,1,0,250.0,train,2,M
1162.54997253,4,1000,1,0,4,3,5,2,0,1,0,250.0,train,3,M
1002.43115425,0,1000,5,1,4,3,5,2,0,1,0,250.0,train,0,M
1114.47906494,1,1000,4,1,4,3,5,2,0,1,0,250.0,train,1,M
714.353084564,0,1000,5,1,4,3,5,2,0,1,0,250.0,train,0,M
1050.41408539,1,1000,4,1,4,3,5,2,0,1,0,250.0,train,1,M
715.978860855,0,1000,5,1,4,3,5,2,0,1,0,250.0,train,0,M
1194.41008568,5,1000,3,1,4,3,5,2,0,1,0,250.0,train,5,M
858.303070068,1,1000,4,1,4,3,5,2,0,1,0,250.0,train,1,M
538.373947144,2,1000,2,1,4,3,5,2,0,1,0,250.0,train,2,M
1594.51603889,4,1000,1,0,4,3,5,2,0,1,0,250.0,train,3,M
810.471057892,3,1000,0,1,4,3,5,2,0,1,0,250.0,train,3,M
762.386083603,1,1000,4,1,4,3,5,2,0,1,0,250.0,train,1,M
826.383829117,2,1000,2,1,4,3,5,2,0,1,0,250.0,train,2,M
746.44112587,3,1000,0,1,4,3,5,2,0,1,0,250.0,train,3,M
475.936889648,4,1000,1,1,4,3,5,2,0,1,0,250.0,train,4,M
794.55280304,0,1000,5,1,4,3,5,2,0,1,0,250.0,train,0,M
842.472076416,0,1000,5,1,4,3,5,2,0,1,0,250.0,train,0,M
810.575008392,1,1000,4,1,4,3,5,2,0,1,0,250.0,train,1,M
1035.96711159,3,1000,0,1,4,3,5,2,0,1,0,250.0,train,3,M
682.451963425,0,1000,5,1,4,3,5,2,0,1,0,250.0,train,0,M
1434.45301056,3,1000,0,1,4,3,5,2,0,1,0,250.0,train,3,M
682.559013367,5,1000,3,1,4,3,5,2,0,1,0,250.0,train,5,M
746.508836746,1,1000,4,0,4,3,5,2,0,1,0,250.0,train,0,M
810.465097427,5,1000,3,1,4,3,5,2,0,1,0,250.0,train,5,M
714.502096176,4,1000,1,1,4,3,5,2,0,1,0,250.0,train,4,M
1019.3259716,2,1000,2,1,4,3,5,2,0,1,0,250.0,train,2,M
410.380125046,3,1000,0,1,4,3,5,2,0,1,0,250.0,train,3,M
858.430147171,5,1000,3,1,4,3,5,2,0,1,0,250.0,train,5,M
714.409828186,1,1000,4,1,4,3,5,2,0,1,0,250.0,train,1,M
714.49804306,5,1000,3,1,4,3,5,2,0,1,0,250.0,train,5,M
714.326143265,1,1000,4,1,4,3,5,2,0,1,0,250.0,train,1,M
955.65700531,5,1000,3,1,4,3,5,2,0,1,0,250.0,train,5,M
1178.5531044,3,1000,0,1,4,3,5,2,0,1,0,250.0,train,3,M
746.440887451,4,1000,1,1,4,3,5,2,0,1,0,250.0,train,4,M
1242.45095253,3,1000,0,1,4,3,5,2,0,1,0,250.0,train,3,M
746.536016464,5,1000,3,1,4,3,5,2,0,1,0,250.0,train,5,M
714.493989944,5,1000,3,1,4,3,5,2,0,1,0,250.0,train,5,M
746.30689621,1,1000,4,1,4,3,5,2,0,1,0,250.0,train,1,M
714.498996735,5,1000,3,1,4,3,5,2,0,1,0,250.0,train,5,M
618.358135223,4,1000,1,1,4,3,5,2,0,1,0,250.0,train,4,M
683.799982071,4,1000,1,1,4,3,5,2,0,1,0,250.0,train,4,M
570.478916168,4,1000,1,1,4,3,5,2,0,1,0,250.0,train,4,M
715.929985046,0,1000,5,0,4,3,5,2,0,1,0,250.0,train,1,M
810.502052307,0,1000,5,1,4,3,5,2,0,1,0,250.0,train,0,M
650.505065918,5,1000,3,1,4,3,5,2,0,1,0,250.0,train,5,M
1082.56006241,2,1000,2,1,4,3,5,2,0,1,0,250.0,train,2,M
1051.30696297,3,1000,0,1,4,3,5,2,0,1,0,250.0,train,3,M
650.511980057,4,1000,1,1,4,3,5,2,0,1,0,250.0,train,4,M
810.580968857,1,1000,4,1,4,3,5,2,0,1,0,250.0,train,1,M
602.527856827,0,1000,5,1,4,3,5,2,0,1,0,250.0,train,0,M
1130.57088852,3,1000,0,1,4,3,5,2,0,1,0,250.0,train,3,M
922.621011734,2,1000,2,0,4,3,5,2,0,1,0,250.0,train,1,M
874.559164047,3,1000,0,1,4,3,5,2,0,1,0,250.0,train,3,M
666.425943375,5,1000,3,1,4,3,5,2,0,1,0,250.0,train,5,M
1259.07182693,0,1000,5,1,4,3,5,2,0,1,0,250.0,train,0,M
1850.57616234,2,1000,2,1,4,3,5,2,0,1,0,250.0,train,2,M
634.423971176,3,1000,0,1,4,3,5,2,0,1,0,250.0,train,3,M
922.422885895,0,1000,5,1,4,3,5,2,0,1,0,250.0,train,0,M
793.308973312,5,1000,3,1,4,3,5,2,0,1,0,250.0,train,5,M
667.29593277,4,1000,1,1,4,3,5,2,0,1,0,250.0,train,4,M
682.424068451,0,1000,5,1,4,3,5,2,0,1,0,250.0,train,0,M
650.470972061,0,1000,5,1,4,3,5,2,0,1,0,250.0,train,0,M
826.425075531,2,1000,2,1,4,3,5,2,0,1,0,250.0,train,2,M
554.421901703,1,1000,4,1,4,3,5,2,0,1,0,250.0,train,1,M
730.38315773,2,1000,2,1,4,3,5,2,0,1,0,250.0,train,2,M
602.459907532,0,1000,5,1,4,3,5,2,0,1,0,250.0,train,0,M
762.525081635,3,1000,0,0,4,3,5,2,0,1,0,250.0,train,4,M
1082.46994019,1,1000,4,1,4,3,5,2,0,1,0,250.0,train,1,M
682.469129562,0,1000,5,1,4,3,5,2,0,1,0,250.0,train,0,M
826.560974121,1,1000,4,1,4,3,5,2,0,1,0,250.0,train,1,M
890.544891357,5,1000,3,1,4,3,5,2,0,1,0,250.0,train,5,M
922.501802444,2,1000,2,1,4,3,5,2,0,1,0,250.0,train,2,M
1114.60804939,4,1000,1,1,4,3,5,2,0,1,0,250.0,train,4,M
762.5207901,0,1000,5,1,4,3,5,2,0,1,0,250.0,train,0,M
746.557950974,1,1000,4,1,4,3,5,2,0,1,0,250.0,train,1,M
1194.47612762,3,1000,0,1,4,3,5,2,0,1,0,250.0,train,3,M
746.560096741,0,1000,5,1,4,3,5,2,0,1,0,250.0,train,0,M
762.632846832,1,1000,4,1,4,3,5,2,0,1,0,250.0,train,1,M
794.538021088,2,1000,2,1,4,3,5,2,0,1,0,250.0,train,2,M
731.415987015,0,1000,5,1,4,3,5,2,0,1,0,250.0,train,0,M
570.497989655,1,1000,4,1,4,3,5,2,0,1,0,250.0,train,1,M
713.953971863,5,1000,3,1,4,3,5,2,0,1,0,250.0,train,5,M
1178.48014832,0,1000,5,1,4,3,5,2,0,1,0,250.0,train,0,M
1082.46803284,3,1000,0,1,4,3,5,2,0,1,0,250.0,train,3,M
651.253938675,0,1000,5,1,4,3,5,2,0,1,0,250.0,train,0,M
682.435035706,5,1000,3,1,4,3,5,2,0,1,0,250.0,train,5,M
1146.51417732,2,1000,2,1,4,3,5,2,0,1,0,250.0,train,2,M
730.463981628,5,1000,3,1,4,3,5,2,0,1,0,250.0,train,5,M
650.496959686,0,1000,5,1,4,3,5,2,0,1,0,250.0,train,0,M
634.354114532,0,1000,5,1,4,3,5,2,0,1,0,250.0,train,0,M
1068.00413132,5,1000,3,1,4,3,5,2,0,1,0,250.0,train,5,M
779.97803688,2,1000,2,1,4,3,5,2,0,1,0,250.0,train,2,M
746.526956558,2,1000,2,1,4,3,5,2,0,1,0,250.0,train,2,M
714.512109756,1,1000,4,1,4,3,5,2,0,1,0,250.0,train,1,M
842.449903488,5,1000,3,1,4,3,5,2,0,1,0,250.0,train,5,M
682.462930679,5,1000,3,1,4,3,5,2,0,1,0,250.0,train,5,M
842.576026917,1,1000,4,1,4,3,5,2,0,1,0,250.0,train,1,M
1034.45100784,3,1000,0,1,4,3,5,2,0,1,0,250.0,train,3,M
715.872049332,2,1000,2,1,4,3,5,2,0,1,0,250.0,train,2,M
778.497934341,2,1000,2,1,4,3,5,2,0,1,0,250.0,train,2,M
730.55100441,5,1000,3,1,4,3,5,2,0,1,0,250.0,train,5,M
842.54693985,2,1000,2,1,4,3,5,2,0,1,0,250.0,train,2,M
570.53399086,0,1000,5,1,4,3,5,2,0,1,0,250.0,train,0,M
651.962041855,1,1000,4,1,4,3,5,2,0,1,0,250.0,train,1,M
586.526155472,5,1000,3,1,4,3,5,2,0,1,0,250.0,train,5,M
874.670028687,2,1000,2,1,4,3,5,2,0,1,0,250.0,train,2,M
633.083105087,5,1000,3,1,4,3,5,2,0,1,0,250.0,train,5,M
730.277061462,2,1000,2,1,4,3,5,2,0,1,0,250.0,train,2,M
1082.42797852,3,1000,0,1,4,3,5,2,0,1,0,250.0,train,3,M
986.40704155,1,1000,4,1,4,3,5,2,0,1,0,250.0,train,1,M
762.383937836,5,1000,3,1,4,3,5,2,0,1,0,250.0,train,5,M
554.401159286,4,1000,1,1,4,3,5,2,0,1,0,250.0,train,4,M
683.447122574,3,1000,0,1,4,3,5,2,0,1,0,250.0,train,3,M
746.369123459,2,1000,2,1,4,3,5,2,0,1,0,250.0,train,2,M
809.950113297,2,1000,2,1,4,3,5,2,0,1,0,250.0,train,2,M
634.382009506,0,1000,5,0,4,3,5,2,0,1,0,250.0,train,1,M
746.362924576,2,1000,2,1,4,3,5,2,0,1,0,250.0,train,2,M
1066.49398804,4,1000,1,1,4,3,5,2,0,1,0,250.0,train,4,M
746.45614624,1,1000,4,1,4,3,5,2,0,1,0,250.0,train,1,M
650.521993637,5,1000,3,1,4,3,5,2,0,1,0,250.0,train,5,M
730.547904968,0,1000,5,1,4,3,5,2,0,1,0,250.0,train,0,M
730.589866638,5,1000,3,1,4,3,5,2,0,1,0,250.0,train,5,M
586.611032486,5,1000,3,1,4,3,5,2,0,1,0,250.0,train,5,M
586.485862732,5,1000,3,1,4,3,5,2,0,1,0,250.0,train,5,M
602.490901947,1,1000,4,1,4,3,5,2,0,1,0,250.0,train,1,M
954.500198364,3,1000,0,1,4,3,5,2,0,1,0,250.0,train,3,M
699.464797974,3,1000,0,1,4,3,5,2,0,1,0,250.0,train,3,M
682.423830032,0,1000,5,1,4,3,5,2,0,1,0,250.0,train,0,M
523.283004761,1,1000,4,1,4,3,5,2,0,1,0,250.0,train,1,M
763.909101486,4,1000,1,1,4,3,5,2,0,1,0,250.0,train,4,M
715.527057648,0,1000,5,1,4,3,5,2,0,1,0,250.0,train,0,M
586.400985718,1,1000,4,1,4,3,5,2,0,1,0,250.0,train,1,M
730.360031128,2,1000,2,1,4,3,5,2,0,1,0,250.0,train,2,M
794.46387291,1,1000,4,1,4,3,5,2,0,1,0,250.0,train,1,M
938.384056091,4,1000,1,1,4,3,5,2,0,1,0,250.0,train,4,M
634.240865707,4,1000,1,1,4,3,5,2,0,1,0,250.0,train,4,M
746.334075928,1,1000,4,1,4,3,5,2,0,1,0,250.0,train,1,M
1210.44206619,3,1000,0,1,4,3,5,2,0,1,0,250.0,train,3,M
1211.05504036,0,1000,5,1,4,3,5,2,0,1,0,250.0,train,0,M
1115.89193344,4,1000,1,1,4,3,5,2,0,1,0,250.0,train,4,M
682.386875153,0,1000,5,1,4,3,5,2,0,1,0,250.0,train,0,M
826.470851898,4,1000,1,1,4,3,5,2,0,1,0,250.0,train,4,M
747.83205986,5,1000,3,1,4,3,5,2,0,1,0,250.0,train,5,M
602.3478508,4,1000,1,1,4,3,5,2,0,1,0,250.0,train,4,M
698.565006256,3,1000,0,0,4,3,5,2,0,1,0,250.0,train,1,M
682.531118393,3,1000,0,1,4,3,5,2,0,1,0,250.0,train,3,M
762.501955032,4,1000,1,1,4,3,5,2,0,1,0,250.0,train,4,M
794.574022293,0,1000,5,1,4,3,5,2,0,1,0,250.0,train,0,M
826.550006866,4,1000,1,1,4,3,5,2,0,1,0,250.0,train,4,M
826.496124268,0,1000,5,1,4,3,5,2,0,1,0,250.0,train,0,M
618.535041809,0,1000,5,1,4,3,5,2,0,1,0,250.0,train,0,M
1195.46699524,3,1000,0,1,4,3,5,2,0,1,0,250.0,train,3,M
1402.52304077,2,1000,2,1,4,3,5,2,0,1,0,250.0,train,2,M
954.637050629,4,1000,1,1,4,3,5,2,0,1,0,250.0,train,4,M
602.505922318,5,1000,3,1,4,3,5,2,0,1,0,250.0,train,5,M
794.507980347,1,1000,4,1,4,3,5,2,0,1,0,250.0,train,1,M
873.224020004,5,1000,3,1,4,3,5,2,0,1,0,250.0,train,5,M
714.399814606,1,1000,4,1,4,3,5,2,0,1,0,250.0,train,1,M
891.345977783,3,1000,0,1,4,3,5,2,0,1,0,250.0,train,3,M
683.371067047,4,1000,1,1,4,3,5,2,0,1,0,250.0,train,4,M
874.439954758,2,1000,2,1,4,3,5,2,0,1,0,250.0,train,2,M
682.379007339,2,1000,2,1,4,3,5,2,0,1,0,250.0,train,2,M
650.171041489,0,1000,5,1,4,3,5,2,0,1,0,250.0,train,0,M
842.428922653,3,1000,0,1,4,3,5,2,0,1,0,250.0,train,3,M
874.347925186,2,1000,2,1,4,3,5,2,0,1,0,250.0,train,2,M
699.257135391,0,1000,5,1,4,3,5,2,0,1,0,250.0,train,0,M
730.468988419,4,1000,1,1,4,3,5,2,0,1,0,250.0,train,4,M
682.431936264,1,1000,4,1,4,3,5,2,0,1,0,250.0,train,1,M
1354.40707207,3,1000,0,1,4,3,5,2,0,1,0,250.0,train,3,M
747.143983841,4,1000,1,1,4,3,5,2,0,1,0,250.0,train,4,M
857.260942459,3,1000,0,1,4,3,5,2,0,1,0,250.0,train,3,M
586.484909058,4,1000,1,1,4,3,5,2,0,1,0,250.0,train,4,M
618.469953537,0,1000,5,1,4,3,5,2,0,1,0,250.0,train,0,M
1578.60183716,3,1000,0,0,4,3,5,2,0,1,0,250.0,train,2,M
954.468011856,3,1000,0,1,4,3,5,2,0,1,0,250.0,train,3,M
666.482925415,3,1000,0,1,4,3,5,2,0,1,0,250.0,train,3,M
762.545108795,5,1000,3,1,4,3,5,2,0,1,0,250.0,train,5,M
874.563932419,1,1000,4,1,4,3,5,2,0,1,0,250.0,train,1,M
923.399925232,4,1000,1,1,4,3,5,2,0,1,0,250.0,train,4,M
1146.62909508,4,1000,1,1,4,3,5,2,0,1,0,250.0,train,4,M
618.471860886,5,1000,3,1,4,3,5,2,0,1,0,250.0,train,5,M
634.489059448,0,1000,5,1,4,3,5,2,0,1,0,250.0,train,0,M
874.438047409,1,1000,4,1,4,3,5,2,0,1,0,250.0,train,1,M
762.578010559,5,1000,3,1,4,3,5,2,0,1,0,250.0,train,5,M
554.452180862,5,1000,3,1,4,3,5,2,0,1,0,250.0,train,5,M
1035.40420532,3,1000,0,1,4,3,5,2,0,1,0,250.0,train,3,M
698.413848877,0,1000,5,1,4,3,5,2,0,1,0,250.0,train,0,M
618.531942368,1,1000,4,1,4,3,5,2,0,1,0,250.0,train,1,M
778.416156769,4,1000,1,1,4,3,5,2,0,1,0,250.0,train,4,M
730.365991592,4,1000,1,1,4,3,5,2,0,1,0,250.0,train,4,M
618.286848068,1,1000,4,1,4,3,5,2,0,1,0,250.0,train,1,M
618.335008621,5,1000,3,1,4,3,5,2,0,1,0,250.0,train,5,M
906.415939331,3,1000,0,1,4,3,5,2,0,1,0,250.0,train,3,M
842.415094376,5,1000,3,1,4,3,5,2,0,1,0,250.0,train,5,M
1786.51213646,4,1000,1,1,4,3,5,2,0,1,0,250.0,train,4,M
778.341054916,2,1000,2,1,4,3,5,2,0,1,0,250.0,train,2,M
556.040048599,3,1000,0,1,4,3,5,2,0,1,0,250.0,train,3,M
970.314025879,3,1000,0,1,4,3,5,2,0,1,0,250.0,train,3,M
1034.47890282,0,1000,5,1,4,3,5,2,0,1,0,250.0,train,0,M
971.925973892,3,1000,0,1,4,3,5,2,0,1,0,250.0,train,3,M
747.841119766,1,1000,4,1,4,3,5,2,0,1,0,250.0,train,1,M
1498.51083755,2,1000,2,1,4,3,5,2,0,1,0,250.0,train,2,M
666.500091553,5,1000,3,1,4,3,5,2,0,1,0,250.0,train,5,M
858.5729599,2,1000,2,1,4,3,5,2,0,1,0,250.0,train,2,M
666.296958923,2,1000,2,1,4,3,5,2,0,1,0,250.0,train,2,M
1466.58205986,3,1000,0,1,4,3,5,2,0,1,0,250.0,train,3,M
714.528083801,2,1000,2,1,4,3,5,2,0,1,0,250.0,train,2,M
667.904853821,0,1000,5,1,4,3,5,2,0,1,0,250.0,train,0,M
602.496862411,0,1000,5,1,4,3,5,2,0,1,0,250.0,train,0,M
746.543884277,4,1000,1,1,4,3,5,2,0,1,0,250.0,train,4,M
570.303916931,5,1000,3,1,4,3,5,2,0,1,0,250.0,train,5,M
586.489915848,1,1000,4,1,4,3,5,2,0,1,0,250.0,train,1,M
666.512966156,1,1000,4,1,4,3,5,2,0,1,0,250.0,train,1,M
554.58688736,2,1000,2,1,4,3,5,2,0,1,0,250.0,train,2,M
874.572038651,4,1000,1,1,4,3,5,2,0,1,0,250.0,train,4,M
762.542009354,1,1000,4,1,4,3,5,2,0,1,0,250.0,train,1,M
571.382045746,4,1000,1,1,4,3,5,2,0,1,0,250.0,train,4,M
667.979001999,4,1000,1,1,4,3,5,2,0,1,0,250.0,train,4,M
13866.3420677,0,1000,5,1,4,3,5,2,0,1,0,250.0,test,0,M
2970.3309536,1,1000,4,1,4,3,5,2,0,1,0,250.0,test,1,M
1978.36589813,5,1000,3,1,4,3,5,2,0,1,0,250.0,test,5,M
3418.43605042,2,1000,2,0,4,3,5,2,0,1,0,250.0,test,1,M
1018.89014244,2,1000,2,1,4,3,5,2,0,1,0,250.0,test,2,M
763.839960098,2,1000,2,1,4,3,5,2,0,1,0,250.0,test,2,M
890.400886536,5,1000,3,1,4,3,5,2,0,1,0,250.0,test,5,M
1066.3151741,2,1000,2,0,4,3,5,2,0,1,0,250.0,test,1,M
2810.45103073,4,1000,1,1,4,3,5,2,0,1,0,250.0,test,4,M
2138.27300072,3,1000,0,1,4,3,5,2,0,1,0,250.0,test,3,M
1498.37994576,1,1000,4,1,4,3,5,2,0,1,0,250.0,test,1,M
826.311826706,5,1000,3,1,4,3,5,2,0,1,0,250.0,test,5,M
1739.83407021,2,1000,2,1,4,3,5,2,0,1,0,250.0,test,2,M
1050.35090446,3,1000,0,1,4,3,5,2,0,1,0,250.0,test,3,M
730.349779129,4,1000,1,1,4,3,5,2,0,1,0,250.0,test,4,M
843.227148056,3,1000,0,1,4,3,5,2,0,1,0,250.0,test,3,M
1194.33903694,2,1000,2,1,4,3,5,2,0,1,0,250.0,test,2,M
762.316942215,4,1000,1,1,4,3,5,2,0,1,0,250.0,test,4,M
794.256925583,4,1000,1,1,4,3,5,2,0,1,0,250.0,test,4,M
890.332937241,2,1000,2,1,4,3,5,2,0,1,0,250.0,test,2,M
1194.30804253,0,1000,5,1,4,3,5,2,0,1,0,250.0,test,0,M
746.320962906,4,1000,1,1,4,3,5,2,0,1,0,250.0,test,4,M
1675.16994476,1,1000,4,1,4,3,5,2,0,1,0,250.0,test,1,M
1098.26493263,3,1000,0,1,4,3,5,2,0,1,0,250.0,test,3,M
650.272130966,5,1000,3,1,4,3,5,2,0,1,0,250.0,test,5,M
778.200864792,1,1000,4,1,4,3,5,2,0,1,0,250.0,test,1,M
650.302171707,1,1000,4,1,4,3,5,2,0,1,0,250.0,test,1,M
650.335073471,4,1000,1,1,4,3,5,2,0,1,0,250.0,test,4,M
634.318113327,3,1000,0,1,4,3,5,2,0,1,0,250.0,test,3,M
714.389801025,2,1000,2,1,4,3,5,2,0,1,0,250.0,test,2,M
714.292049408,2,1000,2,1,4,3,5,2,0,1,0,250.0,test,2,M
810.333013535,3,1000,0,1,4,3,5,2,0,1,0,250.0,test,3,M
699.466943741,5,1000,3,1,4,3,5,2,0,1,0,250.0,test,5,M
778.157949448,2,1000,2,1,4,3,5,2,0,1,0,250.0,test,2,M
714.349985123,3,1000,0,0,4,3,5,2,0,1,0,250.0,test,1,M
1786.34309769,0,1000,5,1,4,3,5,2,0,1,0,250.0,test,0,M
970.360040665,5,1000,3,1,4,3,5,2,0,1,0,250.0,test,5,M
1306.32281303,2,1000,2,1,4,3,5,2,0,1,0,250.0,test,2,M
1450.42705536,1,1000,4,1,4,3,5,2,0,1,0,250.0,test,1,M
1306.34713173,0,1000,5,1,4,3,5,2,0,1,0,250.0,test,0,M
1210.27588844,0,1000,5,1,4,3,5,2,0,1,0,250.0,test,0,M
667.129993439,5,1000,3,1,4,3,5,2,0,1,0,250.0,test,5,M
650.331020355,4,1000,1,1,4,3,5,2,0,1,0,250.0,test,4,M
938.367843628,2,1000,2,1,4,3,5,2,0,1,0,250.0,test,2,M
698.304176331,2,1000,2,1,4,3,5,2,0,1,0,250.0,test,2,M
682.243824005,4,1000,1,1,4,3,5,2,0,1,0,250.0,test,4,M
1082.38911629,3,1000,0,1,4,3,5,2,0,1,0,250.0,test,3,M
1291.88704491,2,1000,2,1,4,3,5,2,0,1,0,250.0,test,2,M
938.28701973,0,1000,5,1,4,3,5,2,0,1,0,250.0,test,0,M
842.274904251,0,1000,5,1,4,3,5,2,0,1,0,250.0,test,0,M
858.299970627,4,1000,1,1,4,3,5,2,0,1,0,250.0,test,4,M
970.198869705,0,1000,5,1,4,3,5,2,0,1,0,250.0,test,0,M
682.282924652,4,1000,1,1,4,3,5,2,0,1,0,250.0,test,4,M
778.308153152,3,1000,0,1,4,3,5,2,0,1,0,250.0,test,3,M
618.25299263,5,1000,3,1,4,3,5,2,0,1,0,250.0,test,5,M
1050.26102066,3,1000,0,1,4,3,5,2,0,1,0,250.0,test,3,M
731.091022491,5,1000,3,1,4,3,5,2,0,1,0,250.0,test,5,M
810.317993164,0,1000,5,1,4,3,5,2,0,1,0,250.0,test,0,M
746.315002441,1,1000,4,1,4,3,5,2,0,1,0,250.0,test,1,M
1018.0208683,5,1000,3,1,4,3,5,2,0,1,0,250.0,test,5,M
1594.36917305,3,1000,0,0,4,3,5,2,0,1,0,250.0,test,2,M
554.307937622,4,1000,1,1,4,3,5,2,0,1,0,250.0,test,4,M
778.423070908,1,1000,4,1,4,3,5,2,0,1,0,250.0,test,1,M
1147.76492119,1,1000,4,0,4,3,5,2,0,1,0,250.0,test,2,M
746.296167374,0,1000,5,1,4,3,5,2,0,1,0,250.0,test,0,M
618.082046509,5,1000,3,1,4,3,5,2,0,1,0,250.0,test,5,M
1450.31285286,2,1000,2,1,4,3,5,2,0,1,0,250.0,test,2,M
410.304069519,2,1000,2,1,4,3,5,2,0,1,0,250.0,test,2,M
858.34813118,3,1000,0,1,4,3,5,2,0,1,0,250.0,test,3,M
794.275999069,0,1000,5,1,4,3,5,2,0,1,0,250.0,test,0,M
1002.37584114,2,1000,2,1,4,3,5,2,0,1,0,250.0,test,2,M
682.314872742,4,1000,1,1,4,3,5,2,0,1,0,250.0,test,4,M
747.07198143,2,1000,2,1,4,3,5,2,0,1,0,250.0,test,2,M
650.35200119,5,1000,3,1,4,3,5,2,0,1,0,250.0,test,5,M
666.249990463,2,1000,2,1,4,3,5,2,0,1,0,250.0,test,2,M
602.598905563,5,1000,3,1,4,3,5,2,0,1,0,250.0,test,5,M
666.258096695,4,1000,1,1,4,3,5,2,0,1,0,250.0,test,4,M
1066.36810303,2,1000,2,1,4,3,5,2,0,1,0,250.0,test,2,M
1082.38697052,3,1000,0,1,4,3,5,2,0,1,0,250.0,test,3,M
843.842983246,5,1000,3,1,4,3,5,2,0,1,0,250.0,test,5,M
906.373023987,2,1000,2,1,4,3,5,2,0,1,0,250.0,test,2,M
890.299081802,3,1000,0,1,4,3,5,2,0,1,0,250.0,test,3,M
634.222984314,4,1000,1,1,4,3,5,2,0,1,0,250.0,test,4,M
714.253902435,4,1000,1,1,4,3,5,2,0,1,0,250.0,test,4,M
779.558897018,1,1000,4,1,4,3,5,2,0,1,0,250.0,test,1,M
602.324962616,4,1000,1,1,4,3,5,2,0,1,0,250.0,test,4,M
474.22504425,4,1000,1,1,4,3,5,2,0,1,0,250.0,test,4,M
762.319803238,3,1000,0,1,4,3,5,2,0,1,0,250.0,test,3,M
570.123195648,5,1000,3,1,4,3,5,2,0,1,0,250.0,test,5,M
810.36901474,2,1000,2,1,4,3,5,2,0,1,0,250.0,test,2,M
827.86989212,3,1000,0,1,4,3,5,2,0,1,0,250.0,test,3,M
634.933948517,3,1000,0,1,4,3,5,2,0,1,0,250.0,test,3,M
778.388977051,0,1000,5,1,4,3,5,2,0,1,0,250.0,test,0,M
602.391958237,1,1000,4,1,4,3,5,2,0,1,0,250.0,test,1,M
618.368864059,4,1000,1,1,4,3,5,2,0,1,0,250.0,test,4,M
554.341077805,5,1000,3,1,4,3,5,2,0,1,0,250.0,test,5,M
714.329004288,0,1000,5,1,4,3,5,2,0,1,0,250.0,test,0,M
618.357181549,1,1000,4,1,4,3,5,2,0,1,0,250.0,test,1,M
826.318979263,2,1000,2,1,4,3,5,2,0,1,0,250.0,test,2,M
650.285959244,0,1000,5,1,4,3,5,2,0,1,0,250.0,test,0,M
715.830087662,3,1000,0,1,4,3,5,2,0,1,0,250.0,test,3,M
570.342063904,5,1000,3,1,4,3,5,2,0,1,0,250.0,test,5,M
826.311826706,1,1000,4,1,4,3,5,2,0,1,0,250.0,test,1,M
922.358989716,3,1000,0,1,4,3,5,2,0,1,0,250.0,test,3,M
779.185056686,0,1000,5,1,4,3,5,2,0,1,0,250.0,test,0,M
906.394004822,2,1000,2,1,4,3,5,2,0,1,0,250.0,test,2,M
746.392965317,2,1000,2,1,4,3,5,2,0,1,0,250.0,test,2,M
458.423137665,2,1000,2,1,4,3,5,2,0,1,0,250.0,test,2,M
810.361862183,5,1000,3,1,4,3,5,2,0,1,0,250.0,test,5,M
762.317895889,4,1000,1,1,4,3,5,2,0,1,0,250.0,test,4,M
410.184144974,4,1000,1,1,4,3,5,2,0,1,0,250.0,test,4,M
570.343017578,0,1000,5,1,4,3,5,2,0,1,0,250.0,test,0,M
811.684846878,2,1000,2,1,4,3,5,2,0,1,0,250.0,test,2,M
651.210069656,5,1000,3,1,4,3,5,2,0,1,0,250.0,test,5,M
410.306930542,5,1000,3,1,4,3,5,2,0,1,0,250.0,test,5,M
810.378789902,2,1000,2,1,4,3,5,2,0,1,0,250.0,test,2,M
683.779001236,3,1000,0,1,4,3,5,2,0,1,0,250.0,test,3,M
571.008205414,0,1000,5,1,4,3,5,2,0,1,0,250.0,test,0,M
618.309020996,1,1000,4,1,4,3,5,2,0,1,0,250.0,test,1,M
762.392044067,0,1000,5,1,4,3,5,2,0,1,0,250.0,test,0,M
618.377923965,1,1000,4,1,4,3,5,2,0,1,0,250.0,test,1,M
714.323043823,0,1000,5,1,4,3,5,2,0,1,0,250.0,test,0,M
698.304176331,1,1000,4,1,4,3,5,2,0,1,0,250.0,test,1,M
571.74706459,4,1000,1,1,4,3,5,2,0,1,0,250.0,test,4,M
907.804012299,3,1000,0,1,4,3,5,2,0,1,0,250.0,test,3,M
538.338899612,5,1000,3,1,4,3,5,2,0,1,0,250.0,test,5,M
490.322113037,4,1000,1,1,4,3,5,2,0,1,0,250.0,test,4,M
539.783000946,5,1000,3,1,4,3,5,2,0,1,0,250.0,test,5,M
746.334075928,3,1000,0,1,4,3,5,2,0,1,0,250.0,test,3,M
618.302822113,3,1000,0,1,4,3,5,2,0,1,0,250.0,test,3,M
650.405168533,1,1000,4,1,4,3,5,2,0,1,0,250.0,test,1,M
618.37387085,4,1000,1,1,4,3,5,2,0,1,0,250.0,test,4,M
617.090940475,3,1000,0,1,4,3,5,2,0,1,0,250.0,test,3,M
730.323076248,2,1000,2,1,4,3,5,2,0,1,0,250.0,test,2,M
714.374065399,0,1000,5,1,4,3,5,2,0,1,0,250.0,test,0,M
762.318134308,2,1000,2,1,4,3,5,2,0,1,0,250.0,test,2,M
843.024969101,0,1000,5,1,4,3,5,2,0,1,0,250.0,test,0,M
474.236011505,2,1000,2,1,4,3,5,2,0,1,0,250.0,test,2,M
313.931941986,0,1000,5,1,4,3,5,2,0,1,0,250.0,test,0,M
603.760957718,5,1000,3,1,4,3,5,2,0,1,0,250.0,test,5,M
618.285894394,4,1000,1,1,4,3,5,2,0,1,0,250.0,test,4,M
683.750867844,4,1000,1,1,4,3,5,2,0,1,0,250.0,test,4,M
698.214054108,1,1000,4,1,4,3,5,2,0,1,0,250.0,test,1,M
698.318958282,3,1000,0,1,4,3,5,2,0,1,0,250.0,test,3,M
586.277961731,0,1000,5,1,4,3,5,2,0,1,0,250.0,test,0,M
1514.32704926,2,1000,2,1,4,3,5,2,0,1,0,250.0,test,2,M
715.622186661,1,1000,4,1,4,3,5,2,0,1,0,250.0,test,1,M
634.26399231,2,1000,2,1,4,3,5,2,0,1,0,250.0,test,2,M
667.723894119,3,1000,0,1,4,3,5,2,0,1,0,250.0,test,3,M
634.326219559,5,1000,3,1,4,3,5,2,0,1,0,250.0,test,5,M
1097.75209427,2,1000,2,1,4,3,5,2,0,1,0,250.0,test,2,M
682.33704567,1,1000,4,1,4,3,5,2,0,1,0,250.0,test,1,M
859.805822372,3,1000,0,1,4,3,5,2,0,1,0,250.0,test,3,M
844.29693222,1,1000,4,1,4,3,5,2,0,1,0,250.0,test,1,M
682.327032089,0,1000,5,1,4,3,5,2,0,1,0,250.0,test,0,M
602.381944656,4,1000,1,1,4,3,5,2,0,1,0,250.0,test,4,M
618.371963501,0,1000,5,1,4,3,5,2,0,1,0,250.0,test,0,M
682.329893112,1,1000,4,1,4,3,5,2,0,1,0,250.0,test,1,M
618.361949921,4,1000,1,1,4,3,5,2,0,1,0,250.0,test,4,M
698.303937912,1,1000,4,1,4,3,5,2,0,1,0,250.0,test,1,M
730.340957642,2,1000,2,1,4,3,5,2,0,1,0,250.0,test,2,M
603.124141693,0,1000,5,1,4,3,5,2,0,1,0,250.0,test,0,M
617.006063461,5,1000,3,1,4,3,5,2,0,1,0,250.0,test,5,M
651.125907898,0,1000,5,1,4,3,5,2,0,1,0,250.0,test,0,M
633.058071136,5,1000,3,1,4,3,5,2,0,1,0,250.0,test,5,M
682.969093323,1,1000,4,1,4,3,5,2,0,1,0,250.0,test,1,M
666.350841522,4,1000,1,1,4,3,5,2,0,1,0,250.0,test,4,M
698.360204697,2,1000,2,0,4,3,5,2,0,1,0,250.0,test,1,M
619.156122208,4,1000,1,1,4,3,5,2,0,1,0,250.0,test,4,M
779.168128967,3,1000,0,1,4,3,5,2,0,1,0,250.0,test,3,M
970.274209976,2,1000,2,1,4,3,5,2,0,1,0,250.0,test,2,M
650.349140167,3,1000,0,1,4,3,5,2,0,1,0,250.0,test,3,M
699.75399971,2,1000,2,1,4,3,5,2,0,1,0,250.0,test,2,M
634.287118912,1,1000,4,1,4,3,5,2,0,1,0,250.0,test,1,M
682.226896286,4,1000,1,1,4,3,5,2,0,1,0,250.0,test,4,M
378.235816956,4,1000,1,1,4,3,5,2,0,1,0,250.0,test,4,M
1226.29499435,5,1000,3,1,4,3,5,2,0,1,0,250.0,test,5,M
746.115922928,3,1000,0,1,4,3,5,2,0,1,0,250.0,test,3,M
602.254152298,4,1000,1,1,4,3,5,2,0,1,0,250.0,test,4,M
603.683948517,0,1000,5,1,4,3,5,2,0,1,0,250.0,test,0,M
777.107954025,1,1000,4,1,4,3,5,2,0,1,0,250.0,test,1,M
618.275880814,0,1000,5,1,4,3,5,2,0,1,0,250.0,test,0,M
506.330966949,1,1000,4,1,4,3,5,2,0,1,0,250.0,test,1,M
570.276975632,5,1000,3,1,4,3,5,2,0,1,0,250.0,test,5,M
587.230920792,1,1000,4,1,4,3,5,2,0,1,0,250.0,test,1,M
778.283119202,3,1000,0,1,4,3,5,2,0,1,0,250.0,test,3,M
683.808088303,2,1000,2,1,4,3,5,2,0,1,0,250.0,test,2,M
1402.39596367,3,1000,0,1,4,3,5,2,0,1,0,250.0,test,3,M
1754.38809395,2,1000,2,1,4,3,5,2,0,1,0,250.0,test,2,M
602.160930634,4,1000,1,1,4,3,5,2,0,1,0,250.0,test,4,M
746.340036392,0,1000,5,1,4,3,5,2,0,1,0,250.0,test,0,M
570.237874985,5,1000,3,1,4,3,5,2,0,1,0,250.0,test,5,M
650.357961655,1,1000,4,1,4,3,5,2,0,1,0,250.0,test,1,M
554.342031479,5,1000,3,1,4,3,5,2,0,1,0,250.0,test,5,M
1147.81093597,0,1000,5,0,4,3,5,2,0,1,0,250.0,test,1,M
650.35200119,1,1000,4,1,4,3,5,2,0,1,0,250.0,test,1,M
586.329936981,5,1000,3,1,4,3,5,2,0,1,0,250.0,test,5,M
538.321018219,5,1000,3,1,4,3,5,2,0,1,0,250.0,test,5,M
714.341878891,4,1000,1,1,4,3,5,2,0,1,0,250.0,test,4,M
667.17505455,4,1000,1,1,4,3,5,2,0,1,0,250.0,test,4,M
683.843135834,4,1000,1,1,4,3,5,2,0,1,0,250.0,test,4,M
634.356021881,5,1000,3,1,4,3,5,2,0,1,0,250.0,test,5,M
698.36807251,1,1000,4,1,4,3,5,2,0,1,0,250.0,test,1,M
778.348922729,3,1000,0,1,4,3,5,2,0,1,0,250.0,test,3,M
890.347003937,2,1000,2,1,4,3,5,2,0,1,0,250.0,test,2,M
602.375030518,2,1000,2,1,4,3,5,2,0,1,0,250.0,test,2,M
682.062864304,3,1000,0,1,4,3,5,2,0,1,0,250.0,test,3,M
490.168094635,3,1000,0,1,4,3,5,2,0,1,0,250.0,test,3,M
826.362133026,1,1000,4,1,4,3,5,2,0,1,0,250.0,test,1,M
730.329990387,5,1000,3,1,4,3,5,2,0,1,0,250.0,test,5,M
763.141870499,1,1000,4,1,4,3,5,2,0,1,0,250.0,test,1,M
650.325059891,0,1000,5,1,4,3,5,2,0,1,0,250.0,test,0,M
680.980920792,4,1000,1,1,4,3,5,2,0,1,0,250.0,test,4,M
698.348999023,5,1000,3,1,4,3,5,2,0,1,0,250.0,test,5,M
986.228942871,3,1000,0,1,4,3,5,2,0,1,0,250.0,test,3,M
810.130119324,0,1000,5,1,4,3,5,2,0,1,0,250.0,test,0,M
666.321992874,2,1000,2,1,4,3,5,2,0,1,0,250.0,test,2,M
970.378160477,3,1000,0,1,4,3,5,2,0,1,0,250.0,test,3,M
618.362903595,5,1000,3,1,4,3,5,2,0,1,0,250.0,test,5,M
763.242959976,3,1000,0,1,4,3,5,2,0,1,0,250.0,test,3,M
634.335041046,5,1000,3,1,4,3,5,2,0,1,0,250.0,test,5,M
776.998996735,1,1000,4,1,4,3,5,2,0,1,0,250.0,test,1,M
698.2858181,1,1000,4,1,4,3,5,2,0,1,0,250.0,test,1,M
714.338064194,3,1000,0,1,4,3,5,2,0,1,0,250.0,test,3,M
554.332017899,5,1000,3,1,4,3,5,2,0,1,0,250.0,test,5,M
618.276834488,0,1000,5,1,4,3,5,2,0,1,0,250.0,test,0,M
746.285915375,1,1000,4,1,4,3,5,2,0,1,0,250.0,test,1,M
810.247898102,3,1000,0,1,4,3,5,2,0,1,0,250.0,test,3,M
634.306192398,2,1000,2,0,4,3,5,2,0,1,0,250.0,test,1,M
858.430862427,3,1000,0,1,4,3,5,2,0,1,0,250.0,test,3,M
586.38215065,4,1000,1,1,4,3,5,2,0,1,0,250.0,test,4,M
1146.31700516,2,1000,2,1,4,3,5,2,0,1,0,250.0,test,2,M
650.2161026,3,1000,0,1,4,3,5,2,0,1,0,250.0,test,3,M
922.240972519,1,1000,4,1,4,3,5,2,0,1,0,250.0,test,1,M
635.200977325,4,1000,1,1,4,3,5,2,0,1,0,250.0,test,4,M
2026.39603615,2,1000,2,1,4,3,5,2,0,1,0,250.0,test,2,M
715.820789337,0,1000,5,1,4,3,5,2,0,1,0,250.0,test,0,M
618.37887764,5,1000,3,1,4,3,5,2,0,1,0,250.0,test,5,M
1962.37802505,1,1000,4,1,4,3,5,2,0,1,0,250.0,test,1,M
586.275100708,5,1000,3,1,4,3,5,2,0,1,0,250.0,test,5,M
618.312120438,4,1000,1,1,4,3,5,2,0,1,0,250.0,test,4,M
906.205892563,4,1000,1,1,4,3,5,2,0,1,0,250.0,test,4,M
730.348110199,1,1000,4,1,4,3,5,2,0,1,0,250.0,test,1,M
682.286977768,0,1000,5,1,4,3,5,2,0,1,0,250.0,test,0,M
634.374141693,1,1000,4,1,4,3,5,2,0,1,0,250.0,test,1,M
746.355056763,3,1000,0,0,4,3,5,2,0,1,0,250.0,test,4,M
602.375030518,4,1000,1,1,4,3,5,2,0,1,0,250.0,test,4,M
666.314840317,4,1000,1,1,4,3,5,2,0,1,0,250.0,test,4,M
682.243108749,5,1000,3,1,4,3,5,2,0,1,0,250.0,test,5,M
1690.4129982,5,1000,3,1,4,3,5,2,0,1,0,250.0,test,5,M
