RT,correct_response,ms-prestimblank,curstim,correct,SRmap_1,SRmap_0,SRmap_3,SRmap_2,SRmap_5,SRmap_4,ms-precue,ntrials,type,response,condition
53229.321003,4,1000,3,0,5,1,4,3,0,2,0,250.0,train,0,M
24521.9509602,0,1000,5,0,5,1,4,3,0,2,0,250.0,train,2,M
59676.8329144,5,1000,1,1,5,1,4,3,0,2,0,250.0,train,5,M
5322.66497612,2,1000,4,1,5,1,4,3,0,2,0,250.0,train,2,M
1019.06609535,5,1000,1,1,5,1,4,3,0,2,0,250.0,train,5,M
1082.48114586,3,1000,2,0,5,1,4,3,0,2,0,250.0,train,4,M
794.464111328,0,1000,5,1,5,1,4,3,0,2,0,250.0,train,0,M
570.381879807,1,1000,0,1,5,1,4,3,0,2,0,250.0,train,1,M
650.442838669,3,1000,2,1,5,1,4,3,0,2,0,250.0,train,3,M
522.411108017,4,1000,3,1,5,1,4,3,0,2,0,250.0,train,4,M
490.45085907,2,1000,4,0,5,1,4,3,0,2,0,250.0,train,1,M
522.36199379,0,1000,5,1,5,1,4,3,0,2,0,250.0,train,0,M
730.431079865,0,1000,5,1,5,1,4,3,0,2,0,250.0,train,0,M
554.393053055,0,1000,5,1,5,1,4,3,0,2,0,250.0,train,0,M
650.352954865,3,1000,2,1,5,1,4,3,0,2,0,250.0,train,3,M
539.983987808,3,1000,2,1,5,1,4,3,0,2,0,250.0,train,3,M
410.537004471,3,1000,2,1,5,1,4,3,0,2,0,250.0,train,3,M
410.345077515,4,1000,3,1,5,1,4,3,0,2,0,250.0,train,4,M
826.470851898,5,1000,1,0,5,1,4,3,0,2,0,250.0,train,3,M
523.855924606,1,1000,0,1,5,1,4,3,0,2,0,250.0,train,1,M
490.514039993,1,1000,0,1,5,1,4,3,0,2,0,250.0,train,1,M
699.851989746,2,1000,4,1,5,1,4,3,0,2,0,250.0,train,2,M
650.499820709,5,1000,1,0,5,1,4,3,0,2,0,250.0,train,3,M
506.543874741,0,1000,5,1,5,1,4,3,0,2,0,250.0,train,0,M
522.505998611,1,1000,0,1,5,1,4,3,0,2,0,250.0,train,1,M
1290.54284096,4,1000,3,1,5,1,4,3,0,2,0,250.0,train,4,M
554.50797081,0,1000,5,1,5,1,4,3,0,2,0,250.0,train,0,M
442.501068115,0,1000,5,1,5,1,4,3,0,2,0,250.0,train,0,M
778.645038605,4,1000,3,1,5,1,4,3,0,2,0,250.0,train,4,M
618.561029434,4,1000,3,1,5,1,4,3,0,2,0,250.0,train,4,M
634.408950806,1,1000,0,1,5,1,4,3,0,2,0,250.0,train,1,M
762.032032013,3,1000,2,0,5,1,4,3,0,2,0,250.0,train,4,M
682.548999786,0,1000,5,1,5,1,4,3,0,2,0,250.0,train,0,M
602.486848831,4,1000,3,1,5,1,4,3,0,2,0,250.0,train,4,M
458.432912827,0,1000,5,1,5,1,4,3,0,2,0,250.0,train,0,M
474.405050278,0,1000,5,1,5,1,4,3,0,2,0,250.0,train,0,M
603.809833527,2,1000,4,1,5,1,4,3,0,2,0,250.0,train,2,M
506.399869919,1,1000,0,1,5,1,4,3,0,2,0,250.0,train,1,M
554.379940033,3,1000,2,1,5,1,4,3,0,2,0,250.0,train,3,M
570.423126221,2,1000,4,0,5,1,4,3,0,2,0,250.0,train,1,M
458.44912529,0,1000,5,1,5,1,4,3,0,2,0,250.0,train,0,M
458.50110054,0,1000,5,1,5,1,4,3,0,2,0,250.0,train,0,M
794.457912445,4,1000,3,1,5,1,4,3,0,2,0,250.0,train,4,M
522.490024567,0,1000,5,1,5,1,4,3,0,2,0,250.0,train,0,M
618.376016617,2,1000,4,1,5,1,4,3,0,2,0,250.0,train,2,M
523.86713028,5,1000,1,1,5,1,4,3,0,2,0,250.0,train,5,M
635.828018188,2,1000,4,1,5,1,4,3,0,2,0,250.0,train,2,M
507.878065109,2,1000,4,1,5,1,4,3,0,2,0,250.0,train,2,M
458.476066589,0,1000,5,1,5,1,4,3,0,2,0,250.0,train,0,M
458.608150482,0,1000,5,1,5,1,4,3,0,2,0,250.0,train,0,M
650.578022003,3,1000,2,1,5,1,4,3,0,2,0,250.0,train,3,M
666.605949402,5,1000,1,1,5,1,4,3,0,2,0,250.0,train,5,M
569.283008575,3,1000,2,1,5,1,4,3,0,2,0,250.0,train,3,M
650.493860245,4,1000,3,1,5,1,4,3,0,2,0,250.0,train,4,M
650.621891022,5,1000,1,1,5,1,4,3,0,2,0,250.0,train,5,M
778.606176376,2,1000,4,1,5,1,4,3,0,2,0,250.0,train,2,M
602.639913559,5,1000,1,1,5,1,4,3,0,2,0,250.0,train,5,M
698.605775833,3,1000,2,1,5,1,4,3,0,2,0,250.0,train,3,M
714.591026306,4,1000,3,1,5,1,4,3,0,2,0,250.0,train,4,M
570.633888245,5,1000,1,1,5,1,4,3,0,2,0,250.0,train,5,M
538.721084595,0,1000,5,1,5,1,4,3,0,2,0,250.0,train,0,M
491.980075836,1,1000,0,1,5,1,4,3,0,2,0,250.0,train,1,M
507.942199707,1,1000,0,1,5,1,4,3,0,2,0,250.0,train,1,M
698.503017426,5,1000,1,1,5,1,4,3,0,2,0,250.0,train,5,M
570.474863052,3,1000,2,1,5,1,4,3,0,2,0,250.0,train,3,M
826.390028,2,1000,4,1,5,1,4,3,0,2,0,250.0,train,2,M
474.487066269,0,1000,5,1,5,1,4,3,0,2,0,250.0,train,0,M
554.486989975,1,1000,0,1,5,1,4,3,0,2,0,250.0,train,1,M
474.400997162,0,1000,5,1,5,1,4,3,0,2,0,250.0,train,0,M
651.757001877,5,1000,1,1,5,1,4,3,0,2,0,250.0,train,5,M
506.335020065,1,1000,0,1,5,1,4,3,0,2,0,250.0,train,1,M
410.992145538,0,1000,5,1,5,1,4,3,0,2,0,250.0,train,0,M
522.41396904,1,1000,0,1,5,1,4,3,0,2,0,250.0,train,1,M
538.447856903,4,1000,3,1,5,1,4,3,0,2,0,250.0,train,4,M
505.326032639,0,1000,5,1,5,1,4,3,0,2,0,250.0,train,0,M
634.495973587,4,1000,3,1,5,1,4,3,0,2,0,250.0,train,4,M
634.486913681,2,1000,4,1,5,1,4,3,0,2,0,250.0,train,2,M
635.907888412,3,1000,2,1,5,1,4,3,0,2,0,250.0,train,3,M
507.875919342,3,1000,2,1,5,1,4,3,0,2,0,250.0,train,3,M
539.880990982,0,1000,5,1,5,1,4,3,0,2,0,250.0,train,0,M
524.282217026,0,1000,5,1,5,1,4,3,0,2,0,250.0,train,0,M
890.606164932,5,1000,1,1,5,1,4,3,0,2,0,250.0,train,5,M
378.612041473,5,1000,1,1,5,1,4,3,0,2,0,250.0,train,5,M
569.200992584,3,1000,2,1,5,1,4,3,0,2,0,250.0,train,3,M
506.582975388,2,1000,4,0,5,1,4,3,0,2,0,250.0,train,1,M
714.552879333,5,1000,1,1,5,1,4,3,0,2,0,250.0,train,5,M
458.605051041,4,1000,3,1,5,1,4,3,0,2,0,250.0,train,4,M
426.56493187,0,1000,5,1,5,1,4,3,0,2,0,250.0,train,0,M
555.190086365,1,1000,0,1,5,1,4,3,0,2,0,250.0,train,1,M
442.624807358,0,1000,5,1,5,1,4,3,0,2,0,250.0,train,0,M
666.486978531,5,1000,1,1,5,1,4,3,0,2,0,250.0,train,5,M
538.515090942,5,1000,1,1,5,1,4,3,0,2,0,250.0,train,5,M
571.084022522,4,1000,3,1,5,1,4,3,0,2,0,250.0,train,4,M
570.537090302,3,1000,2,1,5,1,4,3,0,2,0,250.0,train,3,M
474.371910095,3,1000,2,1,5,1,4,3,0,2,0,250.0,train,3,M
538.494110107,1,1000,0,1,5,1,4,3,0,2,0,250.0,train,1,M
538.424015045,4,1000,3,1,5,1,4,3,0,2,0,250.0,train,4,M
666.484117508,4,1000,3,1,5,1,4,3,0,2,0,250.0,train,4,M
428.030014038,4,1000,3,1,5,1,4,3,0,2,0,250.0,train,4,M
538.42997551,3,1000,2,1,5,1,4,3,0,2,0,250.0,train,3,M
490.42391777,4,1000,3,1,5,1,4,3,0,2,0,250.0,train,4,M
587.08691597,1,1000,0,1,5,1,4,3,0,2,0,250.0,train,1,M
442.510843277,0,1000,5,1,5,1,4,3,0,2,0,250.0,train,0,M
522.444963455,5,1000,1,1,5,1,4,3,0,2,0,250.0,train,5,M
682.488203049,2,1000,4,1,5,1,4,3,0,2,0,250.0,train,2,M
651.981115341,3,1000,2,1,5,1,4,3,0,2,0,250.0,train,3,M
538.532018661,1,1000,0,1,5,1,4,3,0,2,0,250.0,train,1,M
538.56086731,1,1000,0,1,5,1,4,3,0,2,0,250.0,train,1,M
795.936107635,4,1000,3,1,5,1,4,3,0,2,0,250.0,train,4,M
458.871841431,3,1000,2,1,5,1,4,3,0,2,0,250.0,train,3,M
474.570989609,3,1000,2,1,5,1,4,3,0,2,0,250.0,train,3,M
523.866891861,0,1000,5,1,5,1,4,3,0,2,0,250.0,train,0,M
922.608852386,4,1000,3,1,5,1,4,3,0,2,0,250.0,train,4,M
506.56414032,1,1000,0,1,5,1,4,3,0,2,0,250.0,train,1,M
458.997011185,1,1000,0,1,5,1,4,3,0,2,0,250.0,train,1,M
634.603023529,4,1000,3,0,5,1,4,3,0,2,0,250.0,train,3,M
426.4960289,1,1000,0,1,5,1,4,3,0,2,0,250.0,train,1,M
2266.58797264,3,1000,2,1,5,1,4,3,0,2,0,250.0,train,3,M
922.468185425,2,1000,4,0,5,1,4,3,0,2,0,250.0,train,1,M
1002.77304649,3,1000,2,1,5,1,4,3,0,2,0,250.0,train,3,M
443.054199219,1,1000,0,1,5,1,4,3,0,2,0,250.0,train,1,M
682.530879974,2,1000,4,1,5,1,4,3,0,2,0,250.0,train,2,M
523.91910553,0,1000,5,1,5,1,4,3,0,2,0,250.0,train,0,M
394.440889359,0,1000,5,1,5,1,4,3,0,2,0,250.0,train,0,M
587.944984436,2,1000,4,1,5,1,4,3,0,2,0,250.0,train,2,M
556.00810051,5,1000,1,1,5,1,4,3,0,2,0,250.0,train,5,M
490.475893021,1,1000,0,0,5,1,4,3,0,2,0,250.0,train,3,M
458.355903625,1,1000,0,1,5,1,4,3,0,2,0,250.0,train,1,M
506.475925446,2,1000,4,1,5,1,4,3,0,2,0,250.0,train,2,M
842.509031296,4,1000,3,1,5,1,4,3,0,2,0,250.0,train,4,M
506.404876709,0,1000,5,1,5,1,4,3,0,2,0,250.0,train,0,M
602.426052094,4,1000,3,1,5,1,4,3,0,2,0,250.0,train,4,M
522.506952286,1,1000,0,1,5,1,4,3,0,2,0,250.0,train,1,M
668.69187355,5,1000,1,1,5,1,4,3,0,2,0,250.0,train,5,M
459.903001785,0,1000,5,1,5,1,4,3,0,2,0,250.0,train,0,M
412.034034729,1,1000,0,1,5,1,4,3,0,2,0,250.0,train,1,M
490.597963333,0,1000,5,1,5,1,4,3,0,2,0,250.0,train,0,M
794.574975967,2,1000,4,1,5,1,4,3,0,2,0,250.0,train,2,M
1324.03802872,2,1000,4,1,5,1,4,3,0,2,0,250.0,train,2,M
746.570110321,4,1000,3,1,5,1,4,3,0,2,0,250.0,train,4,M
603.965997696,1,1000,0,1,5,1,4,3,0,2,0,250.0,train,1,M
666.580915451,1,1000,0,1,5,1,4,3,0,2,0,250.0,train,1,M
410.531044006,1,1000,0,1,5,1,4,3,0,2,0,250.0,train,1,M
618.541002274,4,1000,3,1,5,1,4,3,0,2,0,250.0,train,4,M
762.583971024,2,1000,4,1,5,1,4,3,0,2,0,250.0,train,2,M
634.565114975,0,1000,5,1,5,1,4,3,0,2,0,250.0,train,0,M
1338.63186836,5,1000,1,0,5,1,4,3,0,2,0,250.0,train,4,M
922.635793686,2,1000,4,1,5,1,4,3,0,2,0,250.0,train,2,M
442.577123642,0,1000,5,1,5,1,4,3,0,2,0,250.0,train,0,M
954.627990723,2,1000,4,1,5,1,4,3,0,2,0,250.0,train,2,M
666.533946991,4,1000,3,1,5,1,4,3,0,2,0,250.0,train,4,M
540.000915527,3,1000,2,0,5,1,4,3,0,2,0,250.0,train,2,M
459.879159927,0,1000,5,1,5,1,4,3,0,2,0,250.0,train,0,M
635.981082916,3,1000,2,0,5,1,4,3,0,2,0,250.0,train,2,M
698.385000229,3,1000,2,1,5,1,4,3,0,2,0,250.0,train,3,M
554.433107376,5,1000,1,1,5,1,4,3,0,2,0,250.0,train,5,M
506.405115128,3,1000,2,0,5,1,4,3,0,2,0,250.0,train,5,M
410.409212112,3,1000,2,1,5,1,4,3,0,2,0,250.0,train,3,M
426.563978195,4,1000,3,1,5,1,4,3,0,2,0,250.0,train,4,M
474.494934082,0,1000,5,0,5,1,4,3,0,2,0,250.0,train,3,M
683.989048004,4,1000,3,1,5,1,4,3,0,2,0,250.0,train,4,M
396.044015884,0,1000,5,1,5,1,4,3,0,2,0,250.0,train,0,M
395.910024643,0,1000,5,1,5,1,4,3,0,2,0,250.0,train,0,M
554.594993591,0,1000,5,1,5,1,4,3,0,2,0,250.0,train,0,M
507.84611702,3,1000,2,1,5,1,4,3,0,2,0,250.0,train,3,M
603.522062302,5,1000,1,1,5,1,4,3,0,2,0,250.0,train,5,M
635.875940323,5,1000,1,1,5,1,4,3,0,2,0,250.0,train,5,M
394.575119019,5,1000,1,1,5,1,4,3,0,2,0,250.0,train,5,M
426.192045212,4,1000,3,1,5,1,4,3,0,2,0,250.0,train,4,M
538.549900055,0,1000,5,1,5,1,4,3,0,2,0,250.0,train,0,M
585.321903229,5,1000,1,1,5,1,4,3,0,2,0,250.0,train,5,M
618.546009064,2,1000,4,1,5,1,4,3,0,2,0,250.0,train,2,M
602.61797905,5,1000,1,1,5,1,4,3,0,2,0,250.0,train,5,M
426.599979401,5,1000,1,1,5,1,4,3,0,2,0,250.0,train,5,M
474.62105751,0,1000,5,1,5,1,4,3,0,2,0,250.0,train,0,M
506.637096405,1,1000,0,1,5,1,4,3,0,2,0,250.0,train,1,M
522.588968277,2,1000,4,0,5,1,4,3,0,2,0,250.0,train,1,M
442.631006241,0,1000,5,1,5,1,4,3,0,2,0,250.0,train,0,M
1498.35896492,3,1000,2,1,5,1,4,3,0,2,0,250.0,train,3,M
730.558156967,2,1000,4,1,5,1,4,3,0,2,0,250.0,train,2,M
1594.61688995,2,1000,4,1,5,1,4,3,0,2,0,250.0,train,2,M
508.005142212,0,1000,5,1,5,1,4,3,0,2,0,250.0,train,0,M
570.248842239,2,1000,4,1,5,1,4,3,0,2,0,250.0,train,2,M
794.476032257,5,1000,1,1,5,1,4,3,0,2,0,250.0,train,5,M
602.442026138,2,1000,4,1,5,1,4,3,0,2,0,250.0,train,2,M
922.313928604,4,1000,3,0,5,1,4,3,0,2,0,250.0,train,3,M
618.992090225,2,1000,4,1,5,1,4,3,0,2,0,250.0,train,2,M
683.09211731,3,1000,2,1,5,1,4,3,0,2,0,250.0,train,3,M
522.552013397,4,1000,3,1,5,1,4,3,0,2,0,250.0,train,4,M
539.962053299,5,1000,1,1,5,1,4,3,0,2,0,250.0,train,5,M
458.534002304,5,1000,1,1,5,1,4,3,0,2,0,250.0,train,5,M
395.971059799,5,1000,1,1,5,1,4,3,0,2,0,250.0,train,5,M
587.202072144,0,1000,5,1,5,1,4,3,0,2,0,250.0,train,0,M
538.491010666,1,1000,0,1,5,1,4,3,0,2,0,250.0,train,1,M
506.490945816,1,1000,0,1,5,1,4,3,0,2,0,250.0,train,1,M
906.637907028,3,1000,2,1,5,1,4,3,0,2,0,250.0,train,3,M
538.568019867,3,1000,2,1,5,1,4,3,0,2,0,250.0,train,3,M
554.447889328,5,1000,1,1,5,1,4,3,0,2,0,250.0,train,5,M
666.558980942,3,1000,2,1,5,1,4,3,0,2,0,250.0,train,3,M
554.588079453,5,1000,1,1,5,1,4,3,0,2,0,250.0,train,5,M
698.577165604,1,1000,0,1,5,1,4,3,0,2,0,250.0,train,1,M
698.516130447,4,1000,3,1,5,1,4,3,0,2,0,250.0,train,4,M
522.583007812,1,1000,0,1,5,1,4,3,0,2,0,250.0,train,1,M
667.906045914,2,1000,4,1,5,1,4,3,0,2,0,250.0,train,2,M
522.646903992,1,1000,0,1,5,1,4,3,0,2,0,250.0,train,1,M
602.669000626,5,1000,1,1,5,1,4,3,0,2,0,250.0,train,5,M
554.666042328,5,1000,1,1,5,1,4,3,0,2,0,250.0,train,5,M
522.368907928,0,1000,5,1,5,1,4,3,0,2,0,250.0,train,0,M
683.0971241,2,1000,4,1,5,1,4,3,0,2,0,250.0,train,2,M
684.019804001,4,1000,3,1,5,1,4,3,0,2,0,250.0,train,4,M
458.540916443,0,1000,5,1,5,1,4,3,0,2,0,250.0,train,0,M
506.567001343,3,1000,2,1,5,1,4,3,0,2,0,250.0,train,3,M
506.529808044,5,1000,1,1,5,1,4,3,0,2,0,250.0,train,5,M
556.027173996,3,1000,2,1,5,1,4,3,0,2,0,250.0,train,3,M
474.477052689,3,1000,2,1,5,1,4,3,0,2,0,250.0,train,3,M
746.469020844,2,1000,4,1,5,1,4,3,0,2,0,250.0,train,2,M
523.889064789,4,1000,3,1,5,1,4,3,0,2,0,250.0,train,4,M
442.430019379,1,1000,0,1,5,1,4,3,0,2,0,250.0,train,1,M
474.411964417,1,1000,0,1,5,1,4,3,0,2,0,250.0,train,1,M
1002.01201439,5,1000,1,1,5,1,4,3,0,2,0,250.0,train,5,M
618.464946747,3,1000,2,1,5,1,4,3,0,2,0,250.0,train,3,M
522.505044937,5,1000,1,1,5,1,4,3,0,2,0,250.0,train,5,M
474.406003952,5,1000,1,1,5,1,4,3,0,2,0,250.0,train,5,M
636.011123657,0,1000,5,1,5,1,4,3,0,2,0,250.0,train,0,M
554.878950119,1,1000,0,1,5,1,4,3,0,2,0,250.0,train,1,M
538.531064987,4,1000,3,1,5,1,4,3,0,2,0,250.0,train,4,M
570.275068283,3,1000,2,1,5,1,4,3,0,2,0,250.0,train,3,M
474.566221237,0,1000,5,1,5,1,4,3,0,2,0,250.0,train,0,M
396.000862122,0,1000,5,1,5,1,4,3,0,2,0,250.0,train,0,M
746.981143951,3,1000,2,1,5,1,4,3,0,2,0,250.0,train,3,M
826.510906219,2,1000,4,1,5,1,4,3,0,2,0,250.0,train,2,M
537.40811348,2,1000,4,1,5,1,4,3,0,2,0,250.0,train,2,M
538.62786293,5,1000,1,1,5,1,4,3,0,2,0,250.0,train,5,M
1082.62515068,4,1000,3,1,5,1,4,3,0,2,0,250.0,train,4,M
682.546138763,2,1000,4,1,5,1,4,3,0,2,0,250.0,train,2,M
618.51978302,3,1000,2,1,5,1,4,3,0,2,0,250.0,train,3,M
379.792928696,0,1000,5,1,5,1,4,3,0,2,0,250.0,train,0,M
698.505163193,1,1000,0,1,5,1,4,3,0,2,0,250.0,train,1,M
554.608821869,3,1000,2,1,5,1,4,3,0,2,0,250.0,train,3,M
507.178068161,3,1000,2,1,5,1,4,3,0,2,0,250.0,train,3,M
634.536027908,2,1000,4,1,5,1,4,3,0,2,0,250.0,train,2,M
650.552988052,5,1000,1,1,5,1,4,3,0,2,0,250.0,train,5,M
442.481994629,1,1000,0,1,5,1,4,3,0,2,0,250.0,train,1,M
474.478960037,0,1000,5,1,5,1,4,3,0,2,0,250.0,train,0,M
491.921901703,4,1000,3,0,5,1,4,3,0,2,0,250.0,train,3,M
571.994066238,2,1000,4,1,5,1,4,3,0,2,0,250.0,train,2,M
538.580179214,2,1000,4,1,5,1,4,3,0,2,0,250.0,train,2,M
476.008892059,1,1000,0,1,5,1,4,3,0,2,0,250.0,train,1,M
554.528951645,5,1000,1,1,5,1,4,3,0,2,0,250.0,train,5,M
442.39616394,1,1000,0,1,5,1,4,3,0,2,0,250.0,train,1,M
41771.638155,3,1000,2,1,5,1,4,3,0,2,0,250.0,test,3,M
1402.22787857,0,1000,5,1,5,1,4,3,0,2,0,250.0,test,0,M
650.407075882,0,1000,5,1,5,1,4,3,0,2,0,250.0,test,0,M
746.374845505,1,1000,0,1,5,1,4,3,0,2,0,250.0,test,1,M
2426.37300491,1,1000,0,1,5,1,4,3,0,2,0,250.0,test,1,M
538.35606575,0,1000,5,1,5,1,4,3,0,2,0,250.0,test,0,M
746.327161789,1,1000,0,1,5,1,4,3,0,2,0,250.0,test,1,M
698.369979858,2,1000,4,1,5,1,4,3,0,2,0,250.0,test,2,M
907.788991928,1,1000,0,1,5,1,4,3,0,2,0,250.0,test,1,M
1130.423069,3,1000,2,1,5,1,4,3,0,2,0,250.0,test,3,M
1258.33511353,2,1000,4,1,5,1,4,3,0,2,0,250.0,test,2,M
587.754964828,3,1000,2,1,5,1,4,3,0,2,0,250.0,test,3,M
762.314796448,5,1000,1,1,5,1,4,3,0,2,0,250.0,test,5,M
602.855920792,5,1000,1,1,5,1,4,3,0,2,0,250.0,test,5,M
794.299125671,1,1000,0,1,5,1,4,3,0,2,0,250.0,test,1,M
954.213857651,2,1000,4,1,5,1,4,3,0,2,0,250.0,test,2,M
922.353982925,4,1000,3,0,5,1,4,3,0,2,0,250.0,test,5,M
1002.34293938,2,1000,4,1,5,1,4,3,0,2,0,250.0,test,2,M
715.770959854,1,1000,0,1,5,1,4,3,0,2,0,250.0,test,1,M
810.428142548,0,1000,5,1,5,1,4,3,0,2,0,250.0,test,0,M
1035.79306602,5,1000,1,1,5,1,4,3,0,2,0,250.0,test,5,M
586.333990097,1,1000,0,1,5,1,4,3,0,2,0,250.0,test,1,M
635.797023773,3,1000,2,1,5,1,4,3,0,2,0,250.0,test,3,M
666.412115097,3,1000,2,1,5,1,4,3,0,2,0,250.0,test,3,M
778.926849365,1,1000,0,1,5,1,4,3,0,2,0,250.0,test,1,M
633.943080902,1,1000,0,1,5,1,4,3,0,2,0,250.0,test,1,M
746.323108673,2,1000,4,1,5,1,4,3,0,2,0,250.0,test,2,M
682.44099617,1,1000,0,1,5,1,4,3,0,2,0,250.0,test,1,M
618.421792984,3,1000,2,1,5,1,4,3,0,2,0,250.0,test,3,M
634.366035461,1,1000,0,1,5,1,4,3,0,2,0,250.0,test,1,M
634.363174438,2,1000,4,1,5,1,4,3,0,2,0,250.0,test,2,M
506.432056427,0,1000,5,1,5,1,4,3,0,2,0,250.0,test,0,M
714.402914047,1,1000,0,1,5,1,4,3,0,2,0,250.0,test,1,M
522.400856018,5,1000,1,1,5,1,4,3,0,2,0,250.0,test,5,M
746.334075928,0,1000,5,1,5,1,4,3,0,2,0,250.0,test,0,M
538.964986801,2,1000,4,0,5,1,4,3,0,2,0,250.0,test,1,M
698.405981064,3,1000,2,1,5,1,4,3,0,2,0,250.0,test,3,M
730.370044708,2,1000,4,1,5,1,4,3,0,2,0,250.0,test,2,M
1018.34011078,0,1000,5,1,5,1,4,3,0,2,0,250.0,test,0,M
842.367887497,4,1000,3,1,5,1,4,3,0,2,0,250.0,test,4,M
553.901910782,5,1000,1,1,5,1,4,3,0,2,0,250.0,test,5,M
555.813074112,3,1000,2,1,5,1,4,3,0,2,0,250.0,test,3,M
635.788917542,1,1000,0,1,5,1,4,3,0,2,0,250.0,test,1,M
715.787887573,1,1000,0,1,5,1,4,3,0,2,0,250.0,test,1,M
506.319046021,0,1000,5,1,5,1,4,3,0,2,0,250.0,test,0,M
792.922019958,4,1000,3,1,5,1,4,3,0,2,0,250.0,test,4,M
555.620193481,5,1000,1,1,5,1,4,3,0,2,0,250.0,test,5,M
715.556144714,4,1000,3,1,5,1,4,3,0,2,0,250.0,test,4,M
666.349887848,1,1000,0,1,5,1,4,3,0,2,0,250.0,test,1,M
538.288831711,0,1000,5,1,5,1,4,3,0,2,0,250.0,test,0,M
714.917898178,0,1000,5,1,5,1,4,3,0,2,0,250.0,test,0,M
459.771871567,0,1000,5,1,5,1,4,3,0,2,0,250.0,test,0,M
540.477991104,5,1000,1,1,5,1,4,3,0,2,0,250.0,test,5,M
539.762020111,1,1000,0,1,5,1,4,3,0,2,0,250.0,test,1,M
618.458986282,3,1000,2,1,5,1,4,3,0,2,0,250.0,test,3,M
524.765968323,1,1000,0,1,5,1,4,3,0,2,0,250.0,test,1,M
443.699836731,1,1000,0,1,5,1,4,3,0,2,0,250.0,test,1,M
540.416955948,0,1000,5,1,5,1,4,3,0,2,0,250.0,test,0,M
602.41484642,0,1000,5,1,5,1,4,3,0,2,0,250.0,test,0,M
538.4349823,3,1000,2,1,5,1,4,3,0,2,0,250.0,test,3,M
923.825979233,2,1000,4,1,5,1,4,3,0,2,0,250.0,test,2,M
682.34705925,2,1000,4,1,5,1,4,3,0,2,0,250.0,test,2,M
410.449981689,2,1000,4,1,5,1,4,3,0,2,0,250.0,test,2,M
650.357961655,3,1000,2,1,5,1,4,3,0,2,0,250.0,test,3,M
570.385932922,5,1000,1,1,5,1,4,3,0,2,0,250.0,test,5,M
618.307828903,4,1000,3,1,5,1,4,3,0,2,0,250.0,test,4,M
490.337133408,5,1000,1,1,5,1,4,3,0,2,0,250.0,test,5,M
570.766925812,0,1000,5,1,5,1,4,3,0,2,0,250.0,test,0,M
633.156061172,3,1000,2,1,5,1,4,3,0,2,0,250.0,test,3,M
970.366954803,5,1000,1,1,5,1,4,3,0,2,0,250.0,test,5,M
666.349887848,1,1000,0,1,5,1,4,3,0,2,0,250.0,test,1,M
554.243803024,5,1000,1,1,5,1,4,3,0,2,0,250.0,test,5,M
586.354970932,3,1000,2,1,5,1,4,3,0,2,0,250.0,test,3,M
730.25894165,4,1000,3,1,5,1,4,3,0,2,0,250.0,test,4,M
587.79501915,3,1000,2,1,5,1,4,3,0,2,0,250.0,test,3,M
458.228111267,3,1000,2,1,5,1,4,3,0,2,0,250.0,test,3,M
459.350824356,4,1000,3,0,5,1,4,3,0,2,0,250.0,test,5,M
587.802171707,5,1000,1,1,5,1,4,3,0,2,0,250.0,test,5,M
1162.35399246,1,1000,0,1,5,1,4,3,0,2,0,250.0,test,1,M
538.287878036,3,1000,2,1,5,1,4,3,0,2,0,250.0,test,3,M
618.317842484,1,1000,0,1,5,1,4,3,0,2,0,250.0,test,1,M
490.274906158,5,1000,1,1,5,1,4,3,0,2,0,250.0,test,5,M
714.355945587,1,1000,0,1,5,1,4,3,0,2,0,250.0,test,1,M
522.361040115,3,1000,2,1,5,1,4,3,0,2,0,250.0,test,3,M
538.29908371,4,1000,3,1,5,1,4,3,0,2,0,250.0,test,4,M
554.284095764,2,1000,4,0,5,1,4,3,0,2,0,250.0,test,1,M
522.405862808,0,1000,5,1,5,1,4,3,0,2,0,250.0,test,0,M
523.815870285,3,1000,2,1,5,1,4,3,0,2,0,250.0,test,3,M
667.677164078,3,1000,2,1,5,1,4,3,0,2,0,250.0,test,3,M
1002.93898582,1,1000,0,1,5,1,4,3,0,2,0,250.0,test,1,M
538.388967514,1,1000,0,1,5,1,4,3,0,2,0,250.0,test,1,M
858.247995377,4,1000,3,1,5,1,4,3,0,2,0,250.0,test,4,M
539.736032486,0,1000,5,1,5,1,4,3,0,2,0,250.0,test,0,M
1082.40914345,2,1000,4,0,5,1,4,3,0,2,0,250.0,test,1,M
970.957994461,0,1000,5,1,5,1,4,3,0,2,0,250.0,test,0,M
570.366859436,4,1000,3,1,5,1,4,3,0,2,0,250.0,test,4,M
506.407976151,0,1000,5,1,5,1,4,3,0,2,0,250.0,test,0,M
698.272943497,5,1000,1,1,5,1,4,3,0,2,0,250.0,test,5,M
1066.41793251,4,1000,3,1,5,1,4,3,0,2,0,250.0,test,4,M
810.973167419,3,1000,2,1,5,1,4,3,0,2,0,250.0,test,3,M
1226.43899918,4,1000,3,0,5,1,4,3,0,2,0,250.0,test,0,M
378.273010254,4,1000,3,1,5,1,4,3,0,2,0,250.0,test,4,M
490.432977676,5,1000,1,1,5,1,4,3,0,2,0,250.0,test,5,M
618.281126022,2,1000,4,0,5,1,4,3,0,2,0,250.0,test,1,M
618.275880814,5,1000,1,1,5,1,4,3,0,2,0,250.0,test,5,M
555.838108063,5,1000,1,1,5,1,4,3,0,2,0,250.0,test,5,M
619.741916656,5,1000,1,1,5,1,4,3,0,2,0,250.0,test,5,M
475.791931152,5,1000,1,1,5,1,4,3,0,2,0,250.0,test,5,M
475.555896759,3,1000,2,0,5,1,4,3,0,2,0,250.0,test,5,M
570.299863815,3,1000,2,1,5,1,4,3,0,2,0,250.0,test,3,M
666.406154633,1,1000,0,0,5,1,4,3,0,2,0,250.0,test,0,M
826.915025711,4,1000,3,1,5,1,4,3,0,2,0,250.0,test,4,M
587.762832642,3,1000,2,1,5,1,4,3,0,2,0,250.0,test,3,M
634.278059006,1,1000,0,1,5,1,4,3,0,2,0,250.0,test,1,M
619.818210602,5,1000,1,1,5,1,4,3,0,2,0,250.0,test,5,M
475.727081299,1,1000,0,1,5,1,4,3,0,2,0,250.0,test,1,M
554.363012314,5,1000,1,1,5,1,4,3,0,2,0,250.0,test,5,M
1019.70887184,0,1000,5,0,5,1,4,3,0,2,0,250.0,test,1,M
522.370100021,5,1000,1,1,5,1,4,3,0,2,0,250.0,test,5,M
1050.36997795,2,1000,4,1,5,1,4,3,0,2,0,250.0,test,2,M
378.296852112,2,1000,4,1,5,1,4,3,0,2,0,250.0,test,2,M
922.417163849,0,1000,5,0,5,1,4,3,0,2,0,250.0,test,4,M
554.3820858,5,1000,1,1,5,1,4,3,0,2,0,250.0,test,5,M
922.394037247,1,1000,0,1,5,1,4,3,0,2,0,250.0,test,1,M
714.339017868,2,1000,4,1,5,1,4,3,0,2,0,250.0,test,2,M
1690.98997116,2,1000,4,1,5,1,4,3,0,2,0,250.0,test,2,M
1242.18297005,0,1000,5,1,5,1,4,3,0,2,0,250.0,test,0,M
619.750976562,1,1000,0,1,5,1,4,3,0,2,0,250.0,test,1,M
842.658042908,4,1000,3,1,5,1,4,3,0,2,0,250.0,test,4,M
602.368831635,3,1000,2,1,5,1,4,3,0,2,0,250.0,test,3,M
618.649959564,1,1000,0,1,5,1,4,3,0,2,0,250.0,test,1,M
506.29901886,5,1000,1,1,5,1,4,3,0,2,0,250.0,test,5,M
1610.31103134,2,1000,4,1,5,1,4,3,0,2,0,250.0,test,2,M
618.229866028,3,1000,2,1,5,1,4,3,0,2,0,250.0,test,3,M
954.337120056,4,1000,3,1,5,1,4,3,0,2,0,250.0,test,4,M
586.404085159,0,1000,5,1,5,1,4,3,0,2,0,250.0,test,0,M
507.776021957,0,1000,5,1,5,1,4,3,0,2,0,250.0,test,0,M
618.866920471,3,1000,2,1,5,1,4,3,0,2,0,250.0,test,3,M
1691.65897369,0,1000,5,1,5,1,4,3,0,2,0,250.0,test,0,M
730.938911438,0,1000,5,1,5,1,4,3,0,2,0,250.0,test,0,M
490.340948105,0,1000,5,1,5,1,4,3,0,2,0,250.0,test,0,M
539.68501091,1,1000,0,1,5,1,4,3,0,2,0,250.0,test,1,M
555.766105652,1,1000,0,1,5,1,4,3,0,2,0,250.0,test,1,M
506.362915039,3,1000,2,1,5,1,4,3,0,2,0,250.0,test,3,M
603.765964508,2,1000,4,0,5,1,4,3,0,2,0,250.0,test,1,M
1242.37203598,4,1000,3,1,5,1,4,3,0,2,0,250.0,test,4,M
395.701885223,4,1000,3,1,5,1,4,3,0,2,0,250.0,test,4,M
746.37389183,1,1000,0,1,5,1,4,3,0,2,0,250.0,test,1,M
538.362979889,0,1000,5,1,5,1,4,3,0,2,0,250.0,test,0,M
538.340091705,0,1000,5,1,5,1,4,3,0,2,0,250.0,test,0,M
538.431167603,5,1000,1,1,5,1,4,3,0,2,0,250.0,test,5,M
650.297880173,2,1000,4,1,5,1,4,3,0,2,0,250.0,test,2,M
602.266073227,0,1000,5,1,5,1,4,3,0,2,0,250.0,test,0,M
554.344892502,0,1000,5,1,5,1,4,3,0,2,0,250.0,test,0,M
731.791973114,1,1000,0,1,5,1,4,3,0,2,0,250.0,test,1,M
746.392011642,4,1000,3,1,5,1,4,3,0,2,0,250.0,test,4,M
490.968942642,5,1000,1,1,5,1,4,3,0,2,0,250.0,test,5,M
1162.32991219,1,1000,0,1,5,1,4,3,0,2,0,250.0,test,1,M
650.352954865,2,1000,4,1,5,1,4,3,0,2,0,250.0,test,2,M
474.390029907,2,1000,4,1,5,1,4,3,0,2,0,250.0,test,2,M
442.428827286,0,1000,5,1,5,1,4,3,0,2,0,250.0,test,0,M
555.819034576,3,1000,2,1,5,1,4,3,0,2,0,250.0,test,3,M
458.348989487,3,1000,2,1,5,1,4,3,0,2,0,250.0,test,3,M
554.235935211,0,1000,5,1,5,1,4,3,0,2,0,250.0,test,0,M
587.414979935,1,1000,0,1,5,1,4,3,0,2,0,250.0,test,1,M
635.818004608,5,1000,1,1,5,1,4,3,0,2,0,250.0,test,5,M
747.37906456,2,1000,4,1,5,1,4,3,0,2,0,250.0,test,2,M
714.329957962,0,1000,5,1,5,1,4,3,0,2,0,250.0,test,0,M
554.316043854,5,1000,1,1,5,1,4,3,0,2,0,250.0,test,5,M
666.335105896,1,1000,0,1,5,1,4,3,0,2,0,250.0,test,1,M
570.775985718,1,1000,0,1,5,1,4,3,0,2,0,250.0,test,1,M
506.389856339,1,1000,0,1,5,1,4,3,0,2,0,250.0,test,1,M
506.322145462,3,1000,2,0,5,1,4,3,0,2,0,250.0,test,5,M
890.413045883,1,1000,0,1,5,1,4,3,0,2,0,250.0,test,1,M
666.39995575,4,1000,3,1,5,1,4,3,0,2,0,250.0,test,4,M
554.337978363,5,1000,1,1,5,1,4,3,0,2,0,250.0,test,5,M
907.767057419,2,1000,4,1,5,1,4,3,0,2,0,250.0,test,2,M
555.686950684,5,1000,1,1,5,1,4,3,0,2,0,250.0,test,5,M
602.392911911,0,1000,5,0,5,1,4,3,0,2,0,250.0,test,4,M
538.053035736,3,1000,2,1,5,1,4,3,0,2,0,250.0,test,3,M
794.316053391,2,1000,4,1,5,1,4,3,0,2,0,250.0,test,2,M
650.362968445,0,1000,5,1,5,1,4,3,0,2,0,250.0,test,0,M
1034.28912163,4,1000,3,1,5,1,4,3,0,2,0,250.0,test,4,M
602.871894836,2,1000,4,1,5,1,4,3,0,2,0,250.0,test,2,M
554.28314209,3,1000,2,1,5,1,4,3,0,2,0,250.0,test,3,M
714.335918427,2,1000,4,1,5,1,4,3,0,2,0,250.0,test,2,M
555.764198303,3,1000,2,1,5,1,4,3,0,2,0,250.0,test,3,M
538.365840912,3,1000,2,1,5,1,4,3,0,2,0,250.0,test,3,M
1290.34280777,2,1000,4,1,5,1,4,3,0,2,0,250.0,test,2,M
683.768033981,3,1000,2,1,5,1,4,3,0,2,0,250.0,test,3,M
506.963014603,3,1000,2,1,5,1,4,3,0,2,0,250.0,test,3,M
362.212181091,3,1000,2,1,5,1,4,3,0,2,0,250.0,test,3,M
426.93901062,3,1000,2,1,5,1,4,3,0,2,0,250.0,test,3,M
634.294986725,2,1000,4,1,5,1,4,3,0,2,0,250.0,test,2,M
475.757837296,2,1000,4,1,5,1,4,3,0,2,0,250.0,test,2,M
298.259973526,1,1000,0,0,5,1,4,3,0,2,0,250.0,test,2,M
490.334033966,3,1000,2,1,5,1,4,3,0,2,0,250.0,test,3,M
715.672016144,1,1000,0,1,5,1,4,3,0,2,0,250.0,test,1,M
571.515798569,1,1000,0,1,5,1,4,3,0,2,0,250.0,test,1,M
602.382898331,2,1000,4,0,5,1,4,3,0,2,0,250.0,test,1,M
602.396965027,1,1000,0,1,5,1,4,3,0,2,0,250.0,test,1,M
635.777950287,2,1000,4,1,5,1,4,3,0,2,0,250.0,test,2,M
954.004049301,4,1000,3,1,5,1,4,3,0,2,0,250.0,test,4,M
651.725053787,1,1000,0,1,5,1,4,3,0,2,0,250.0,test,1,M
538.908004761,3,1000,2,1,5,1,4,3,0,2,0,250.0,test,3,M
666.386127472,2,1000,4,1,5,1,4,3,0,2,0,250.0,test,2,M
522.38702774,5,1000,1,1,5,1,4,3,0,2,0,250.0,test,5,M
474.346160889,5,1000,1,1,5,1,4,3,0,2,0,250.0,test,5,M
746.309041977,3,1000,2,1,5,1,4,3,0,2,0,250.0,test,3,M
1083.7688446,0,1000,5,1,5,1,4,3,0,2,0,250.0,test,0,M
458.346128464,1,1000,0,1,5,1,4,3,0,2,0,250.0,test,1,M
490.341901779,2,1000,4,1,5,1,4,3,0,2,0,250.0,test,2,M
698.319911957,1,1000,0,1,5,1,4,3,0,2,0,250.0,test,1,M
570.412874222,5,1000,1,1,5,1,4,3,0,2,0,250.0,test,5,M
538.284063339,4,1000,3,1,5,1,4,3,0,2,0,250.0,test,4,M
746.335029602,1,1000,0,1,5,1,4,3,0,2,0,250.0,test,1,M
586.246967316,1,1000,0,1,5,1,4,3,0,2,0,250.0,test,1,M
602.397918701,5,1000,1,1,5,1,4,3,0,2,0,250.0,test,5,M
586.267948151,4,1000,3,1,5,1,4,3,0,2,0,250.0,test,4,M
570.319890976,5,1000,1,1,5,1,4,3,0,2,0,250.0,test,5,M
650.26307106,4,1000,3,1,5,1,4,3,0,2,0,250.0,test,4,M
714.262008667,5,1000,1,1,5,1,4,3,0,2,0,250.0,test,5,M
682.305812836,2,1000,4,0,5,1,4,3,0,2,0,250.0,test,1,M
538.801908493,1,1000,0,1,5,1,4,3,0,2,0,250.0,test,1,M
522.258996964,5,1000,1,1,5,1,4,3,0,2,0,250.0,test,5,M
1098.88219833,2,1000,4,1,5,1,4,3,0,2,0,250.0,test,2,M
650.137901306,5,1000,1,1,5,1,4,3,0,2,0,250.0,test,5,M
603.143930435,5,1000,1,1,5,1,4,3,0,2,0,250.0,test,5,M
731.579065323,0,1000,5,0,5,1,4,3,0,2,0,250.0,test,4,M
538.375854492,5,1000,1,1,5,1,4,3,0,2,0,250.0,test,5,M
634.256839752,1,1000,0,1,5,1,4,3,0,2,0,250.0,test,1,M
490.346193314,5,1000,1,1,5,1,4,3,0,2,0,250.0,test,5,M
474.134206772,4,1000,3,1,5,1,4,3,0,2,0,250.0,test,4,M
682.358026505,1,1000,0,1,5,1,4,3,0,2,0,250.0,test,1,M
746.260166168,4,1000,3,1,5,1,4,3,0,2,0,250.0,test,4,M
586.287021637,2,1000,4,1,5,1,4,3,0,2,0,250.0,test,2,M
522.318124771,2,1000,4,1,5,1,4,3,0,2,0,250.0,test,2,M
617.107152939,5,1000,1,1,5,1,4,3,0,2,0,250.0,test,5,M
747.696876526,0,1000,5,1,5,1,4,3,0,2,0,250.0,test,0,M
827.839851379,5,1000,1,1,5,1,4,3,0,2,0,250.0,test,5,M
570.825099945,2,1000,4,1,5,1,4,3,0,2,0,250.0,test,2,M
522.366046906,5,1000,1,1,5,1,4,3,0,2,0,250.0,test,5,M
586.521863937,2,1000,4,1,5,1,4,3,0,2,0,250.0,test,2,M
521.062850952,5,1000,1,1,5,1,4,3,0,2,0,250.0,test,5,M
634.167909622,1,1000,0,1,5,1,4,3,0,2,0,250.0,test,1,M
505.054950714,3,1000,2,1,5,1,4,3,0,2,0,250.0,test,3,M
441.890954971,3,1000,2,1,5,1,4,3,0,2,0,250.0,test,3,M
538.246870041,0,1000,5,1,5,1,4,3,0,2,0,250.0,test,0,M
570.729970932,3,1000,2,1,5,1,4,3,0,2,0,250.0,test,3,M
522.318124771,3,1000,2,1,5,1,4,3,0,2,0,250.0,test,3,M
