RT,correct_response,ms-prestimblank,curstim,correct,SRmap_1,SRmap_0,SRmap_3,SRmap_2,SRmap_5,SRmap_4,ms-precue,ntrials,type,response,condition
4791.19086266,1,600,3,1,0,2,1,5,3,4,400,250.0,train,1,E-
855.608940125,2,600,0,1,0,2,1,5,3,4,400,250.0,train,2,E-
1177.06084251,4,600,4,1,0,2,1,5,3,4,400,250.0,train,4,E-
1143.76592636,5,600,2,1,0,2,1,5,3,4,400,250.0,train,5,E-
519.69408989,4,600,4,1,0,2,1,5,3,4,400,250.0,train,4,E-
663.820981979,2,600,0,0,0,2,1,5,3,4,400,250.0,train,1,E-
1591.78209305,5,600,2,1,0,2,1,5,3,4,400,250.0,train,5,E-
423.815965652,0,600,1,1,0,2,1,5,3,4,400,250.0,train,0,E-
105.043888092,1,600,3,1,0,2,1,5,3,4,400,250.0,train,1,E-
505.176067352,4,600,4,0,0,2,1,5,3,4,400,250.0,train,3,E-
457.145929337,3,600,5,1,0,2,1,5,3,4,400,250.0,train,3,E-
265.210866928,4,600,4,1,0,2,1,5,3,4,400,250.0,train,4,E-
584.485054016,0,600,1,1,0,2,1,5,3,4,400,250.0,train,0,E-
1063.71092796,4,600,4,1,0,2,1,5,3,4,400,250.0,train,4,E-
471.750974655,5,600,2,1,0,2,1,5,3,4,400,250.0,train,5,E-
263.586997986,0,600,1,1,0,2,1,5,3,4,400,250.0,train,0,E-
87.7411365509,1,600,3,1,0,2,1,5,3,4,400,250.0,train,1,E-
264.303922653,4,600,4,1,0,2,1,5,3,4,400,250.0,train,4,E-
167.490959167,4,600,4,1,0,2,1,5,3,4,400,250.0,train,4,E-
87.6429080963,4,600,4,1,0,2,1,5,3,4,400,250.0,train,4,E-
233.104944229,5,600,2,1,0,2,1,5,3,4,400,250.0,train,5,E-
391.708135605,3,600,5,1,0,2,1,5,3,4,400,250.0,train,3,E-
871.652841568,1,600,3,1,0,2,1,5,3,4,400,250.0,train,1,E-
695.713996887,4,600,4,1,0,2,1,5,3,4,400,250.0,train,4,E-
135.662078857,1,600,3,1,0,2,1,5,3,4,400,250.0,train,1,E-
391.747951508,4,600,4,1,0,2,1,5,3,4,400,250.0,train,4,E-
135.616064072,1,600,3,1,0,2,1,5,3,4,400,250.0,train,1,E-
791.730880737,3,600,5,1,0,2,1,5,3,4,400,250.0,train,3,E-
343.804836273,1,600,3,1,0,2,1,5,3,4,400,250.0,train,1,E-
423.882007599,3,600,5,1,0,2,1,5,3,4,400,250.0,train,3,E-
215.80696106,2,600,0,1,0,2,1,5,3,4,400,250.0,train,2,E-
263.862848282,4,600,4,1,0,2,1,5,3,4,400,250.0,train,4,E-
71.8989372253,0,600,1,1,0,2,1,5,3,4,400,250.0,train,0,E-
247.90596962,2,600,0,1,0,2,1,5,3,4,400,250.0,train,2,E-
279.8371315,5,600,2,0,0,2,1,5,3,4,400,250.0,train,4,E-
295.650959015,2,600,0,1,0,2,1,5,3,4,400,250.0,train,2,E-
311.820030212,2,600,0,1,0,2,1,5,3,4,400,250.0,train,2,E-
375.647068024,2,600,0,1,0,2,1,5,3,4,400,250.0,train,2,E-
296.506881714,2,600,0,1,0,2,1,5,3,4,400,250.0,train,2,E-
425.305843353,5,600,2,1,0,2,1,5,3,4,400,250.0,train,5,E-
791.8009758,4,600,4,1,0,2,1,5,3,4,400,250.0,train,4,E-
327.739953995,3,600,5,1,0,2,1,5,3,4,400,250.0,train,3,E-
359.570980072,4,600,4,1,0,2,1,5,3,4,400,250.0,train,4,E-
231.576919556,4,600,4,1,0,2,1,5,3,4,400,250.0,train,4,E-
423.650979996,1,600,3,1,0,2,1,5,3,4,400,250.0,train,1,E-
311.769962311,0,600,1,1,0,2,1,5,3,4,400,250.0,train,0,E-
183.656930923,1,600,3,1,0,2,1,5,3,4,400,250.0,train,1,E-
343.6460495,4,600,4,1,0,2,1,5,3,4,400,250.0,train,4,E-
439.441919327,2,600,0,1,0,2,1,5,3,4,400,250.0,train,2,E-
361.191987991,5,600,2,1,0,2,1,5,3,4,400,250.0,train,5,E-
231.729984283,1,600,3,1,0,2,1,5,3,4,400,250.0,train,1,E-
327.644109726,0,600,1,1,0,2,1,5,3,4,400,250.0,train,0,E-
231.689929962,5,600,2,1,0,2,1,5,3,4,400,250.0,train,5,E-
247.694015503,4,600,4,1,0,2,1,5,3,4,400,250.0,train,4,E-
263.637065887,1,600,3,1,0,2,1,5,3,4,400,250.0,train,1,E-
407.846927643,4,600,4,1,0,2,1,5,3,4,400,250.0,train,4,E-
199.760913849,4,600,4,1,0,2,1,5,3,4,400,250.0,train,4,E-
151.830196381,1,600,3,1,0,2,1,5,3,4,400,250.0,train,1,E-
215.806007385,1,600,3,1,0,2,1,5,3,4,400,250.0,train,1,E-
328.028917313,2,600,0,1,0,2,1,5,3,4,400,250.0,train,2,E-
313.106060028,4,600,4,1,0,2,1,5,3,4,400,250.0,train,4,E-
184.478998184,4,600,4,1,0,2,1,5,3,4,400,250.0,train,4,E-
231.683969498,4,600,4,1,0,2,1,5,3,4,400,250.0,train,4,E-
103.76906395,0,600,1,1,0,2,1,5,3,4,400,250.0,train,0,E-
472.545146942,4,600,4,1,0,2,1,5,3,4,400,250.0,train,4,E-
247.673034668,4,600,4,1,0,2,1,5,3,4,400,250.0,train,4,E-
55.6590557098,3,600,5,1,0,2,1,5,3,4,400,250.0,train,3,E-
9.13500785828,4,600,4,1,0,2,1,5,3,4,400,250.0,train,4,E-
135.638952255,1,600,3,1,0,2,1,5,3,4,400,250.0,train,1,E-
152.506113052,2,600,0,1,0,2,1,5,3,4,400,250.0,train,2,E-
105.382919312,1,600,3,1,0,2,1,5,3,4,400,250.0,train,1,E-
281.263113022,4,600,4,1,0,2,1,5,3,4,400,250.0,train,4,E-
153.26499939,0,600,1,1,0,2,1,5,3,4,400,250.0,train,0,E-
151.72290802,0,600,1,1,0,2,1,5,3,4,400,250.0,train,0,E-
409.227132797,3,600,5,1,0,2,1,5,3,4,400,250.0,train,3,E-
184.502840042,2,600,0,1,0,2,1,5,3,4,400,250.0,train,2,E-
137.117862701,4,600,4,1,0,2,1,5,3,4,400,250.0,train,4,E-
199.739933014,5,600,2,1,0,2,1,5,3,4,400,250.0,train,5,E-
167.730093002,4,600,4,1,0,2,1,5,3,4,400,250.0,train,4,E-
167.69695282,3,600,5,1,0,2,1,5,3,4,400,250.0,train,3,E-
103.765010834,4,600,4,1,0,2,1,5,3,4,400,250.0,train,4,E-
247.852087021,1,600,3,1,0,2,1,5,3,4,400,250.0,train,1,E-
199.817895889,5,600,2,1,0,2,1,5,3,4,400,250.0,train,5,E-
57.0709705353,0,600,1,1,0,2,1,5,3,4,400,250.0,train,0,E-
167.840003967,4,600,4,1,0,2,1,5,3,4,400,250.0,train,4,E-
55.8309555054,4,600,4,1,0,2,1,5,3,4,400,250.0,train,4,E-
7.91478157043,3,600,5,0,0,2,1,5,3,4,400,250.0,train,2,E-
247.966051102,4,600,4,1,0,2,1,5,3,4,400,250.0,train,4,E-
135.918855667,1,600,3,1,0,2,1,5,3,4,400,250.0,train,1,E-
311.834096909,4,600,4,1,0,2,1,5,3,4,400,250.0,train,4,E-
87.7029895782,3,600,5,1,0,2,1,5,3,4,400,250.0,train,3,E-
249.123096466,4,600,4,1,0,2,1,5,3,4,400,250.0,train,4,E-
279.644966125,3,600,5,1,0,2,1,5,3,4,400,250.0,train,3,E-
151.917934418,5,600,2,1,0,2,1,5,3,4,400,250.0,train,5,E-
103.580951691,3,600,5,1,0,2,1,5,3,4,400,250.0,train,3,E-
407.706975937,5,600,2,1,0,2,1,5,3,4,400,250.0,train,5,E-
281.291007996,3,600,5,1,0,2,1,5,3,4,400,250.0,train,3,E-
280.37405014,0,600,1,1,0,2,1,5,3,4,400,250.0,train,0,E-
9.53602790833,1,600,3,1,0,2,1,5,3,4,400,250.0,train,1,E-
137.166023254,0,600,1,1,0,2,1,5,3,4,400,250.0,train,0,E-
1193.04585457,1,600,3,1,0,2,1,5,3,4,400,250.0,train,1,E-
329.20217514,4,600,4,1,0,2,1,5,3,4,400,250.0,train,4,E-
119.766950607,0,600,1,1,0,2,1,5,3,4,400,250.0,train,0,E-
87.6519680023,2,600,0,1,0,2,1,5,3,4,400,250.0,train,2,E-
103.748083115,0,600,1,1,0,2,1,5,3,4,400,250.0,train,0,E-
166.671037674,5,600,2,1,0,2,1,5,3,4,400,250.0,train,5,E-
86.7099761963,5,600,2,1,0,2,1,5,3,4,400,250.0,train,5,E-
57.1010112762,5,600,2,1,0,2,1,5,3,4,400,250.0,train,5,E-
215.872049332,4,600,4,1,0,2,1,5,3,4,400,250.0,train,4,E-
167.793989182,2,600,0,1,0,2,1,5,3,4,400,250.0,train,2,E-
361.165046692,4,600,4,1,0,2,1,5,3,4,400,250.0,train,4,E-
216.965913773,2,600,0,1,0,2,1,5,3,4,400,250.0,train,2,E-
87.8319740295,4,600,4,1,0,2,1,5,3,4,400,250.0,train,4,E-
169.116973877,2,600,0,1,0,2,1,5,3,4,400,250.0,train,2,E-
38.3350849152,1,600,3,1,0,2,1,5,3,4,400,250.0,train,1,E-
151.885032654,3,600,5,1,0,2,1,5,3,4,400,250.0,train,3,E-
86.492061615,2,600,0,1,0,2,1,5,3,4,400,250.0,train,2,E-
215.775966644,5,600,2,0,0,2,1,5,3,4,400,250.0,train,4,E-
279.778003693,1,600,3,1,0,2,1,5,3,4,400,250.0,train,1,E-
295.526981354,3,600,5,1,0,2,1,5,3,4,400,250.0,train,3,E-
167.650938034,4,600,4,1,0,2,1,5,3,4,400,250.0,train,4,E-
232.547998428,3,600,5,1,0,2,1,5,3,4,400,250.0,train,3,E-
55.5498600006,2,600,0,1,0,2,1,5,3,4,400,250.0,train,2,E-
151.721000671,5,600,2,1,0,2,1,5,3,4,400,250.0,train,5,E-
151.585817337,0,600,1,1,0,2,1,5,3,4,400,250.0,train,0,E-
39.7670269012,2,600,0,1,0,2,1,5,3,4,400,250.0,train,2,E-
119.653940201,5,600,2,1,0,2,1,5,3,4,400,250.0,train,5,E-
87.7411365509,4,600,4,1,0,2,1,5,3,4,400,250.0,train,4,E-
73.95195961,2,600,0,1,0,2,1,5,3,4,400,250.0,train,2,E-
89.1070365906,0,600,1,1,0,2,1,5,3,4,400,250.0,train,0,E-
89.1759395599,2,600,0,1,0,2,1,5,3,4,400,250.0,train,2,E-
279.709100723,3,600,5,1,0,2,1,5,3,4,400,250.0,train,3,E-
135.771989822,2,600,0,1,0,2,1,5,3,4,400,250.0,train,2,E-
136.452913284,0,600,1,1,0,2,1,5,3,4,400,250.0,train,0,E-
183.746099472,5,600,2,1,0,2,1,5,3,4,400,250.0,train,5,E-
184.341907501,1,600,3,1,0,2,1,5,3,4,400,250.0,train,1,E-
167.860031128,5,600,2,1,0,2,1,5,3,4,400,250.0,train,5,E-
263.875007629,3,600,5,1,0,2,1,5,3,4,400,250.0,train,3,E-
423.881053925,1,600,3,1,0,2,1,5,3,4,400,250.0,train,1,E-
439.799070358,3,600,5,1,0,2,1,5,3,4,400,250.0,train,3,E-
55.8259487152,1,600,3,1,0,2,1,5,3,4,400,250.0,train,1,E-
151.85713768,5,600,2,1,0,2,1,5,3,4,400,250.0,train,5,E-
71.9289779663,2,600,0,1,0,2,1,5,3,4,400,250.0,train,2,E-
39.8409366608,1,600,3,1,0,2,1,5,3,4,400,250.0,train,1,E-
151.865005493,1,600,3,1,0,2,1,5,3,4,400,250.0,train,1,E-
55.8230876923,2,600,0,1,0,2,1,5,3,4,400,250.0,train,2,E-
168.132066727,0,600,1,1,0,2,1,5,3,4,400,250.0,train,0,E-
103.897094727,2,600,0,1,0,2,1,5,3,4,400,250.0,train,2,E-
121.189832687,0,600,1,1,0,2,1,5,3,4,400,250.0,train,0,E-
263.794898987,1,600,3,1,0,2,1,5,3,4,400,250.0,train,1,E-
295.707941055,4,600,4,1,0,2,1,5,3,4,400,250.0,train,4,E-
135.589122772,4,600,4,1,0,2,1,5,3,4,400,250.0,train,4,E-
121.214866638,3,600,5,0,0,2,1,5,3,4,400,250.0,train,2,E-
231.606006622,2,600,0,1,0,2,1,5,3,4,400,250.0,train,2,E-
167.563915253,2,600,0,1,0,2,1,5,3,4,400,250.0,train,2,E-
247.591018677,3,600,5,1,0,2,1,5,3,4,400,250.0,train,3,E-
265.311002731,0,600,1,1,0,2,1,5,3,4,400,250.0,train,0,E-
391.635894775,3,600,5,1,0,2,1,5,3,4,400,250.0,train,3,E-
248.48484993,4,600,4,1,0,2,1,5,3,4,400,250.0,train,4,E-
201.258897781,2,600,0,1,0,2,1,5,3,4,400,250.0,train,2,E-
233.137130737,2,600,0,1,0,2,1,5,3,4,400,250.0,train,2,E-
183.665990829,0,600,1,1,0,2,1,5,3,4,400,250.0,train,0,E-
249.128103256,3,600,5,1,0,2,1,5,3,4,400,250.0,train,3,E-
279.785871506,4,600,4,1,0,2,1,5,3,4,400,250.0,train,4,E-
120.319843292,2,600,0,1,0,2,1,5,3,4,400,250.0,train,2,E-
23.8211154938,2,600,0,1,0,2,1,5,3,4,400,250.0,train,2,E-
119.740962982,5,600,2,1,0,2,1,5,3,4,400,250.0,train,5,E-
87.8179073334,0,600,1,1,0,2,1,5,3,4,400,250.0,train,0,E-
87.8949165344,0,600,1,1,0,2,1,5,3,4,400,250.0,train,0,E-
71.8100070953,2,600,0,1,0,2,1,5,3,4,400,250.0,train,2,E-
87.8150463104,1,600,3,1,0,2,1,5,3,4,400,250.0,train,1,E-
216.428995132,5,600,2,1,0,2,1,5,3,4,400,250.0,train,5,E-
246.537208557,2,600,0,1,0,2,1,5,3,4,400,250.0,train,2,E-
104.464054108,3,600,5,1,0,2,1,5,3,4,400,250.0,train,3,E-
71.9511508942,0,600,1,1,0,2,1,5,3,4,400,250.0,train,0,E-
119.980096817,5,600,2,1,0,2,1,5,3,4,400,250.0,train,5,E-
167.978048325,4,600,4,1,0,2,1,5,3,4,400,250.0,train,4,E-
120.496034622,5,600,2,1,0,2,1,5,3,4,400,250.0,train,5,E-
55.9020042419,5,600,2,1,0,2,1,5,3,4,400,250.0,train,5,E-
39.7510528564,5,600,2,1,0,2,1,5,3,4,400,250.0,train,5,E-
137.337207794,2,600,0,1,0,2,1,5,3,4,400,250.0,train,2,E-
86.4231586456,1,600,3,1,0,2,1,5,3,4,400,250.0,train,1,E-
119.707107544,5,600,2,1,0,2,1,5,3,4,400,250.0,train,5,E-
104.642868042,5,600,2,1,0,2,1,5,3,4,400,250.0,train,5,E-
182.410001755,2,600,0,1,0,2,1,5,3,4,400,250.0,train,2,E-
231.401920319,3,600,5,1,0,2,1,5,3,4,400,250.0,train,3,E-
55.6628704071,3,600,5,1,0,2,1,5,3,4,400,250.0,train,3,E-
71.8150138855,4,600,4,1,0,2,1,5,3,4,400,250.0,train,4,E-
167.626857758,0,600,1,1,0,2,1,5,3,4,400,250.0,train,0,E-
87.6469612122,1,600,3,1,0,2,1,5,3,4,400,250.0,train,1,E-
7.67207145691,2,600,0,1,0,2,1,5,3,4,400,250.0,train,2,E-
135.663986206,2,600,0,1,0,2,1,5,3,4,400,250.0,train,2,E-
217.339038849,4,600,4,1,0,2,1,5,3,4,400,250.0,train,4,E-
249.233961105,5,600,2,1,0,2,1,5,3,4,400,250.0,train,5,E-
88.0799293518,0,600,1,1,0,2,1,5,3,4,400,250.0,train,0,E-
214.656114578,5,600,2,1,0,2,1,5,3,4,400,250.0,train,5,E-
361.24587059,3,600,5,1,0,2,1,5,3,4,400,250.0,train,3,E-
119.739055634,4,600,4,1,0,2,1,5,3,4,400,250.0,train,4,E-
119.693994522,1,600,3,1,0,2,1,5,3,4,400,250.0,train,1,E-
281.180143356,4,600,4,1,0,2,1,5,3,4,400,250.0,train,4,E-
7.7109336853,2,600,0,1,0,2,1,5,3,4,400,250.0,train,2,E-
167.791128159,0,600,1,1,0,2,1,5,3,4,400,250.0,train,0,E-
167.7069664,0,600,1,1,0,2,1,5,3,4,400,250.0,train,0,E-
103.727817535,4,600,4,1,0,2,1,5,3,4,400,250.0,train,4,E-
183.857917786,5,600,2,1,0,2,1,5,3,4,400,250.0,train,5,E-
87.8992080688,5,600,2,1,0,2,1,5,3,4,400,250.0,train,5,E-
119.691133499,1,600,3,1,0,2,1,5,3,4,400,250.0,train,1,E-
183.809041977,0,600,1,1,0,2,1,5,3,4,400,250.0,train,0,E-
87.8329277039,0,600,1,1,0,2,1,5,3,4,400,250.0,train,0,E-
103.880167007,2,600,0,1,0,2,1,5,3,4,400,250.0,train,2,E-
183.753013611,5,600,2,0,0,2,1,5,3,4,400,250.0,train,4,E-
137.21203804,0,600,1,1,0,2,1,5,3,4,400,250.0,train,0,E-
233.242034912,4,600,4,1,0,2,1,5,3,4,400,250.0,train,4,E-
105.118989944,0,600,1,1,0,2,1,5,3,4,400,250.0,train,0,E-
103.760004044,0,600,1,1,0,2,1,5,3,4,400,250.0,train,0,E-
137.21203804,4,600,4,1,0,2,1,5,3,4,400,250.0,train,4,E-
136.527061462,5,600,2,1,0,2,1,5,3,4,400,250.0,train,5,E-
135.772943497,5,600,2,1,0,2,1,5,3,4,400,250.0,train,5,E-
311.697006226,3,600,5,1,0,2,1,5,3,4,400,250.0,train,3,E-
103.681087494,1,600,3,1,0,2,1,5,3,4,400,250.0,train,1,E-
183.62903595,1,600,3,1,0,2,1,5,3,4,400,250.0,train,1,E-
9.23800468445,2,600,0,1,0,2,1,5,3,4,400,250.0,train,2,E-
295.628070831,4,600,4,1,0,2,1,5,3,4,400,250.0,train,4,E-
214.594841003,2,600,0,0,0,2,1,5,3,4,400,250.0,train,3,E-
263.163089752,2,600,0,1,0,2,1,5,3,4,400,250.0,train,2,E-
169.203996658,0,600,1,1,0,2,1,5,3,4,400,250.0,train,0,E-
151.684999466,0,600,1,1,0,2,1,5,3,4,400,250.0,train,0,E-
121.237039566,0,600,1,1,0,2,1,5,3,4,400,250.0,train,0,E-
487.7140522,4,600,4,1,0,2,1,5,3,4,400,250.0,train,4,E-
150.62379837,1,600,3,1,0,2,1,5,3,4,400,250.0,train,1,E-
295.746088028,3,600,5,0,0,2,1,5,3,4,400,250.0,train,4,E-
279.685974121,2,600,0,1,0,2,1,5,3,4,400,250.0,train,2,E-
167.612075806,2,600,0,1,0,2,1,5,3,4,400,250.0,train,2,E-
135.856866837,2,600,0,1,0,2,1,5,3,4,400,250.0,train,2,E-
168.48897934,5,600,2,1,0,2,1,5,3,4,400,250.0,train,5,E-
135.870218277,2,600,0,1,0,2,1,5,3,4,400,250.0,train,2,E-
103.814125061,4,600,4,1,0,2,1,5,3,4,400,250.0,train,4,E-
119.821071625,4,600,4,1,0,2,1,5,3,4,400,250.0,train,4,E-
151.877880096,2,600,0,1,0,2,1,5,3,4,400,250.0,train,2,E-
168.494939804,1,600,3,1,0,2,1,5,3,4,400,250.0,train,1,E-
135.952949524,4,600,4,1,0,2,1,5,3,4,400,250.0,train,4,E-
119.956016541,1,600,3,1,0,2,1,5,3,4,400,250.0,train,1,E-
137.21203804,0,600,1,1,0,2,1,5,3,4,400,250.0,train,0,E-
217.212915421,2,600,0,1,0,2,1,5,3,4,400,250.0,train,2,E-
121.288061142,5,600,2,1,0,2,1,5,3,4,400,250.0,train,5,E-
151.662111282,1,600,3,1,0,2,1,5,3,4,400,250.0,train,1,E-
87.7919197083,0,600,1,1,0,2,1,5,3,4,400,250.0,train,0,E-
361.230134964,4,600,4,1,0,2,1,5,3,4,400,250.0,train,4,E-
137.216091156,3,600,5,1,0,2,1,5,3,4,400,250.0,train,3,E-
41.1438941956,1,600,3,1,0,2,1,5,3,4,400,250.0,train,1,E-
855.679988861,5,1000,5,1,0,2,1,3,5,4,0,250.0,test,5,E-
550.030946732,5,1000,5,1,0,2,1,3,5,4,0,250.0,test,5,E-
486.130952835,5,1000,5,1,0,2,1,3,5,4,0,250.0,test,5,E-
534.110069275,4,1000,4,1,0,2,1,3,5,4,0,250.0,test,4,E-
646.951913834,5,1000,5,1,0,2,1,3,5,4,0,250.0,test,5,E-
919.687986374,1,1000,3,1,0,2,1,3,5,4,0,250.0,test,1,E-
423.473119736,1,1000,3,1,0,2,1,3,5,4,0,250.0,test,1,E-
1015.90299606,3,1000,2,1,0,2,1,3,5,4,0,250.0,test,3,E-
566.734075546,2,1000,0,1,0,2,1,3,5,4,0,250.0,test,2,E-
487.843990326,2,1000,0,1,0,2,1,3,5,4,0,250.0,test,2,E-
422.791957855,0,1000,1,1,0,2,1,3,5,4,0,250.0,test,0,E-
679.96096611,0,1000,1,1,0,2,1,3,5,4,0,250.0,test,0,E-
408.527135849,1,1000,3,1,0,2,1,3,5,4,0,250.0,test,1,E-
487.874984741,0,1000,1,1,0,2,1,3,5,4,0,250.0,test,0,E-
647.800922394,3,1000,2,1,0,2,1,3,5,4,0,250.0,test,3,E-
519.646167755,2,1000,0,1,0,2,1,3,5,4,0,250.0,test,2,E-
455.87515831,5,1000,5,1,0,2,1,3,5,4,0,250.0,test,5,E-
535.798788071,0,1000,1,1,0,2,1,3,5,4,0,250.0,test,0,E-
456.1419487,0,1000,1,1,0,2,1,3,5,4,0,250.0,test,0,E-
583.178043365,0,1000,1,1,0,2,1,3,5,4,0,250.0,test,0,E-
470.06893158,1,1000,3,1,0,2,1,3,5,4,0,250.0,test,1,E-
375.133037567,2,1000,0,1,0,2,1,3,5,4,0,250.0,test,2,E-
502.166032791,5,1000,5,1,0,2,1,3,5,4,0,250.0,test,5,E-
534.895896912,1,1000,3,1,0,2,1,3,5,4,0,250.0,test,1,E-
598.163127899,4,1000,4,1,0,2,1,3,5,4,0,250.0,test,4,E-
518.095016479,4,1000,4,1,0,2,1,3,5,4,0,250.0,test,4,E-
454.10990715,4,1000,4,1,0,2,1,3,5,4,0,250.0,test,4,E-
407.257795334,4,1000,4,1,0,2,1,3,5,4,0,250.0,test,4,E-
617.135047913,3,1000,2,1,0,2,1,3,5,4,0,250.0,test,3,E-
567.511796951,4,1000,4,1,0,2,1,3,5,4,0,250.0,test,4,E-
374.095916748,4,1000,4,1,0,2,1,3,5,4,0,250.0,test,4,E-
470.837831497,3,1000,2,0,0,2,1,3,5,4,0,250.0,test,5,E-
694.884061813,1,1000,3,1,0,2,1,3,5,4,0,250.0,test,1,E-
518.122196198,0,1000,1,1,0,2,1,3,5,4,0,250.0,test,0,E-
471.659898758,5,1000,5,1,0,2,1,3,5,4,0,250.0,test,5,E-
441.356897354,4,1000,4,1,0,2,1,3,5,4,0,250.0,test,4,E-
647.660970688,4,1000,4,1,0,2,1,3,5,4,0,250.0,test,4,E-
599.549055099,5,1000,5,1,0,2,1,3,5,4,0,250.0,test,5,E-
536.446094513,1,1000,3,1,0,2,1,3,5,4,0,250.0,test,1,E-
791.512012482,3,1000,2,1,0,2,1,3,5,4,0,250.0,test,3,E-
551.645994186,1,1000,3,1,0,2,1,3,5,4,0,250.0,test,1,E-
535.914897919,5,1000,5,1,0,2,1,3,5,4,0,250.0,test,5,E-
502.905130386,0,1000,1,1,0,2,1,3,5,4,0,250.0,test,0,E-
423.890829086,1,1000,3,1,0,2,1,3,5,4,0,250.0,test,1,E-
486.032009125,0,1000,1,1,0,2,1,3,5,4,0,250.0,test,0,E-
455.663919449,0,1000,1,1,0,2,1,3,5,4,0,250.0,test,0,E-
374.773979187,0,1000,1,1,0,2,1,3,5,4,0,250.0,test,0,E-
551.803827286,5,1000,5,1,0,2,1,3,5,4,0,250.0,test,5,E-
488.50107193,1,1000,3,1,0,2,1,3,5,4,0,250.0,test,1,E-
551.548957825,5,1000,5,1,0,2,1,3,5,4,0,250.0,test,5,E-
489.140033722,0,1000,1,1,0,2,1,3,5,4,0,250.0,test,0,E-
393.254041672,1,1000,3,1,0,2,1,3,5,4,0,250.0,test,1,E-
518.007040024,1,1000,3,1,0,2,1,3,5,4,0,250.0,test,1,E-
726.130962372,3,1000,2,1,0,2,1,3,5,4,0,250.0,test,3,E-
518.108129501,3,1000,2,1,0,2,1,3,5,4,0,250.0,test,3,E-
471.58408165,4,1000,4,1,0,2,1,3,5,4,0,250.0,test,4,E-
584.884881973,2,1000,0,1,0,2,1,3,5,4,0,250.0,test,2,E-
518.10002327,0,1000,1,1,0,2,1,3,5,4,0,250.0,test,0,E-
745.129108429,3,1000,2,1,0,2,1,3,5,4,0,250.0,test,3,E-
405.610799789,3,1000,2,1,0,2,1,3,5,4,0,250.0,test,3,E-
581.984996796,0,1000,1,1,0,2,1,3,5,4,0,250.0,test,0,E-
614.050149918,5,1000,5,1,0,2,1,3,5,4,0,250.0,test,5,E-
662.057876587,4,1000,4,1,0,2,1,3,5,4,0,250.0,test,4,E-
534.198999405,5,1000,5,1,0,2,1,3,5,4,0,250.0,test,5,E-
505.302906036,2,1000,0,1,0,2,1,3,5,4,0,250.0,test,2,E-
471.726179123,5,1000,5,1,0,2,1,3,5,4,0,250.0,test,5,E-
503.073215485,0,1000,1,1,0,2,1,3,5,4,0,250.0,test,0,E-
647.513866425,4,1000,4,1,0,2,1,3,5,4,0,250.0,test,4,E-
647.439956665,1,1000,3,1,0,2,1,3,5,4,0,250.0,test,1,E-
583.933830261,2,1000,0,1,0,2,1,3,5,4,0,250.0,test,2,E-
518.498897552,0,1000,1,1,0,2,1,3,5,4,0,250.0,test,0,E-
679.821968079,5,1000,5,1,0,2,1,3,5,4,0,250.0,test,5,E-
663.731098175,5,1000,5,1,0,2,1,3,5,4,0,250.0,test,5,E-
758.103132248,2,1000,0,1,0,2,1,3,5,4,0,250.0,test,2,E-
551.826953888,0,1000,1,1,0,2,1,3,5,4,0,250.0,test,0,E-
663.853168488,4,1000,4,1,0,2,1,3,5,4,0,250.0,test,4,E-
678.999900818,2,1000,0,1,0,2,1,3,5,4,0,250.0,test,2,E-
648.034095764,2,1000,0,1,0,2,1,3,5,4,0,250.0,test,2,E-
454.167842865,1,1000,3,1,0,2,1,3,5,4,0,250.0,test,1,E-
696.56085968,4,1000,4,1,0,2,1,3,5,4,0,250.0,test,4,E-
518.006086349,2,1000,0,1,0,2,1,3,5,4,0,250.0,test,2,E-
534.18302536,2,1000,0,1,0,2,1,3,5,4,0,250.0,test,2,E-
488.147974014,1,1000,3,1,0,2,1,3,5,4,0,250.0,test,1,E-
470.152139664,0,1000,1,1,0,2,1,3,5,4,0,250.0,test,0,E-
617.214918137,3,1000,2,1,0,2,1,3,5,4,0,250.0,test,3,E-
583.739995956,4,1000,4,1,0,2,1,3,5,4,0,250.0,test,4,E-
500.829935074,2,1000,0,1,0,2,1,3,5,4,0,250.0,test,2,E-
566.740989685,3,1000,2,1,0,2,1,3,5,4,0,250.0,test,3,E-
453.93204689,4,1000,4,0,0,2,1,3,5,4,0,250.0,test,3,E-
518.067836761,0,1000,1,1,0,2,1,3,5,4,0,250.0,test,0,E-
566.877126694,5,1000,5,1,0,2,1,3,5,4,0,250.0,test,5,E-
518.15199852,5,1000,5,1,0,2,1,3,5,4,0,250.0,test,5,E-
438.990116119,5,1000,5,1,0,2,1,3,5,4,0,250.0,test,5,E-
870.182991028,3,1000,2,1,0,2,1,3,5,4,0,250.0,test,3,E-
583.645820618,0,1000,1,1,0,2,1,3,5,4,0,250.0,test,0,E-
646.208047867,4,1000,4,1,0,2,1,3,5,4,0,250.0,test,4,E-
502.192974091,4,1000,4,1,0,2,1,3,5,4,0,250.0,test,4,E-
583.531856537,4,1000,4,1,0,2,1,3,5,4,0,250.0,test,4,E-
502.246856689,5,1000,5,1,0,2,1,3,5,4,0,250.0,test,5,E-
695.561170578,2,1000,0,1,0,2,1,3,5,4,0,250.0,test,2,E-
614.861965179,4,1000,4,1,0,2,1,3,5,4,0,250.0,test,4,E-
519.687891006,4,1000,4,1,0,2,1,3,5,4,0,250.0,test,4,E-
471.925020218,4,1000,4,1,0,2,1,3,5,4,0,250.0,test,4,E-
775.882005692,1,1000,3,1,0,2,1,3,5,4,0,250.0,test,1,E-
660.978078842,5,1000,5,1,0,2,1,3,5,4,0,250.0,test,5,E-
455.039978027,1,1000,3,1,0,2,1,3,5,4,0,250.0,test,1,E-
775.772094727,3,1000,2,1,0,2,1,3,5,4,0,250.0,test,3,E-
487.977981567,5,1000,5,1,0,2,1,3,5,4,0,250.0,test,5,E-
503.927946091,0,1000,1,1,0,2,1,3,5,4,0,250.0,test,0,E-
488.445043564,2,1000,0,1,0,2,1,3,5,4,0,250.0,test,2,E-
486.160993576,0,1000,1,1,0,2,1,3,5,4,0,250.0,test,0,E-
424.342155457,0,1000,1,1,0,2,1,3,5,4,0,250.0,test,0,E-
441.054821014,4,1000,4,0,0,2,1,3,5,4,0,250.0,test,5,E-
694.083929062,3,1000,2,1,0,2,1,3,5,4,0,250.0,test,3,E-
502.0570755,5,1000,5,1,0,2,1,3,5,4,0,250.0,test,5,E-
601.177930832,4,1000,4,1,0,2,1,3,5,4,0,250.0,test,4,E-
631.376028061,2,1000,0,1,0,2,1,3,5,4,0,250.0,test,2,E-
537.068843842,2,1000,0,1,0,2,1,3,5,4,0,250.0,test,2,E-
567.430019379,1,1000,3,1,0,2,1,3,5,4,0,250.0,test,1,E-
517.888069153,3,1000,2,0,0,2,1,3,5,4,0,250.0,test,4,E-
550.086975098,4,1000,4,1,0,2,1,3,5,4,0,250.0,test,4,E-
487.802028656,2,1000,0,1,0,2,1,3,5,4,0,250.0,test,2,E-
454.181909561,1,1000,3,1,0,2,1,3,5,4,0,250.0,test,1,E-
582.962989807,3,1000,2,1,0,2,1,3,5,4,0,250.0,test,3,E-
487.580060959,0,1000,1,1,0,2,1,3,5,4,0,250.0,test,0,E-
534.873008728,2,1000,0,1,0,2,1,3,5,4,0,250.0,test,2,E-
551.821947098,5,1000,5,1,0,2,1,3,5,4,0,250.0,test,5,E-
566.931009293,3,1000,2,1,0,2,1,3,5,4,0,250.0,test,3,E-
455.842018127,2,1000,0,1,0,2,1,3,5,4,0,250.0,test,2,E-
502.146959305,2,1000,0,1,0,2,1,3,5,4,0,250.0,test,2,E-
439.864873886,1,1000,3,1,0,2,1,3,5,4,0,250.0,test,1,E-
472.576141357,2,1000,0,1,0,2,1,3,5,4,0,250.0,test,2,E-
647.943973541,5,1000,5,1,0,2,1,3,5,4,0,250.0,test,5,E-
487.905025482,1,1000,3,1,0,2,1,3,5,4,0,250.0,test,1,E-
711.870908737,4,1000,4,1,0,2,1,3,5,4,0,250.0,test,4,E-
472.04208374,5,1000,5,1,0,2,1,3,5,4,0,250.0,test,5,E-
536.110877991,4,1000,4,1,0,2,1,3,5,4,0,250.0,test,4,E-
600.025892258,1,1000,3,1,0,2,1,3,5,4,0,250.0,test,1,E-
567.948102951,4,1000,4,1,0,2,1,3,5,4,0,250.0,test,4,E-
598.207950592,2,1000,0,1,0,2,1,3,5,4,0,250.0,test,2,E-
438.167095184,2,1000,0,1,0,2,1,3,5,4,0,250.0,test,2,E-
390.109777451,1,1000,3,1,0,2,1,3,5,4,0,250.0,test,1,E-
438.138008118,2,1000,0,1,0,2,1,3,5,4,0,250.0,test,2,E-
564.950942993,4,1000,4,1,0,2,1,3,5,4,0,250.0,test,4,E-
614.894866943,3,1000,2,1,0,2,1,3,5,4,0,250.0,test,3,E-
486.115932465,0,1000,1,1,0,2,1,3,5,4,0,250.0,test,0,E-
806.24294281,0,1000,1,1,0,2,1,3,5,4,0,250.0,test,0,E-
470.059871674,1,1000,3,1,0,2,1,3,5,4,0,250.0,test,1,E-
454.113006592,0,1000,1,1,0,2,1,3,5,4,0,250.0,test,0,E-
726.05919838,3,1000,2,1,0,2,1,3,5,4,0,250.0,test,3,E-
486.228227615,4,1000,4,1,0,2,1,3,5,4,0,250.0,test,4,E-
582.100152969,2,1000,0,1,0,2,1,3,5,4,0,250.0,test,2,E-
503.648996353,4,1000,4,1,0,2,1,3,5,4,0,250.0,test,4,E-
470.118999481,0,1000,1,1,0,2,1,3,5,4,0,250.0,test,0,E-
537.327051163,4,1000,4,1,0,2,1,3,5,4,0,250.0,test,4,E-
487.113952637,5,1000,5,1,0,2,1,3,5,4,0,250.0,test,5,E-
487.624883652,3,1000,2,0,0,2,1,3,5,4,0,250.0,test,2,E-
615.810155869,5,1000,5,1,0,2,1,3,5,4,0,250.0,test,5,E-
551.578998566,5,1000,5,1,0,2,1,3,5,4,0,250.0,test,5,E-
551.842927933,0,1000,1,1,0,2,1,3,5,4,0,250.0,test,0,E-
551.059007645,4,1000,4,1,0,2,1,3,5,4,0,250.0,test,4,E-
583.708047867,2,1000,0,1,0,2,1,3,5,4,0,250.0,test,2,E-
1031.13698959,4,1000,4,1,0,2,1,3,5,4,0,250.0,test,4,E-
519.765138626,0,1000,1,1,0,2,1,3,5,4,0,250.0,test,0,E-
696.630001068,5,1000,5,0,0,2,1,3,5,4,0,250.0,test,4,E-
662.147045135,2,1000,0,1,0,2,1,3,5,4,0,250.0,test,2,E-
536.086082458,0,1000,1,1,0,2,1,3,5,4,0,250.0,test,0,E-
758.100986481,3,1000,2,1,0,2,1,3,5,4,0,250.0,test,3,E-
568.175077438,3,1000,2,1,0,2,1,3,5,4,0,250.0,test,3,E-
566.154956818,2,1000,0,1,0,2,1,3,5,4,0,250.0,test,2,E-
550.097942352,5,1000,5,1,0,2,1,3,5,4,0,250.0,test,5,E-
454.064130783,2,1000,0,1,0,2,1,3,5,4,0,250.0,test,2,E-
694.077014923,3,1000,2,1,0,2,1,3,5,4,0,250.0,test,3,E-
534.0487957,1,1000,3,1,0,2,1,3,5,4,0,250.0,test,1,E-
471.627950668,5,1000,5,1,0,2,1,3,5,4,0,250.0,test,5,E-
518.790960312,1,1000,3,1,0,2,1,3,5,4,0,250.0,test,1,E-
535.567998886,0,1000,1,1,0,2,1,3,5,4,0,250.0,test,0,E-
486.166000366,1,1000,3,1,0,2,1,3,5,4,0,250.0,test,1,E-
487.820863724,2,1000,0,1,0,2,1,3,5,4,0,250.0,test,2,E-
534.717082977,0,1000,1,1,0,2,1,3,5,4,0,250.0,test,0,E-
519.62184906,0,1000,1,1,0,2,1,3,5,4,0,250.0,test,0,E-
582.875967026,2,1000,0,1,0,2,1,3,5,4,0,250.0,test,2,E-
519.721984863,2,1000,0,1,0,2,1,3,5,4,0,250.0,test,2,E-
438.955068588,0,1000,1,1,0,2,1,3,5,4,0,250.0,test,0,E-
567.841053009,5,1000,5,1,0,2,1,3,5,4,0,250.0,test,5,E-
598.810911179,3,1000,2,1,0,2,1,3,5,4,0,250.0,test,3,E-
631.764888763,3,1000,2,1,0,2,1,3,5,4,0,250.0,test,3,E-
536.471128464,1,1000,3,1,0,2,1,3,5,4,0,250.0,test,1,E-
551.986932755,3,1000,2,1,0,2,1,3,5,4,0,250.0,test,3,E-
680.485963821,4,1000,4,1,0,2,1,3,5,4,0,250.0,test,4,E-
455.789804459,2,1000,0,1,0,2,1,3,5,4,0,250.0,test,2,E-
791.786909103,5,1000,5,1,0,2,1,3,5,4,0,250.0,test,5,E-
439.67795372,5,1000,5,1,0,2,1,3,5,4,0,250.0,test,5,E-
486.196041107,5,1000,5,1,0,2,1,3,5,4,0,250.0,test,5,E-
567.584037781,5,1000,5,1,0,2,1,3,5,4,0,250.0,test,5,E-
533.963918686,0,1000,1,1,0,2,1,3,5,4,0,250.0,test,0,E-
534.197092056,5,1000,5,1,0,2,1,3,5,4,0,250.0,test,5,E-
566.161870956,1,1000,3,1,0,2,1,3,5,4,0,250.0,test,1,E-
454.107999802,1,1000,3,1,0,2,1,3,5,4,0,250.0,test,1,E-
503.638029099,5,1000,5,1,0,2,1,3,5,4,0,250.0,test,5,E-
504.531860352,3,1000,2,1,0,2,1,3,5,4,0,250.0,test,3,E-
471.743106842,1,1000,3,1,0,2,1,3,5,4,0,250.0,test,1,E-
536.612033844,5,1000,5,1,0,2,1,3,5,4,0,250.0,test,5,E-
503.704786301,0,1000,1,1,0,2,1,3,5,4,0,250.0,test,0,E-
487.720966339,0,1000,1,1,0,2,1,3,5,4,0,250.0,test,0,E-
711.611032486,3,1000,2,1,0,2,1,3,5,4,0,250.0,test,3,E-
598.182916641,2,1000,0,1,0,2,1,3,5,4,0,250.0,test,2,E-
774.147033691,4,1000,4,1,0,2,1,3,5,4,0,250.0,test,4,E-
518.909931183,4,1000,4,1,0,2,1,3,5,4,0,250.0,test,4,E-
551.974058151,2,1000,0,1,0,2,1,3,5,4,0,250.0,test,2,E-
519.903182983,4,1000,4,1,0,2,1,3,5,4,0,250.0,test,4,E-
567.656993866,2,1000,0,1,0,2,1,3,5,4,0,250.0,test,2,E-
583.905935287,3,1000,2,1,0,2,1,3,5,4,0,250.0,test,3,E-
599.822044373,0,1000,1,1,0,2,1,3,5,4,0,250.0,test,0,E-
679.913043976,3,1000,2,1,0,2,1,3,5,4,0,250.0,test,3,E-
551.527023315,4,1000,4,1,0,2,1,3,5,4,0,250.0,test,4,E-
487.535953522,4,1000,4,0,0,2,1,3,5,4,0,250.0,test,3,E-
518.11504364,0,1000,1,1,0,2,1,3,5,4,0,250.0,test,0,E-
503.820896149,2,1000,0,1,0,2,1,3,5,4,0,250.0,test,2,E-
567.408084869,3,1000,2,1,0,2,1,3,5,4,0,250.0,test,3,E-
518.177986145,5,1000,5,1,0,2,1,3,5,4,0,250.0,test,5,E-
888.429164886,3,1000,2,1,0,2,1,3,5,4,0,250.0,test,3,E-
518.262147903,1,1000,3,1,0,2,1,3,5,4,0,250.0,test,1,E-
585.341930389,5,1000,5,1,0,2,1,3,5,4,0,250.0,test,5,E-
406.159162521,0,1000,1,1,0,2,1,3,5,4,0,250.0,test,0,E-
502.23493576,5,1000,5,1,0,2,1,3,5,4,0,250.0,test,5,E-
596.759796143,2,1000,0,1,0,2,1,3,5,4,0,250.0,test,2,E-
550.244092941,5,1000,5,1,0,2,1,3,5,4,0,250.0,test,5,E-
489.269018173,1,1000,3,1,0,2,1,3,5,4,0,250.0,test,1,E-
535.556077957,0,1000,1,1,0,2,1,3,5,4,0,250.0,test,0,E-
470.129966736,5,1000,5,1,0,2,1,3,5,4,0,250.0,test,5,E-
470.231056213,1,1000,3,1,0,2,1,3,5,4,0,250.0,test,1,E-
457.166910172,0,1000,1,1,0,2,1,3,5,4,0,250.0,test,0,E-
615.521907806,4,1000,4,1,0,2,1,3,5,4,0,250.0,test,4,E-
566.480875015,2,1000,0,0,0,2,1,3,5,4,0,250.0,test,1,E-
503.499984741,2,1000,0,1,0,2,1,3,5,4,0,250.0,test,2,E-
599.889039993,5,1000,5,1,0,2,1,3,5,4,0,250.0,test,5,E-
551.919937134,5,1000,5,1,0,2,1,3,5,4,0,250.0,test,5,E-
487.766027451,0,1000,1,1,0,2,1,3,5,4,0,250.0,test,0,E-
519.688129425,5,1000,5,1,0,2,1,3,5,4,0,250.0,test,5,E-
615.837097168,2,1000,0,1,0,2,1,3,5,4,0,250.0,test,2,E-
548.96402359,0,1000,1,1,0,2,1,3,5,4,0,250.0,test,0,E-
503.90791893,2,1000,0,1,0,2,1,3,5,4,0,250.0,test,2,E-
583.997964859,2,1000,0,1,0,2,1,3,5,4,0,250.0,test,2,E-
455.65700531,1,1000,3,1,0,2,1,3,5,4,0,250.0,test,1,E-
583.760023117,5,1000,5,1,0,2,1,3,5,4,0,250.0,test,5,E-
663.920164108,3,1000,2,1,0,2,1,3,5,4,0,250.0,test,3,E-
534.144878387,5,1000,5,1,0,2,1,3,5,4,0,250.0,test,5,E-
661.990880966,4,1000,4,1,0,2,1,3,5,4,0,250.0,test,4,E-
582.127809525,5,1000,5,1,0,2,1,3,5,4,0,250.0,test,5,E-
