RT,correct_response,ms-prestimblank,curstim,correct,SRmap_1,SRmap_0,SRmap_3,SRmap_2,SRmap_5,SRmap_4,ms-precue,ntrials,type,response,condition
1894.96707916,5,600,0,1,2,5,3,1,0,4,400,250.0,train,5,E-
199.573993683,0,600,5,1,2,5,3,1,0,4,400,250.0,train,0,E-
199.824094772,5,600,0,1,2,5,3,1,0,4,400,250.0,train,5,E-
679.630994797,1,600,2,1,2,5,3,1,0,4,400,250.0,train,1,E-
87.4838829041,1,600,2,1,2,5,3,1,0,4,400,250.0,train,1,E-
105.30591011,5,600,0,1,2,5,3,1,0,4,400,250.0,train,5,E-
279.689788818,0,600,5,1,2,5,3,1,0,4,400,250.0,train,0,E-
1207.66091347,3,600,3,1,2,5,3,1,0,4,400,250.0,train,3,E-
55.5601119995,1,600,2,1,2,5,3,1,0,4,400,250.0,train,1,E-
121.7648983,1,600,2,1,2,5,3,1,0,4,400,250.0,train,1,E-
280.330181122,2,600,1,1,2,5,3,1,0,4,400,250.0,train,2,E-
375.640153885,4,600,4,1,2,5,3,1,0,4,400,250.0,train,4,E-
151.737928391,4,600,4,1,2,5,3,1,0,4,400,250.0,train,4,E-
23.6859321594,0,600,5,1,2,5,3,1,0,4,400,250.0,train,0,E-
23.6461162567,5,600,0,1,2,5,3,1,0,4,400,250.0,train,5,E-
7.78198242188,5,600,0,1,2,5,3,1,0,4,400,250.0,train,5,E-
55.7940006256,1,600,2,1,2,5,3,1,0,4,400,250.0,train,1,E-
7.88688659668,1,600,2,1,2,5,3,1,0,4,400,250.0,train,1,E-
55.8218955994,0,600,5,1,2,5,3,1,0,4,400,250.0,train,0,E-
535.670042038,3,600,3,1,2,5,3,1,0,4,400,250.0,train,3,E-
5384.17005539,1,600,2,1,2,5,3,1,0,4,400,250.0,train,1,E-
487.715959549,3,600,3,1,2,5,3,1,0,4,400,250.0,train,3,E-
104.620933533,3,600,3,1,2,5,3,1,0,4,400,250.0,train,3,E-
39.5309925079,3,600,3,1,2,5,3,1,0,4,400,250.0,train,3,E-
281.713008881,2,600,1,1,2,5,3,1,0,4,400,250.0,train,2,E-
23.6649513245,0,600,5,1,2,5,3,1,0,4,400,250.0,train,0,E-
279.667139053,3,600,3,1,2,5,3,1,0,4,400,250.0,train,3,E-
7.75599479675,0,600,5,1,2,5,3,1,0,4,400,250.0,train,0,E-
1782.61709213,0,600,5,1,2,5,3,1,0,4,400,250.0,train,0,E-
359.91692543,3,600,3,1,2,5,3,1,0,4,400,250.0,train,3,E-
7.68494606018,3,600,3,1,2,5,3,1,0,4,400,250.0,train,3,E-
135.577917099,2,600,1,1,2,5,3,1,0,4,400,250.0,train,2,E-
23.5459804535,2,600,1,1,2,5,3,1,0,4,400,250.0,train,2,E-
408.879041672,4,600,4,1,2,5,3,1,0,4,400,250.0,train,4,E-
311.587810516,2,600,1,1,2,5,3,1,0,4,400,250.0,train,2,E-
23.5149860382,2,600,1,1,2,5,3,1,0,4,400,250.0,train,2,E-
89.4348621368,5,600,0,1,2,5,3,1,0,4,400,250.0,train,5,E-
743.706941605,3,600,3,1,2,5,3,1,0,4,400,250.0,train,3,E-
9.14001464844,3,600,3,1,2,5,3,1,0,4,400,250.0,train,3,E-
3767.91906357,4,600,4,0,2,5,3,1,0,4,400,250.0,train,3,E-
727.769136429,2,600,1,1,2,5,3,1,0,4,400,250.0,train,2,E-
855.85808754,4,600,4,1,2,5,3,1,0,4,400,250.0,train,4,E-
23.8168239594,4,600,4,1,2,5,3,1,0,4,400,250.0,train,4,E-
119.820833206,2,600,1,1,2,5,3,1,0,4,400,250.0,train,2,E-
72.5309848785,0,600,5,1,2,5,3,1,0,4,400,250.0,train,0,E-
201.225996017,4,600,4,1,2,5,3,1,0,4,400,250.0,train,4,E-
121.317148209,2,600,1,1,2,5,3,1,0,4,400,250.0,train,2,E-
23.5989093781,1,600,2,1,2,5,3,1,0,4,400,250.0,train,1,E-
55.508852005,5,600,0,1,2,5,3,1,0,4,400,250.0,train,5,E-
103.642940521,4,600,4,1,2,5,3,1,0,4,400,250.0,train,4,E-
104.485034943,0,600,5,1,2,5,3,1,0,4,400,250.0,train,0,E-
23.540019989,0,600,5,1,2,5,3,1,0,4,400,250.0,train,0,E-
39.4480228424,1,600,2,1,2,5,3,1,0,4,400,250.0,train,1,E-
199.644088745,4,600,4,1,2,5,3,1,0,4,400,250.0,train,4,E-
89.2841815948,5,600,0,1,2,5,3,1,0,4,400,250.0,train,5,E-
183.701038361,2,600,1,1,2,5,3,1,0,4,400,250.0,train,2,E-
1257.07697868,4,600,4,1,2,5,3,1,0,4,400,250.0,train,4,E-
103.720903397,5,600,0,1,2,5,3,1,0,4,400,250.0,train,5,E-
151.764154434,0,600,5,1,2,5,3,1,0,4,400,250.0,train,0,E-
39.8449897766,5,600,0,1,2,5,3,1,0,4,400,250.0,train,5,E-
311.837911606,3,600,3,1,2,5,3,1,0,4,400,250.0,train,3,E-
135.820865631,4,600,4,1,2,5,3,1,0,4,400,250.0,train,4,E-
329.169988632,4,600,4,1,2,5,3,1,0,4,400,250.0,train,4,E-
55.6409358978,1,600,2,1,2,5,3,1,0,4,400,250.0,train,1,E-
55.6678771973,1,600,2,1,2,5,3,1,0,4,400,250.0,train,1,E-
215.694904327,4,600,4,1,2,5,3,1,0,4,400,250.0,train,4,E-
135.44011116,3,600,3,1,2,5,3,1,0,4,400,250.0,train,3,E-
471.647977829,4,600,4,1,2,5,3,1,0,4,400,250.0,train,4,E-
199.607133865,0,600,5,1,2,5,3,1,0,4,400,250.0,train,0,E-
249.208927155,3,600,3,0,2,5,3,1,0,4,400,250.0,train,4,E-
71.6049671173,1,600,2,1,2,5,3,1,0,4,400,250.0,train,1,E-
41.0358905792,5,600,0,1,2,5,3,1,0,4,400,250.0,train,5,E-
72.518825531,1,600,2,1,2,5,3,1,0,4,400,250.0,train,1,E-
151.82185173,3,600,3,0,2,5,3,1,0,4,400,250.0,train,4,E-
119.709014893,1,600,2,1,2,5,3,1,0,4,400,250.0,train,1,E-
216.558933258,1,600,2,1,2,5,3,1,0,4,400,250.0,train,1,E-
215.810060501,5,600,0,1,2,5,3,1,0,4,400,250.0,train,5,E-
71.7258453369,5,600,0,1,2,5,3,1,0,4,400,250.0,train,5,E-
39.5920276642,1,600,2,1,2,5,3,1,0,4,400,250.0,train,1,E-
55.5918216705,3,600,3,1,2,5,3,1,0,4,400,250.0,train,3,E-
25.2048969269,2,600,1,0,2,5,3,1,0,4,400,250.0,train,1,E-
215.643167496,4,600,4,1,2,5,3,1,0,4,400,250.0,train,4,E-
7.61103630066,4,600,4,1,2,5,3,1,0,4,400,250.0,train,4,E-
327.668905258,3,600,3,0,2,5,3,1,0,4,400,250.0,train,2,E-
183.671951294,4,600,4,1,2,5,3,1,0,4,400,250.0,train,4,E-
391.798019409,1,600,2,1,2,5,3,1,0,4,400,250.0,train,1,E-
71.7680454254,0,600,5,1,2,5,3,1,0,4,400,250.0,train,0,E-
135.829925537,4,600,4,1,2,5,3,1,0,4,400,250.0,train,4,E-
152.498960495,3,600,3,1,2,5,3,1,0,4,400,250.0,train,3,E-
71.8069076538,5,600,0,1,2,5,3,1,0,4,400,250.0,train,5,E-
183.645009995,2,600,1,1,2,5,3,1,0,4,400,250.0,train,2,E-
57.147026062,2,600,1,1,2,5,3,1,0,4,400,250.0,train,2,E-
119.52996254,5,600,0,1,2,5,3,1,0,4,400,250.0,train,5,E-
135.621786118,2,600,1,1,2,5,3,1,0,4,400,250.0,train,2,E-
103.513002396,2,600,1,1,2,5,3,1,0,4,400,250.0,train,2,E-
105.326890945,1,600,2,1,2,5,3,1,0,4,400,250.0,train,1,E-
151.625871658,1,600,2,1,2,5,3,1,0,4,400,250.0,train,1,E-
233.285903931,4,600,4,1,2,5,3,1,0,4,400,250.0,train,4,E-
3255.89084625,5,600,0,1,2,5,3,1,0,4,400,250.0,train,5,E-
87.7242088318,1,600,2,1,2,5,3,1,0,4,400,250.0,train,1,E-
295.770168304,1,600,2,1,2,5,3,1,0,4,400,250.0,train,1,E-
263.906955719,5,600,0,1,2,5,3,1,0,4,400,250.0,train,5,E-
998.350858688,4,600,4,1,2,5,3,1,0,4,400,250.0,train,4,E-
343.66106987,5,600,0,1,2,5,3,1,0,4,400,250.0,train,5,E-
1495.73802948,2,600,1,1,2,5,3,1,0,4,400,250.0,train,2,E-
135.587930679,5,600,0,1,2,5,3,1,0,4,400,250.0,train,5,E-
249.250888824,2,600,1,1,2,5,3,1,0,4,400,250.0,train,2,E-
439.708948135,1,600,2,1,2,5,3,1,0,4,400,250.0,train,1,E-
87.6750946045,1,600,2,1,2,5,3,1,0,4,400,250.0,train,1,E-
41.1040782928,2,600,1,1,2,5,3,1,0,4,400,250.0,train,2,E-
8.50200653076,2,600,1,0,2,5,3,1,0,4,400,250.0,train,1,E-
119.799137115,0,600,5,1,2,5,3,1,0,4,400,250.0,train,0,E-
120.578050613,2,600,1,1,2,5,3,1,0,4,400,250.0,train,2,E-
89.1618728638,0,600,5,1,2,5,3,1,0,4,400,250.0,train,0,E-
71.5310573578,1,600,2,1,2,5,3,1,0,4,400,250.0,train,1,E-
151.598930359,2,600,1,1,2,5,3,1,0,4,400,250.0,train,2,E-
87.574005127,1,600,2,1,2,5,3,1,0,4,400,250.0,train,1,E-
647.541999817,1,600,2,1,2,5,3,1,0,4,400,250.0,train,1,E-
7.71594047546,0,600,5,0,2,5,3,1,0,4,400,250.0,train,2,E-
551.764011383,4,600,4,1,2,5,3,1,0,4,400,250.0,train,4,E-
279.576063156,1,600,2,1,2,5,3,1,0,4,400,250.0,train,1,E-
199.568033218,2,600,1,1,2,5,3,1,0,4,400,250.0,train,2,E-
247.566223145,2,600,1,1,2,5,3,1,0,4,400,250.0,train,2,E-
201.355934143,5,600,0,1,2,5,3,1,0,4,400,250.0,train,5,E-
119.68588829,5,600,0,1,2,5,3,1,0,4,400,250.0,train,5,E-
231.61816597,1,600,2,1,2,5,3,1,0,4,400,250.0,train,1,E-
201.204061508,5,600,0,1,2,5,3,1,0,4,400,250.0,train,5,E-
279.672145844,5,600,0,1,2,5,3,1,0,4,400,250.0,train,5,E-
87.7640247345,4,600,4,1,2,5,3,1,0,4,400,250.0,train,4,E-
327.744960785,3,600,3,1,2,5,3,1,0,4,400,250.0,train,3,E-
279.808998108,5,600,0,1,2,5,3,1,0,4,400,250.0,train,5,E-
88.6220932007,0,600,5,1,2,5,3,1,0,4,400,250.0,train,0,E-
151.76987648,1,600,2,1,2,5,3,1,0,4,400,250.0,train,1,E-
215.656042099,4,600,4,1,2,5,3,1,0,4,400,250.0,train,4,E-
119.666099548,2,600,1,1,2,5,3,1,0,4,400,250.0,train,2,E-
55.5438995361,2,600,1,1,2,5,3,1,0,4,400,250.0,train,2,E-
135.212182999,5,600,0,1,2,5,3,1,0,4,400,250.0,train,5,E-
279.495000839,3,600,3,1,2,5,3,1,0,4,400,250.0,train,3,E-
41.2130355835,0,600,5,1,2,5,3,1,0,4,400,250.0,train,0,E-
73.1770992279,2,600,1,1,2,5,3,1,0,4,400,250.0,train,2,E-
89.1790390015,5,600,0,1,2,5,3,1,0,4,400,250.0,train,5,E-
57.2390556335,0,600,5,1,2,5,3,1,0,4,400,250.0,train,0,E-
39.7219657898,0,600,5,1,2,5,3,1,0,4,400,250.0,train,0,E-
55.7091236115,5,600,0,1,2,5,3,1,0,4,400,250.0,train,5,E-
7.68804550171,4,600,4,1,2,5,3,1,0,4,400,250.0,train,4,E-
119.788885117,2,600,1,1,2,5,3,1,0,4,400,250.0,train,2,E-
23.7979888916,1,600,2,0,2,5,3,1,0,4,400,250.0,train,2,E-
599.794149399,3,600,3,1,2,5,3,1,0,4,400,250.0,train,3,E-
151.577949524,4,600,4,1,2,5,3,1,0,4,400,250.0,train,4,E-
455.659866333,3,600,3,1,2,5,3,1,0,4,400,250.0,train,3,E-
40.5139923096,1,600,2,0,2,5,3,1,0,4,400,250.0,train,2,E-
135.595798492,0,600,5,1,2,5,3,1,0,4,400,250.0,train,0,E-
23.4451293945,2,600,1,1,2,5,3,1,0,4,400,250.0,train,2,E-
231.569051743,3,600,3,1,2,5,3,1,0,4,400,250.0,train,3,E-
167.731046677,2,600,1,1,2,5,3,1,0,4,400,250.0,train,2,E-
40.4908657074,5,600,0,1,2,5,3,1,0,4,400,250.0,train,5,E-
39.7310256958,0,600,5,1,2,5,3,1,0,4,400,250.0,train,0,E-
39.6909713745,0,600,5,1,2,5,3,1,0,4,400,250.0,train,0,E-
679.85200882,2,600,1,1,2,5,3,1,0,4,400,250.0,train,2,E-
88.5660648346,4,600,4,1,2,5,3,1,0,4,400,250.0,train,4,E-
55.9020042419,2,600,1,1,2,5,3,1,0,4,400,250.0,train,2,E-
520.545005798,4,600,4,1,2,5,3,1,0,4,400,250.0,train,4,E-
103.648900986,2,600,1,1,2,5,3,1,0,4,400,250.0,train,2,E-
150.277137756,2,600,1,1,2,5,3,1,0,4,400,250.0,train,2,E-
407.677173615,5,600,0,1,2,5,3,1,0,4,400,250.0,train,5,E-
39.4978523254,1,600,2,1,2,5,3,1,0,4,400,250.0,train,1,E-
103.711843491,2,600,1,1,2,5,3,1,0,4,400,250.0,train,2,E-
38.3388996124,5,600,0,1,2,5,3,1,0,4,400,250.0,train,5,E-
359.437942505,4,600,4,1,2,5,3,1,0,4,400,250.0,train,4,E-
23.6098766327,4,600,4,1,2,5,3,1,0,4,400,250.0,train,4,E-
472.44310379,4,600,4,1,2,5,3,1,0,4,400,250.0,train,4,E-
343.582868576,4,600,4,1,2,5,3,1,0,4,400,250.0,train,4,E-
40.5161380768,5,600,0,1,2,5,3,1,0,4,400,250.0,train,5,E-
199.743032455,2,600,1,1,2,5,3,1,0,4,400,250.0,train,2,E-
375.613212585,2,600,1,1,2,5,3,1,0,4,400,250.0,train,2,E-
313.044071198,0,600,5,1,2,5,3,1,0,4,400,250.0,train,0,E-
39.8080348969,2,600,1,1,2,5,3,1,0,4,400,250.0,train,2,E-
23.8602161407,2,600,1,1,2,5,3,1,0,4,400,250.0,train,2,E-
57.2168827057,2,600,1,1,2,5,3,1,0,4,400,250.0,train,2,E-
263.690948486,4,600,4,1,2,5,3,1,0,4,400,250.0,train,4,E-
183.609008789,2,600,1,1,2,5,3,1,0,4,400,250.0,train,2,E-
119.570970535,4,600,4,1,2,5,3,1,0,4,400,250.0,train,4,E-
263.458013535,1,600,2,1,2,5,3,1,0,4,400,250.0,train,1,E-
151.57699585,3,600,3,0,2,5,3,1,0,4,400,250.0,train,2,E-
119.516134262,0,600,5,1,2,5,3,1,0,4,400,250.0,train,0,E-
7.58504867554,1,600,2,1,2,5,3,1,0,4,400,250.0,train,1,E-
199.760198593,5,600,0,1,2,5,3,1,0,4,400,250.0,train,5,E-
807.816028595,5,600,0,1,2,5,3,1,0,4,400,250.0,train,5,E-
103.770971298,0,600,5,1,2,5,3,1,0,4,400,250.0,train,0,E-
71.7651844025,5,600,0,1,2,5,3,1,0,4,400,250.0,train,5,E-
759.760141373,4,600,4,1,2,5,3,1,0,4,400,250.0,train,4,E-
71.8779563904,4,600,4,1,2,5,3,1,0,4,400,250.0,train,4,E-
375.556945801,5,600,0,1,2,5,3,1,0,4,400,250.0,train,5,E-
24.5478153229,5,600,0,1,2,5,3,1,0,4,400,250.0,train,5,E-
71.7079639435,2,600,1,1,2,5,3,1,0,4,400,250.0,train,2,E-
39.5030975342,0,600,5,1,2,5,3,1,0,4,400,250.0,train,0,E-
377.11596489,0,600,5,1,2,5,3,1,0,4,400,250.0,train,0,E-
359.594106674,1,600,2,1,2,5,3,1,0,4,400,250.0,train,1,E-
71.6288089752,1,600,2,1,2,5,3,1,0,4,400,250.0,train,1,E-
169.364929199,4,600,4,1,2,5,3,1,0,4,400,250.0,train,4,E-
39.5050048828,0,600,5,1,2,5,3,1,0,4,400,250.0,train,0,E-
329.330921173,3,600,3,1,2,5,3,1,0,4,400,250.0,train,3,E-
72.4649429321,1,600,2,1,2,5,3,1,0,4,400,250.0,train,1,E-
55.624961853,1,600,2,1,2,5,3,1,0,4,400,250.0,train,1,E-
471.752882004,4,600,4,1,2,5,3,1,0,4,400,250.0,train,4,E-
247.761011124,3,600,3,1,2,5,3,1,0,4,400,250.0,train,3,E-
39.6590232849,5,600,0,1,2,5,3,1,0,4,400,250.0,train,5,E-
151.796102524,3,600,3,1,2,5,3,1,0,4,400,250.0,train,3,E-
87.6948833466,3,600,3,1,2,5,3,1,0,4,400,250.0,train,3,E-
247.967004776,0,600,5,1,2,5,3,1,0,4,400,250.0,train,0,E-
311.650037766,3,600,3,1,2,5,3,1,0,4,400,250.0,train,3,E-
151.595115662,1,600,2,1,2,5,3,1,0,4,400,250.0,train,1,E-
614.354133606,3,600,3,1,2,5,3,1,0,4,400,250.0,train,3,E-
249.289035797,2,600,1,1,2,5,3,1,0,4,400,250.0,train,2,E-
103.608846664,5,600,0,1,2,5,3,1,0,4,400,250.0,train,5,E-
183.520078659,5,600,0,1,2,5,3,1,0,4,400,250.0,train,5,E-
25.1441001892,5,600,0,1,2,5,3,1,0,4,400,250.0,train,5,E-
87.6369476318,0,600,5,1,2,5,3,1,0,4,400,250.0,train,0,E-
87.6939296722,2,600,1,1,2,5,3,1,0,4,400,250.0,train,2,E-
88.4418487549,3,600,3,1,2,5,3,1,0,4,400,250.0,train,3,E-
87.7020359039,2,600,1,1,2,5,3,1,0,4,400,250.0,train,2,E-
55.7720661163,4,600,4,1,2,5,3,1,0,4,400,250.0,train,4,E-
55.8080673218,2,600,1,1,2,5,3,1,0,4,400,250.0,train,2,E-
7.73787498474,0,600,5,1,2,5,3,1,0,4,400,250.0,train,0,E-
23.8399505615,1,600,2,1,2,5,3,1,0,4,400,250.0,train,1,E-
118.205785751,3,600,3,0,2,5,3,1,0,4,400,250.0,train,2,E-
759.590148926,3,600,3,1,2,5,3,1,0,4,400,250.0,train,3,E-
72.6590156555,0,600,5,1,2,5,3,1,0,4,400,250.0,train,0,E-
103.554964066,3,600,3,1,2,5,3,1,0,4,400,250.0,train,3,E-
137.240886688,3,600,3,1,2,5,3,1,0,4,400,250.0,train,3,E-
103.578090668,5,600,0,1,2,5,3,1,0,4,400,250.0,train,5,E-
167.486906052,1,600,2,1,2,5,3,1,0,4,400,250.0,train,1,E-
55.438041687,5,600,0,1,2,5,3,1,0,4,400,250.0,train,5,E-
137.489080429,3,600,3,1,2,5,3,1,0,4,400,250.0,train,3,E-
87.5887870789,0,600,5,1,2,5,3,1,0,4,400,250.0,train,0,E-
327.649831772,3,600,3,1,2,5,3,1,0,4,400,250.0,train,3,E-
57.1918487549,0,600,5,1,2,5,3,1,0,4,400,250.0,train,0,E-
119.709014893,3,600,3,1,2,5,3,1,0,4,400,250.0,train,3,E-
152.529001236,2,600,1,1,2,5,3,1,0,4,400,250.0,train,2,E-
55.764913559,0,600,5,1,2,5,3,1,0,4,400,250.0,train,0,E-
40.5418872833,3,600,3,1,2,5,3,1,0,4,400,250.0,train,3,E-
23.8761901855,1,600,2,1,2,5,3,1,0,4,400,250.0,train,1,E-
39.8499965668,4,600,4,1,2,5,3,1,0,4,400,250.0,train,4,E-
457.170009613,5,600,0,1,2,5,3,1,0,4,400,250.0,train,5,E-
86.2150192261,5,600,0,1,2,5,3,1,0,4,400,250.0,train,5,E-
23.5919952393,5,600,0,1,2,5,3,1,0,4,400,250.0,train,5,E-
89.3790721893,3,600,3,1,2,5,3,1,0,4,400,250.0,train,3,E-
24.6338844299,5,600,0,1,2,5,3,1,0,4,400,250.0,train,5,E-
7.63583183289,4,600,4,1,2,5,3,1,0,4,400,250.0,train,4,E-
438.258171082,4,600,4,1,2,5,3,1,0,4,400,250.0,train,4,E-
697.112798691,1,1000,4,1,0,2,3,5,4,1,0,250.0,test,1,E-
678.769826889,4,1000,5,1,0,2,3,5,4,1,0,250.0,test,4,E-
503.843069077,1,1000,4,1,0,2,3,5,4,1,0,250.0,test,1,E-
551.829814911,2,1000,0,0,0,2,3,5,4,1,0,250.0,test,1,E-
695.810079575,3,1000,3,1,0,2,3,5,4,1,0,250.0,test,3,E-
423.645019531,1,1000,4,1,0,2,3,5,4,1,0,250.0,test,1,E-
469.889163971,4,1000,5,1,0,2,3,5,4,1,0,250.0,test,4,E-
613.732099533,0,1000,1,1,0,2,3,5,4,1,0,250.0,test,0,E-
501.853942871,3,1000,3,1,0,2,3,5,4,1,0,250.0,test,3,E-
454.826831818,3,1000,3,1,0,2,3,5,4,1,0,250.0,test,3,E-
423.704862595,4,1000,5,1,0,2,3,5,4,1,0,250.0,test,4,E-
517.855167389,0,1000,1,1,0,2,3,5,4,1,0,250.0,test,0,E-
647.756099701,3,1000,3,1,0,2,3,5,4,1,0,250.0,test,3,E-
597.038984299,2,1000,0,1,0,2,3,5,4,1,0,250.0,test,2,E-
567.439079285,3,1000,3,1,0,2,3,5,4,1,0,250.0,test,3,E-
630.66983223,2,1000,0,1,0,2,3,5,4,1,0,250.0,test,2,E-
583.843946457,2,1000,0,1,0,2,3,5,4,1,0,250.0,test,2,E-
471.744060516,3,1000,3,1,0,2,3,5,4,1,0,250.0,test,3,E-
503.741025925,5,1000,2,1,0,2,3,5,4,1,0,250.0,test,5,E-
839.961051941,2,1000,0,1,0,2,3,5,4,1,0,250.0,test,2,E-
487.77794838,1,1000,4,1,0,2,3,5,4,1,0,250.0,test,1,E-
425.302028656,5,1000,2,1,0,2,3,5,4,1,0,250.0,test,5,E-
424.591064453,5,1000,2,1,0,2,3,5,4,1,0,250.0,test,5,E-
405.828952789,4,1000,5,1,0,2,3,5,4,1,0,250.0,test,4,E-
504.479169846,1,1000,4,1,0,2,3,5,4,1,0,250.0,test,1,E-
549.56817627,5,1000,2,1,0,2,3,5,4,1,0,250.0,test,5,E-
440.475940704,1,1000,4,0,0,2,3,5,4,1,0,250.0,test,2,E-
581.922054291,3,1000,3,1,0,2,3,5,4,1,0,250.0,test,3,E-
630.565166473,4,1000,5,1,0,2,3,5,4,1,0,250.0,test,4,E-
504.543066025,5,1000,2,1,0,2,3,5,4,1,0,250.0,test,5,E-
471.7669487,5,1000,2,1,0,2,3,5,4,1,0,250.0,test,5,E-
469.944953918,3,1000,3,1,0,2,3,5,4,1,0,250.0,test,3,E-
503.711223602,0,1000,1,1,0,2,3,5,4,1,0,250.0,test,0,E-
501.657962799,4,1000,5,1,0,2,3,5,4,1,0,250.0,test,4,E-
469.690084457,0,1000,1,1,0,2,3,5,4,1,0,250.0,test,0,E-
805.670976639,5,1000,2,1,0,2,3,5,4,1,0,250.0,test,5,E-
425.306081772,5,1000,2,1,0,2,3,5,4,1,0,250.0,test,5,E-
615.802049637,2,1000,0,1,0,2,3,5,4,1,0,250.0,test,2,E-
485.769033432,2,1000,0,1,0,2,3,5,4,1,0,250.0,test,2,E-
405.840158463,4,1000,5,1,0,2,3,5,4,1,0,250.0,test,4,E-
438.79199028,0,1000,1,1,0,2,3,5,4,1,0,250.0,test,0,E-
789.765119553,3,1000,3,1,0,2,3,5,4,1,0,250.0,test,3,E-
518.707990646,0,1000,1,1,0,2,3,5,4,1,0,250.0,test,0,E-
789.892911911,4,1000,5,1,0,2,3,5,4,1,0,250.0,test,4,E-
695.785999298,2,1000,0,1,0,2,3,5,4,1,0,250.0,test,2,E-
422.469139099,0,1000,1,1,0,2,3,5,4,1,0,250.0,test,0,E-
583.71090889,1,1000,4,1,0,2,3,5,4,1,0,250.0,test,1,E-
615.782976151,0,1000,1,1,0,2,3,5,4,1,0,250.0,test,0,E-
533.858060837,0,1000,1,1,0,2,3,5,4,1,0,250.0,test,0,E-
808.886051178,3,1000,3,0,0,2,3,5,4,1,0,250.0,test,2,E-
533.612966537,3,1000,3,1,0,2,3,5,4,1,0,250.0,test,3,E-
598.768949509,5,1000,2,1,0,2,3,5,4,1,0,250.0,test,5,E-
501.756906509,5,1000,2,1,0,2,3,5,4,1,0,250.0,test,5,E-
485.874176025,0,1000,1,1,0,2,3,5,4,1,0,250.0,test,0,E-
535.80904007,0,1000,1,1,0,2,3,5,4,1,0,250.0,test,0,E-
583.832979202,1,1000,4,1,0,2,3,5,4,1,0,250.0,test,1,E-
486.754894257,1,1000,4,1,0,2,3,5,4,1,0,250.0,test,1,E-
918.93696785,3,1000,3,1,0,2,3,5,4,1,0,250.0,test,3,E-
743.714094162,4,1000,5,1,0,2,3,5,4,1,0,250.0,test,4,E-
615.746021271,1,1000,4,1,0,2,3,5,4,1,0,250.0,test,1,E-
565.855026245,2,1000,0,1,0,2,3,5,4,1,0,250.0,test,2,E-
485.728979111,5,1000,2,1,0,2,3,5,4,1,0,250.0,test,5,E-
421.829938889,1,1000,4,1,0,2,3,5,4,1,0,250.0,test,1,E-
553.189992905,2,1000,0,1,0,2,3,5,4,1,0,250.0,test,2,E-
405.894041061,2,1000,0,1,0,2,3,5,4,1,0,250.0,test,2,E-
533.780813217,3,1000,3,1,0,2,3,5,4,1,0,250.0,test,3,E-
405.824899673,1,1000,4,1,0,2,3,5,4,1,0,250.0,test,1,E-
566.540002823,3,1000,3,1,0,2,3,5,4,1,0,250.0,test,3,E-
550.344944,0,1000,1,1,0,2,3,5,4,1,0,250.0,test,0,E-
551.403999329,2,1000,0,1,0,2,3,5,4,1,0,250.0,test,2,E-
438.412904739,0,1000,1,1,0,2,3,5,4,1,0,250.0,test,0,E-
407.772064209,5,1000,2,1,0,2,3,5,4,1,0,250.0,test,5,E-
439.36085701,3,1000,3,0,0,2,3,5,4,1,0,250.0,test,2,E-
503.839969635,3,1000,3,1,0,2,3,5,4,1,0,250.0,test,3,E-
439.66794014,3,1000,3,1,0,2,3,5,4,1,0,250.0,test,3,E-
437.855958939,2,1000,0,1,0,2,3,5,4,1,0,250.0,test,2,E-
457.226037979,2,1000,0,1,0,2,3,5,4,1,0,250.0,test,2,E-
661.846160889,3,1000,3,1,0,2,3,5,4,1,0,250.0,test,3,E-
409.107923508,0,1000,1,1,0,2,3,5,4,1,0,250.0,test,0,E-
645.900011063,1,1000,4,1,0,2,3,5,4,1,0,250.0,test,1,E-
501.760959625,4,1000,5,0,0,2,3,5,4,1,0,250.0,test,5,E-
439.306020737,5,1000,2,1,0,2,3,5,4,1,0,250.0,test,5,E-
421.792984009,4,1000,5,1,0,2,3,5,4,1,0,250.0,test,4,E-
599.452018738,3,1000,3,1,0,2,3,5,4,1,0,250.0,test,3,E-
503.603935242,0,1000,1,1,0,2,3,5,4,1,0,250.0,test,0,E-
503.509998322,1,1000,4,1,0,2,3,5,4,1,0,250.0,test,1,E-
599.730968475,3,1000,3,1,0,2,3,5,4,1,0,250.0,test,3,E-
501.775026321,1,1000,4,1,0,2,3,5,4,1,0,250.0,test,1,E-
405.742883682,0,1000,1,1,0,2,3,5,4,1,0,250.0,test,0,E-
501.758098602,2,1000,0,1,0,2,3,5,4,1,0,250.0,test,2,E-
553.042888641,2,1000,0,1,0,2,3,5,4,1,0,250.0,test,2,E-
437.747955322,4,1000,5,1,0,2,3,5,4,1,0,250.0,test,4,E-
453.716993332,5,1000,2,1,0,2,3,5,4,1,0,250.0,test,5,E-
597.765922546,4,1000,5,1,0,2,3,5,4,1,0,250.0,test,4,E-
421.818971634,1,1000,4,1,0,2,3,5,4,1,0,250.0,test,1,E-
663.490056992,3,1000,3,1,0,2,3,5,4,1,0,250.0,test,3,E-
520.517110825,2,1000,0,1,0,2,3,5,4,1,0,250.0,test,2,E-
551.382064819,4,1000,5,1,0,2,3,5,4,1,0,250.0,test,4,E-
438.88092041,4,1000,5,1,0,2,3,5,4,1,0,250.0,test,4,E-
407.864093781,4,1000,5,1,0,2,3,5,4,1,0,250.0,test,4,E-
470.799922943,0,1000,1,1,0,2,3,5,4,1,0,250.0,test,0,E-
439.796924591,0,1000,1,1,0,2,3,5,4,1,0,250.0,test,0,E-
406.782150269,0,1000,1,1,0,2,3,5,4,1,0,250.0,test,0,E-
585.358858109,3,1000,3,1,0,2,3,5,4,1,0,250.0,test,3,E-
517.880916595,2,1000,0,1,0,2,3,5,4,1,0,250.0,test,2,E-
549.751996994,4,1000,5,1,0,2,3,5,4,1,0,250.0,test,4,E-
453.817844391,2,1000,0,1,0,2,3,5,4,1,0,250.0,test,2,E-
357.821941376,2,1000,0,1,0,2,3,5,4,1,0,250.0,test,2,E-
422.940015793,5,1000,2,1,0,2,3,5,4,1,0,250.0,test,5,E-
501.80888176,5,1000,2,1,0,2,3,5,4,1,0,250.0,test,5,E-
485.871076584,2,1000,0,1,0,2,3,5,4,1,0,250.0,test,2,E-
469.866037369,4,1000,5,1,0,2,3,5,4,1,0,250.0,test,4,E-
534.681081772,1,1000,4,1,0,2,3,5,4,1,0,250.0,test,1,E-
567.864894867,3,1000,3,1,0,2,3,5,4,1,0,250.0,test,3,E-
487.664937973,2,1000,0,0,0,2,3,5,4,1,0,250.0,test,5,E-
455.906867981,5,1000,2,1,0,2,3,5,4,1,0,250.0,test,5,E-
407.875061035,0,1000,1,1,0,2,3,5,4,1,0,250.0,test,0,E-
440.02699852,0,1000,1,1,0,2,3,5,4,1,0,250.0,test,0,E-
421.779870987,2,1000,0,1,0,2,3,5,4,1,0,250.0,test,2,E-
373.802900314,5,1000,2,1,0,2,3,5,4,1,0,250.0,test,5,E-
517.812013626,0,1000,1,1,0,2,3,5,4,1,0,250.0,test,0,E-
501.759052277,4,1000,5,1,0,2,3,5,4,1,0,250.0,test,4,E-
549.798965454,3,1000,3,1,0,2,3,5,4,1,0,250.0,test,3,E-
389.719963074,3,1000,3,1,0,2,3,5,4,1,0,250.0,test,3,E-
437.7348423,0,1000,1,1,0,2,3,5,4,1,0,250.0,test,0,E-
341.845035553,2,1000,0,1,0,2,3,5,4,1,0,250.0,test,2,E-
422.864198685,2,1000,0,1,0,2,3,5,4,1,0,250.0,test,2,E-
423.413991928,3,1000,3,1,0,2,3,5,4,1,0,250.0,test,3,E-
422.967195511,0,1000,1,1,0,2,3,5,4,1,0,250.0,test,0,E-
407.459020615,4,1000,5,1,0,2,3,5,4,1,0,250.0,test,4,E-
422.63507843,0,1000,1,1,0,2,3,5,4,1,0,250.0,test,0,E-
441.246986389,3,1000,3,1,0,2,3,5,4,1,0,250.0,test,3,E-
504.632949829,5,1000,2,1,0,2,3,5,4,1,0,250.0,test,5,E-
456.007957458,3,1000,3,1,0,2,3,5,4,1,0,250.0,test,3,E-
421.802997589,3,1000,3,1,0,2,3,5,4,1,0,250.0,test,3,E-
601.274967194,1,1000,4,0,0,2,3,5,4,1,0,250.0,test,4,E-
553.301811218,0,1000,1,1,0,2,3,5,4,1,0,250.0,test,0,E-
437.788963318,0,1000,1,1,0,2,3,5,4,1,0,250.0,test,0,E-
485.700130463,4,1000,5,1,0,2,3,5,4,1,0,250.0,test,4,E-
645.756959915,5,1000,2,1,0,2,3,5,4,1,0,250.0,test,5,E-
389.811992645,3,1000,3,1,0,2,3,5,4,1,0,250.0,test,3,E-
565.895080566,3,1000,3,1,0,2,3,5,4,1,0,250.0,test,3,E-
549.84498024,4,1000,5,1,0,2,3,5,4,1,0,250.0,test,4,E-
551.378011703,1,1000,4,1,0,2,3,5,4,1,0,250.0,test,1,E-
679.038047791,2,1000,0,1,0,2,3,5,4,1,0,250.0,test,2,E-
535.367012024,5,1000,2,1,0,2,3,5,4,1,0,250.0,test,5,E-
488.652944565,1,1000,4,1,0,2,3,5,4,1,0,250.0,test,1,E-
663.712024689,4,1000,5,1,0,2,3,5,4,1,0,250.0,test,4,E-
663.663864136,2,1000,0,1,0,2,3,5,4,1,0,250.0,test,2,E-
486.995220184,1,1000,4,1,0,2,3,5,4,1,0,250.0,test,1,E-
473.36101532,5,1000,2,1,0,2,3,5,4,1,0,250.0,test,5,E-
501.825094223,2,1000,0,1,0,2,3,5,4,1,0,250.0,test,2,E-
649.292945862,0,1000,1,1,0,2,3,5,4,1,0,250.0,test,0,E-
453.845977783,5,1000,2,1,0,2,3,5,4,1,0,250.0,test,5,E-
549.814939499,2,1000,0,1,0,2,3,5,4,1,0,250.0,test,2,E-
501.803874969,3,1000,3,1,0,2,3,5,4,1,0,250.0,test,3,E-
439.466953278,5,1000,2,1,0,2,3,5,4,1,0,250.0,test,5,E-
471.68803215,1,1000,4,1,0,2,3,5,4,1,0,250.0,test,1,E-
551.794052124,3,1000,3,0,0,2,3,5,4,1,0,250.0,test,2,E-
743.848085403,1,1000,4,1,0,2,3,5,4,1,0,250.0,test,1,E-
471.679925919,5,1000,2,1,0,2,3,5,4,1,0,250.0,test,5,E-
567.503929138,2,1000,0,1,0,2,3,5,4,1,0,250.0,test,2,E-
599.875926971,3,1000,3,1,0,2,3,5,4,1,0,250.0,test,3,E-
585.345983505,2,1000,0,1,0,2,3,5,4,1,0,250.0,test,2,E-
424.611091614,2,1000,0,1,0,2,3,5,4,1,0,250.0,test,2,E-
437.772989273,5,1000,2,1,0,2,3,5,4,1,0,250.0,test,5,E-
633.097887039,1,1000,4,1,0,2,3,5,4,1,0,250.0,test,1,E-
406.112194061,1,1000,4,1,0,2,3,5,4,1,0,250.0,test,1,E-
629.820108414,3,1000,3,1,0,2,3,5,4,1,0,250.0,test,3,E-
663.727045059,4,1000,5,1,0,2,3,5,4,1,0,250.0,test,4,E-
503.606081009,2,1000,0,1,0,2,3,5,4,1,0,250.0,test,2,E-
695.770025253,3,1000,3,1,0,2,3,5,4,1,0,250.0,test,3,E-
501.844882965,4,1000,5,1,0,2,3,5,4,1,0,250.0,test,4,E-
726.051092148,3,1000,3,1,0,2,3,5,4,1,0,250.0,test,3,E-
469.689130783,0,1000,1,1,0,2,3,5,4,1,0,250.0,test,0,E-
581.776857376,1,1000,4,1,0,2,3,5,4,1,0,250.0,test,1,E-
425.242185593,5,1000,2,1,0,2,3,5,4,1,0,250.0,test,5,E-
407.656908035,2,1000,0,0,0,2,3,5,4,1,0,250.0,test,3,E-
453.952074051,1,1000,4,1,0,2,3,5,4,1,0,250.0,test,1,E-
423.363924026,0,1000,1,1,0,2,3,5,4,1,0,250.0,test,0,E-
854.784965515,3,1000,3,1,0,2,3,5,4,1,0,250.0,test,3,E-
503.744840622,1,1000,4,1,0,2,3,5,4,1,0,250.0,test,1,E-
615.677118301,3,1000,3,1,0,2,3,5,4,1,0,250.0,test,3,E-
487.66708374,0,1000,1,1,0,2,3,5,4,1,0,250.0,test,0,E-
503.709077835,1,1000,4,1,0,2,3,5,4,1,0,250.0,test,1,E-
487.592220306,0,1000,1,1,0,2,3,5,4,1,0,250.0,test,0,E-
469.550132751,0,1000,1,1,0,2,3,5,4,1,0,250.0,test,0,E-
438.977956772,0,1000,1,1,0,2,3,5,4,1,0,250.0,test,0,E-
469.81883049,2,1000,0,1,0,2,3,5,4,1,0,250.0,test,2,E-
486.448049545,3,1000,3,0,0,2,3,5,4,1,0,250.0,test,2,E-
552.43396759,5,1000,2,1,0,2,3,5,4,1,0,250.0,test,5,E-
437.757968903,5,1000,2,1,0,2,3,5,4,1,0,250.0,test,5,E-
421.900987625,1,1000,4,1,0,2,3,5,4,1,0,250.0,test,1,E-
471.546888351,1,1000,4,1,0,2,3,5,4,1,0,250.0,test,1,E-
694.889068604,3,1000,3,1,0,2,3,5,4,1,0,250.0,test,3,E-
551.697015762,4,1000,5,1,0,2,3,5,4,1,0,250.0,test,4,E-
535.685062408,4,1000,5,1,0,2,3,5,4,1,0,250.0,test,4,E-
327.750921249,4,1000,5,1,0,2,3,5,4,1,0,250.0,test,4,E-
583.432912827,3,1000,3,1,0,2,3,5,4,1,0,250.0,test,3,E-
1429.92210388,0,1000,1,1,0,2,3,5,4,1,0,250.0,test,0,E-
662.853956223,4,1000,5,1,0,2,3,5,4,1,0,250.0,test,4,E-
629.866838455,0,1000,1,1,0,2,3,5,4,1,0,250.0,test,0,E-
565.907001495,2,1000,0,1,0,2,3,5,4,1,0,250.0,test,2,E-
421.725988388,2,1000,0,1,0,2,3,5,4,1,0,250.0,test,2,E-
726.605892181,3,1000,3,1,0,2,3,5,4,1,0,250.0,test,3,E-
471.390008926,5,1000,2,1,0,2,3,5,4,1,0,250.0,test,5,E-
359.549045563,4,1000,5,1,0,2,3,5,4,1,0,250.0,test,4,E-
488.59500885,5,1000,2,1,0,2,3,5,4,1,0,250.0,test,5,E-
583.630084991,4,1000,5,1,0,2,3,5,4,1,0,250.0,test,4,E-
488.616943359,3,1000,3,1,0,2,3,5,4,1,0,250.0,test,3,E-
486.680984497,2,1000,0,1,0,2,3,5,4,1,0,250.0,test,2,E-
424.636125565,2,1000,0,1,0,2,3,5,4,1,0,250.0,test,2,E-
407.70983696,2,1000,0,1,0,2,3,5,4,1,0,250.0,test,2,E-
472.630023956,5,1000,2,1,0,2,3,5,4,1,0,250.0,test,5,E-
421.79608345,5,1000,2,1,0,2,3,5,4,1,0,250.0,test,5,E-
613.78288269,3,1000,3,1,0,2,3,5,4,1,0,250.0,test,3,E-
453.73415947,0,1000,1,1,0,2,3,5,4,1,0,250.0,test,0,E-
789.753913879,3,1000,3,1,0,2,3,5,4,1,0,250.0,test,3,E-
533.754825592,0,1000,1,1,0,2,3,5,4,1,0,250.0,test,0,E-
503.355026245,1,1000,4,1,0,2,3,5,4,1,0,250.0,test,1,E-
535.425186157,1,1000,4,1,0,2,3,5,4,1,0,250.0,test,1,E-
503.734827042,5,1000,2,1,0,2,3,5,4,1,0,250.0,test,5,E-
486.891031265,0,1000,1,1,0,2,3,5,4,1,0,250.0,test,0,E-
599.812030792,3,1000,3,1,0,2,3,5,4,1,0,250.0,test,3,E-
437.700986862,4,1000,5,1,0,2,3,5,4,1,0,250.0,test,4,E-
439.750909805,1,1000,4,1,0,2,3,5,4,1,0,250.0,test,1,E-
437.937021255,4,1000,5,1,0,2,3,5,4,1,0,250.0,test,4,E-
455.868959427,1,1000,4,1,0,2,3,5,4,1,0,250.0,test,1,E-
549.979925156,3,1000,3,1,0,2,3,5,4,1,0,250.0,test,3,E-
597.841024399,4,1000,5,1,0,2,3,5,4,1,0,250.0,test,4,E-
437.787055969,0,1000,1,1,0,2,3,5,4,1,0,250.0,test,0,E-
629.74691391,4,1000,5,1,0,2,3,5,4,1,0,250.0,test,4,E-
583.650112152,3,1000,3,1,0,2,3,5,4,1,0,250.0,test,3,E-
613.931894302,1,1000,4,0,0,2,3,5,4,1,0,250.0,test,4,E-
743.314981461,3,1000,3,1,0,2,3,5,4,1,0,250.0,test,3,E-
584.347009659,4,1000,5,1,0,2,3,5,4,1,0,250.0,test,4,E-
471.66800499,1,1000,4,1,0,2,3,5,4,1,0,250.0,test,1,E-
437.746047974,4,1000,5,1,0,2,3,5,4,1,0,250.0,test,4,E-
423.649072647,1,1000,4,1,0,2,3,5,4,1,0,250.0,test,1,E-
485.754966736,4,1000,5,1,0,2,3,5,4,1,0,250.0,test,4,E-
631.822824478,3,1000,3,1,0,2,3,5,4,1,0,250.0,test,3,E-
517.823934555,5,1000,2,1,0,2,3,5,4,1,0,250.0,test,5,E-
469.731092453,4,1000,5,1,0,2,3,5,4,1,0,250.0,test,4,E-
501.791954041,4,1000,5,1,0,2,3,5,4,1,0,250.0,test,4,E-
501.785039902,3,1000,3,1,0,2,3,5,4,1,0,250.0,test,3,E-
533.83898735,4,1000,5,1,0,2,3,5,4,1,0,250.0,test,4,E-
454.656839371,1,1000,4,1,0,2,3,5,4,1,0,250.0,test,1,E-
695.675849915,2,1000,0,1,0,2,3,5,4,1,0,250.0,test,2,E-
455.75094223,5,1000,2,1,0,2,3,5,4,1,0,250.0,test,5,E-
551.389932632,5,1000,2,1,0,2,3,5,4,1,0,250.0,test,5,E-
