RT,correct_response,ms-prestimblank,curstim,correct,SRmap_1,SRmap_0,SRmap_3,SRmap_2,SRmap_5,SRmap_4,ms-precue,ntrials,type,response,condition
1817.882061,1,1000,3,1,3,4,1,2,5,0,0,250.0,train,1,M
570.425987244,1,1000,3,1,3,4,1,2,5,0,0,250.0,train,1,M
570.496797562,2,1000,2,1,3,4,1,2,5,0,0,250.0,train,2,M
426.528930664,1,1000,3,1,3,4,1,2,5,0,0,250.0,train,1,M
570.501804352,5,1000,5,1,3,4,1,2,5,0,0,250.0,train,5,M
619.119167328,2,1000,2,1,3,4,1,2,5,0,0,250.0,train,2,M
458.149909973,2,1000,2,1,3,4,1,2,5,0,0,250.0,train,2,M
346.493959427,2,1000,2,1,3,4,1,2,5,0,0,250.0,train,2,M
362.582921982,2,1000,2,1,3,4,1,2,5,0,0,250.0,train,2,M
490.469932556,3,1000,1,0,3,4,1,2,5,0,0,250.0,train,4,M
474.61605072,3,1000,1,1,3,4,1,2,5,0,0,250.0,train,3,M
458.468198776,5,1000,5,1,3,4,1,2,5,0,0,250.0,train,5,M
458.629846573,5,1000,5,1,3,4,1,2,5,0,0,250.0,train,5,M
490.520000458,2,1000,2,1,3,4,1,2,5,0,0,250.0,train,2,M
586.290836334,5,1000,5,1,3,4,1,2,5,0,0,250.0,train,5,M
475.896835327,0,1000,4,1,3,4,1,2,5,0,0,250.0,train,0,M
458.584070206,0,1000,4,1,3,4,1,2,5,0,0,250.0,train,0,M
442.456960678,5,1000,5,1,3,4,1,2,5,0,0,250.0,train,5,M
522.596120834,3,1000,1,1,3,4,1,2,5,0,0,250.0,train,3,M
524.039983749,1,1000,3,1,3,4,1,2,5,0,0,250.0,train,1,M
475.865840912,5,1000,5,1,3,4,1,2,5,0,0,250.0,train,5,M
411.931991577,0,1000,4,1,3,4,1,2,5,0,0,250.0,train,0,M
426.432132721,4,1000,0,0,3,4,1,2,5,0,0,250.0,train,5,M
426.437854767,0,1000,4,1,3,4,1,2,5,0,0,250.0,train,0,M
602.401971817,4,1000,0,1,3,4,1,2,5,0,0,250.0,train,4,M
458.526134491,2,1000,2,1,3,4,1,2,5,0,0,250.0,train,2,M
443.866014481,1,1000,3,1,3,4,1,2,5,0,0,250.0,train,1,M
442.414045334,2,1000,2,1,3,4,1,2,5,0,0,250.0,train,2,M
586.871147156,4,1000,0,1,3,4,1,2,5,0,0,250.0,train,4,M
459.925174713,0,1000,4,1,3,4,1,2,5,0,0,250.0,train,0,M
442.481040955,0,1000,4,1,3,4,1,2,5,0,0,250.0,train,0,M
410.539150238,2,1000,2,1,3,4,1,2,5,0,0,250.0,train,2,M
539.834976196,3,1000,1,1,3,4,1,2,5,0,0,250.0,train,3,M
538.623094559,5,1000,5,0,3,4,1,2,5,0,0,250.0,train,4,M
459.872961044,1,1000,3,1,3,4,1,2,5,0,0,250.0,train,1,M
523.076057434,3,1000,1,1,3,4,1,2,5,0,0,250.0,train,3,M
410.562038422,0,1000,4,1,3,4,1,2,5,0,0,250.0,train,0,M
362.622022629,1,1000,3,1,3,4,1,2,5,0,0,250.0,train,1,M
426.633834839,0,1000,4,1,3,4,1,2,5,0,0,250.0,train,0,M
538.635015488,5,1000,5,1,3,4,1,2,5,0,0,250.0,train,5,M
378.615140915,4,1000,0,1,3,4,1,2,5,0,0,250.0,train,4,M
473.910093307,4,1000,0,1,3,4,1,2,5,0,0,250.0,train,4,M
522.674798965,2,1000,2,1,3,4,1,2,5,0,0,250.0,train,2,M
410.526037216,2,1000,2,1,3,4,1,2,5,0,0,250.0,train,2,M
347.100019455,1,1000,3,1,3,4,1,2,5,0,0,250.0,train,1,M
506.464004517,5,1000,5,0,3,4,1,2,5,0,0,250.0,train,4,M
346.504926682,5,1000,5,1,3,4,1,2,5,0,0,250.0,train,5,M
347.961902618,5,1000,5,1,3,4,1,2,5,0,0,250.0,train,5,M
362.56980896,1,1000,3,1,3,4,1,2,5,0,0,250.0,train,1,M
314.563035965,1,1000,3,1,3,4,1,2,5,0,0,250.0,train,1,M
410.401105881,3,1000,1,1,3,4,1,2,5,0,0,250.0,train,3,M
364.009857178,3,1000,1,1,3,4,1,2,5,0,0,250.0,train,3,M
378.484964371,4,1000,0,1,3,4,1,2,5,0,0,250.0,train,4,M
394.403934479,3,1000,1,1,3,4,1,2,5,0,0,250.0,train,3,M
442.368984222,0,1000,4,1,3,4,1,2,5,0,0,250.0,train,0,M
410.453796387,4,1000,0,0,3,4,1,2,5,0,0,250.0,train,5,M
458.478927612,5,1000,5,1,3,4,1,2,5,0,0,250.0,train,5,M
298.403978348,5,1000,5,1,3,4,1,2,5,0,0,250.0,train,5,M
458.499908447,0,1000,4,1,3,4,1,2,5,0,0,250.0,train,0,M
426.522016525,1,1000,3,1,3,4,1,2,5,0,0,250.0,train,1,M
377.315044403,0,1000,4,1,3,4,1,2,5,0,0,250.0,train,0,M
474.605083466,5,1000,5,1,3,4,1,2,5,0,0,250.0,train,5,M
427.821874619,3,1000,1,1,3,4,1,2,5,0,0,250.0,train,3,M
443.902015686,4,1000,0,0,3,4,1,2,5,0,0,250.0,train,3,M
346.529960632,1,1000,3,1,3,4,1,2,5,0,0,250.0,train,1,M
443.083047867,2,1000,2,1,3,4,1,2,5,0,0,250.0,train,2,M
474.632024765,2,1000,2,1,3,4,1,2,5,0,0,250.0,train,2,M
427.047967911,2,1000,2,1,3,4,1,2,5,0,0,250.0,train,2,M
490.573883057,5,1000,5,1,3,4,1,2,5,0,0,250.0,train,5,M
539.124011993,2,1000,2,1,3,4,1,2,5,0,0,250.0,train,2,M
426.645040512,1,1000,3,1,3,4,1,2,5,0,0,250.0,train,1,M
458.539962769,5,1000,5,1,3,4,1,2,5,0,0,250.0,train,5,M
346.576929092,4,1000,0,1,3,4,1,2,5,0,0,250.0,train,4,M
378.634929657,1,1000,3,1,3,4,1,2,5,0,0,250.0,train,1,M
411.900997162,0,1000,4,1,3,4,1,2,5,0,0,250.0,train,0,M
362.622976303,4,1000,0,0,3,4,1,2,5,0,0,250.0,train,5,M
378.418922424,1,1000,3,1,3,4,1,2,5,0,0,250.0,train,1,M
458.453178406,3,1000,1,1,3,4,1,2,5,0,0,250.0,train,3,M
443.955898285,2,1000,2,1,3,4,1,2,5,0,0,250.0,train,2,M
315.988779068,2,1000,2,1,3,4,1,2,5,0,0,250.0,train,2,M
442.450046539,5,1000,5,1,3,4,1,2,5,0,0,250.0,train,5,M
443.967103958,2,1000,2,1,3,4,1,2,5,0,0,250.0,train,2,M
459.978818893,1,1000,3,1,3,4,1,2,5,0,0,250.0,train,1,M
378.468036652,0,1000,4,1,3,4,1,2,5,0,0,250.0,train,0,M
316.028118134,1,1000,3,1,3,4,1,2,5,0,0,250.0,train,1,M
426.398038864,4,1000,0,1,3,4,1,2,5,0,0,250.0,train,4,M
346.371889114,5,1000,5,1,3,4,1,2,5,0,0,250.0,train,5,M
410.418987274,3,1000,1,0,3,4,1,2,5,0,0,250.0,train,2,M
426.498174667,2,1000,2,0,3,4,1,2,5,0,0,250.0,train,0,M
2330.48510551,0,1000,4,1,3,4,1,2,5,0,0,250.0,train,0,M
362.218141556,0,1000,4,1,3,4,1,2,5,0,0,250.0,train,0,M
540.004014969,3,1000,1,1,3,4,1,2,5,0,0,250.0,train,3,M
442.552089691,2,1000,2,1,3,4,1,2,5,0,0,250.0,train,2,M
427.994966507,4,1000,0,1,3,4,1,2,5,0,0,250.0,train,4,M
442.30890274,4,1000,0,1,3,4,1,2,5,0,0,250.0,train,4,M
443.8829422,0,1000,4,1,3,4,1,2,5,0,0,250.0,train,0,M
330.424070358,1,1000,3,1,3,4,1,2,5,0,0,250.0,train,1,M
395.852088928,1,1000,3,1,3,4,1,2,5,0,0,250.0,train,1,M
442.400932312,0,1000,4,1,3,4,1,2,5,0,0,250.0,train,0,M
314.606189728,1,1000,3,1,3,4,1,2,5,0,0,250.0,train,1,M
427.018880844,1,1000,3,1,3,4,1,2,5,0,0,250.0,train,1,M
538.583993912,4,1000,0,1,3,4,1,2,5,0,0,250.0,train,4,M
475.12793541,1,1000,3,1,3,4,1,2,5,0,0,250.0,train,1,M
491.836071014,4,1000,0,0,3,4,1,2,5,0,0,250.0,train,3,M
490.626096725,1,1000,3,1,3,4,1,2,5,0,0,250.0,train,1,M
442.612886429,5,1000,5,1,3,4,1,2,5,0,0,250.0,train,5,M
298.592090607,1,1000,3,1,3,4,1,2,5,0,0,250.0,train,1,M
458.594083786,0,1000,4,1,3,4,1,2,5,0,0,250.0,train,0,M
618.695020676,3,1000,1,1,3,4,1,2,5,0,0,250.0,train,3,M
250.522136688,5,1000,5,0,3,4,1,2,5,0,0,250.0,train,1,M
490.746974945,1,1000,3,1,3,4,1,2,5,0,0,250.0,train,1,M
426.441192627,0,1000,4,1,3,4,1,2,5,0,0,250.0,train,0,M
459.980964661,2,1000,2,1,3,4,1,2,5,0,0,250.0,train,2,M
522.528886795,4,1000,0,1,3,4,1,2,5,0,0,250.0,train,4,M
410.511016846,1,1000,3,1,3,4,1,2,5,0,0,250.0,train,1,M
394.477844238,2,1000,2,1,3,4,1,2,5,0,0,250.0,train,2,M
314.426898956,3,1000,1,1,3,4,1,2,5,0,0,250.0,train,3,M
395.900964737,5,1000,5,1,3,4,1,2,5,0,0,250.0,train,5,M
395.914077759,0,1000,4,1,3,4,1,2,5,0,0,250.0,train,0,M
441.946029663,1,1000,3,1,3,4,1,2,5,0,0,250.0,train,1,M
458.545923233,5,1000,5,1,3,4,1,2,5,0,0,250.0,train,5,M
394.401073456,5,1000,5,1,3,4,1,2,5,0,0,250.0,train,5,M
410.460948944,5,1000,5,1,3,4,1,2,5,0,0,250.0,train,5,M
491.873979568,2,1000,2,1,3,4,1,2,5,0,0,250.0,train,2,M
395.823001862,5,1000,5,0,3,4,1,2,5,0,0,250.0,train,2,M
426.448822021,2,1000,2,1,3,4,1,2,5,0,0,250.0,train,2,M
394.515991211,3,1000,1,1,3,4,1,2,5,0,0,250.0,train,3,M
410.596847534,1,1000,3,1,3,4,1,2,5,0,0,250.0,train,1,M
426.523208618,3,1000,1,1,3,4,1,2,5,0,0,250.0,train,3,M
363.883972168,2,1000,2,1,3,4,1,2,5,0,0,250.0,train,2,M
427.953004837,4,1000,0,1,3,4,1,2,5,0,0,250.0,train,4,M
458.585977554,1,1000,3,1,3,4,1,2,5,0,0,250.0,train,1,M
458.565950394,4,1000,0,1,3,4,1,2,5,0,0,250.0,train,4,M
492.037057877,2,1000,2,1,3,4,1,2,5,0,0,250.0,train,2,M
330.572128296,1,1000,3,1,3,4,1,2,5,0,0,250.0,train,1,M
490.586042404,5,1000,5,1,3,4,1,2,5,0,0,250.0,train,5,M
362.571954727,1,1000,3,1,3,4,1,2,5,0,0,250.0,train,1,M
378.618001938,1,1000,3,1,3,4,1,2,5,0,0,250.0,train,1,M
298.56300354,1,1000,3,1,3,4,1,2,5,0,0,250.0,train,1,M
394.56486702,0,1000,4,1,3,4,1,2,5,0,0,250.0,train,0,M
299.873113632,0,1000,4,1,3,4,1,2,5,0,0,250.0,train,0,M
378.59082222,4,1000,0,0,3,4,1,2,5,0,0,250.0,train,5,M
394.619941711,4,1000,0,1,3,4,1,2,5,0,0,250.0,train,4,M
282.477855682,1,1000,3,1,3,4,1,2,5,0,0,250.0,train,1,M
410.567998886,3,1000,1,1,3,4,1,2,5,0,0,250.0,train,3,M
458.469152451,4,1000,0,1,3,4,1,2,5,0,0,250.0,train,4,M
426.393985748,3,1000,1,1,3,4,1,2,5,0,0,250.0,train,3,M
362.472057343,5,1000,5,1,3,4,1,2,5,0,0,250.0,train,5,M
394.407987595,3,1000,1,1,3,4,1,2,5,0,0,250.0,train,3,M
298.609972,1,1000,3,1,3,4,1,2,5,0,0,250.0,train,1,M
395.959854126,3,1000,1,1,3,4,1,2,5,0,0,250.0,train,3,M
410.417079926,2,1000,2,0,3,4,1,2,5,0,0,250.0,train,3,M
459.008932114,2,1000,2,1,3,4,1,2,5,0,0,250.0,train,2,M
427.626132965,0,1000,4,1,3,4,1,2,5,0,0,250.0,train,0,M
411.046981812,0,1000,4,1,3,4,1,2,5,0,0,250.0,train,0,M
426.431894302,2,1000,2,1,3,4,1,2,5,0,0,250.0,train,2,M
395.078897476,0,1000,4,1,3,4,1,2,5,0,0,250.0,train,0,M
298.140048981,0,1000,4,1,3,4,1,2,5,0,0,250.0,train,0,M
522.49288559,5,1000,5,1,3,4,1,2,5,0,0,250.0,train,5,M
442.238092422,1,1000,3,1,3,4,1,2,5,0,0,250.0,train,1,M
378.416061401,0,1000,4,1,3,4,1,2,5,0,0,250.0,train,0,M
410.452842712,5,1000,5,1,3,4,1,2,5,0,0,250.0,train,5,M
395.963191986,1,1000,3,1,3,4,1,2,5,0,0,250.0,train,1,M
458.551883698,2,1000,2,1,3,4,1,2,5,0,0,250.0,train,2,M
459.966897964,5,1000,5,1,3,4,1,2,5,0,0,250.0,train,5,M
395.904064178,2,1000,2,1,3,4,1,2,5,0,0,250.0,train,2,M
411.853075027,0,1000,4,1,3,4,1,2,5,0,0,250.0,train,0,M
474.528074265,5,1000,5,1,3,4,1,2,5,0,0,250.0,train,5,M
442.556142807,5,1000,5,1,3,4,1,2,5,0,0,250.0,train,5,M
474.62105751,3,1000,1,1,3,4,1,2,5,0,0,250.0,train,3,M
410.593032837,0,1000,4,1,3,4,1,2,5,0,0,250.0,train,0,M
474.611997604,3,1000,1,1,3,4,1,2,5,0,0,250.0,train,3,M
378.567934036,3,1000,1,1,3,4,1,2,5,0,0,250.0,train,3,M
394.598007202,0,1000,4,1,3,4,1,2,5,0,0,250.0,train,0,M
442.661046982,2,1000,2,1,3,4,1,2,5,0,0,250.0,train,2,M
346.25005722,3,1000,1,0,3,4,1,2,5,0,0,250.0,train,2,M
394.572019577,2,1000,2,0,3,4,1,2,5,0,0,250.0,train,3,M
411.111831665,3,1000,1,1,3,4,1,2,5,0,0,250.0,train,3,M
378.628015518,3,1000,1,1,3,4,1,2,5,0,0,250.0,train,3,M
396.099090576,2,1000,2,1,3,4,1,2,5,0,0,250.0,train,2,M
330.368995667,0,1000,4,0,3,4,1,2,5,0,0,250.0,train,1,M
426.446914673,1,1000,3,1,3,4,1,2,5,0,0,250.0,train,1,M
362.488985062,2,1000,2,1,3,4,1,2,5,0,0,250.0,train,2,M
507.967948914,4,1000,0,1,3,4,1,2,5,0,0,250.0,train,4,M
476.015090942,2,1000,2,1,3,4,1,2,5,0,0,250.0,train,2,M
490.373134613,4,1000,0,1,3,4,1,2,5,0,0,250.0,train,4,M
410.463094711,1,1000,3,1,3,4,1,2,5,0,0,250.0,train,1,M
442.570924759,4,1000,0,1,3,4,1,2,5,0,0,250.0,train,4,M
395.895004272,0,1000,4,1,3,4,1,2,5,0,0,250.0,train,0,M
395.853996277,2,1000,2,1,3,4,1,2,5,0,0,250.0,train,2,M
411.082983017,0,1000,4,1,3,4,1,2,5,0,0,250.0,train,0,M
458.528995514,5,1000,5,1,3,4,1,2,5,0,0,250.0,train,5,M
459.081172943,5,1000,5,1,3,4,1,2,5,0,0,250.0,train,5,M
426.424980164,3,1000,1,1,3,4,1,2,5,0,0,250.0,train,3,M
394.812822342,4,1000,0,1,3,4,1,2,5,0,0,250.0,train,4,M
411.922216415,4,1000,0,1,3,4,1,2,5,0,0,250.0,train,4,M
427.028179169,0,1000,4,1,3,4,1,2,5,0,0,250.0,train,0,M
396.037817001,5,1000,5,1,3,4,1,2,5,0,0,250.0,train,5,M
347.048997879,1,1000,3,0,3,4,1,2,5,0,0,250.0,train,4,M
427.879095078,4,1000,0,1,3,4,1,2,5,0,0,250.0,train,4,M
427.891016006,2,1000,2,1,3,4,1,2,5,0,0,250.0,train,2,M
394.51789856,3,1000,1,1,3,4,1,2,5,0,0,250.0,train,3,M
426.578998566,5,1000,5,1,3,4,1,2,5,0,0,250.0,train,5,M
443.925142288,0,1000,4,1,3,4,1,2,5,0,0,250.0,train,0,M
475.919008255,3,1000,1,1,3,4,1,2,5,0,0,250.0,train,3,M
458.544969559,3,1000,1,1,3,4,1,2,5,0,0,250.0,train,3,M
425.191164017,1,1000,3,1,3,4,1,2,5,0,0,250.0,train,1,M
346.566915512,2,1000,2,1,3,4,1,2,5,0,0,250.0,train,2,M
394.567966461,2,1000,2,0,3,4,1,2,5,0,0,250.0,train,1,M
570.61290741,4,1000,0,1,3,4,1,2,5,0,0,250.0,train,4,M
443.041086197,3,1000,1,1,3,4,1,2,5,0,0,250.0,train,3,M
362.627029419,0,1000,4,1,3,4,1,2,5,0,0,250.0,train,0,M
442.639827728,4,1000,0,1,3,4,1,2,5,0,0,250.0,train,4,M
378.599882126,4,1000,0,1,3,4,1,2,5,0,0,250.0,train,4,M
394.651889801,2,1000,2,0,3,4,1,2,5,0,0,250.0,train,3,M
410.446882248,0,1000,4,1,3,4,1,2,5,0,0,250.0,train,0,M
458.48107338,4,1000,0,1,3,4,1,2,5,0,0,250.0,train,4,M
443.984031677,3,1000,1,1,3,4,1,2,5,0,0,250.0,train,3,M
410.488128662,5,1000,5,1,3,4,1,2,5,0,0,250.0,train,5,M
410.404205322,5,1000,5,1,3,4,1,2,5,0,0,250.0,train,5,M
362.407922745,5,1000,5,1,3,4,1,2,5,0,0,250.0,train,5,M
426.517963409,0,1000,4,1,3,4,1,2,5,0,0,250.0,train,0,M
522.210121155,3,1000,1,1,3,4,1,2,5,0,0,250.0,train,3,M
379.935026169,3,1000,1,1,3,4,1,2,5,0,0,250.0,train,3,M
443.942070007,1,1000,3,1,3,4,1,2,5,0,0,250.0,train,1,M
362.431049347,2,1000,2,1,3,4,1,2,5,0,0,250.0,train,2,M
442.448139191,5,1000,5,1,3,4,1,2,5,0,0,250.0,train,5,M
378.445148468,5,1000,5,1,3,4,1,2,5,0,0,250.0,train,5,M
442.476034164,0,1000,4,1,3,4,1,2,5,0,0,250.0,train,0,M
346.470117569,1,1000,3,1,3,4,1,2,5,0,0,250.0,train,1,M
331.996917725,2,1000,2,1,3,4,1,2,5,0,0,250.0,train,2,M
363.981962204,2,1000,2,1,3,4,1,2,5,0,0,250.0,train,2,M
377.803087234,3,1000,1,1,3,4,1,2,5,0,0,250.0,train,3,M
410.541772842,3,1000,1,1,3,4,1,2,5,0,0,250.0,train,3,M
379.050970078,2,1000,2,1,3,4,1,2,5,0,0,250.0,train,2,M
411.89289093,0,1000,4,1,3,4,1,2,5,0,0,250.0,train,0,M
411.074876785,3,1000,1,1,3,4,1,2,5,0,0,250.0,train,3,M
363.95406723,0,1000,4,1,3,4,1,2,5,0,0,250.0,train,0,M
362.936019897,1,1000,3,0,3,4,1,2,5,0,0,250.0,train,2,M
395.934820175,1,1000,3,1,3,4,1,2,5,0,0,250.0,train,1,M
362.55812645,0,1000,4,1,3,4,1,2,5,0,0,250.0,train,0,M
458.599805832,2,1000,2,1,3,4,1,2,5,0,0,250.0,train,2,M
346.534013748,3,1000,1,1,3,4,1,2,5,0,0,250.0,train,3,M
474.59602356,2,1000,2,1,3,4,1,2,5,0,0,250.0,train,2,M
411.867141724,3,1000,1,0,3,4,1,2,5,0,0,250.0,train,2,M
426.61190033,0,1000,4,1,3,4,1,2,5,0,0,250.0,train,0,M
538.596868515,5,1000,5,1,3,4,1,2,5,0,0,250.0,train,5,M
458.581924438,1,1000,3,1,3,4,1,2,5,0,0,250.0,train,1,M
474.655151367,4,1000,0,1,3,4,1,2,5,0,0,250.0,train,4,M
490.540981293,2,1000,2,1,3,4,1,2,5,0,0,250.0,train,2,M
2794.02399063,0,1000,4,1,3,4,1,2,5,0,0,250.0,test,0,M
1290.2879715,5,1000,5,1,3,4,1,2,5,0,0,250.0,test,5,M
1194.30184364,3,1000,1,1,3,4,1,2,5,0,0,250.0,test,3,M
2202.3229599,2,1000,2,0,3,4,1,2,5,0,0,250.0,test,3,M
1242.40088463,3,1000,1,0,3,4,1,2,5,0,0,250.0,test,4,M
842.367887497,3,1000,1,1,3,4,1,2,5,0,0,250.0,test,3,M
810.821056366,0,1000,4,1,3,4,1,2,5,0,0,250.0,test,0,M
426.342964172,2,1000,2,0,3,4,1,2,5,0,0,250.0,test,3,M
715.857028961,2,1000,2,1,3,4,1,2,5,0,0,250.0,test,2,M
666.314840317,0,1000,4,1,3,4,1,2,5,0,0,250.0,test,0,M
858.926057816,5,1000,5,1,3,4,1,2,5,0,0,250.0,test,5,M
379.683971405,3,1000,1,1,3,4,1,2,5,0,0,250.0,test,3,M
554.317951202,0,1000,4,0,3,4,1,2,5,0,0,250.0,test,3,M
682.343959808,5,1000,5,1,3,4,1,2,5,0,0,250.0,test,5,M
746.371030807,5,1000,5,0,3,4,1,2,5,0,0,250.0,test,4,M
634.33599472,3,1000,1,1,3,4,1,2,5,0,0,250.0,test,3,M
602.404117584,0,1000,4,1,3,4,1,2,5,0,0,250.0,test,0,M
666.342020035,4,1000,0,0,3,4,1,2,5,0,0,250.0,test,5,M
459.811925888,1,1000,3,1,3,4,1,2,5,0,0,250.0,test,1,M
618.300914764,5,1000,5,0,3,4,1,2,5,0,0,250.0,test,1,M
858.326196671,3,1000,1,1,3,4,1,2,5,0,0,250.0,test,3,M
538.884162903,0,1000,4,1,3,4,1,2,5,0,0,250.0,test,0,M
873.999118805,3,1000,1,1,3,4,1,2,5,0,0,250.0,test,3,M
1034.40308571,1,1000,3,0,3,4,1,2,5,0,0,250.0,test,4,M
1130.92398643,2,1000,2,1,3,4,1,2,5,0,0,250.0,test,2,M
1099.79891777,5,1000,5,0,3,4,1,2,5,0,0,250.0,test,1,M
603.660821915,0,1000,4,1,3,4,1,2,5,0,0,250.0,test,0,M
1563.61889839,4,1000,0,1,3,4,1,2,5,0,0,250.0,test,4,M
666.919946671,5,1000,5,0,3,4,1,2,5,0,0,250.0,test,1,M
506.287097931,5,1000,5,1,3,4,1,2,5,0,0,250.0,test,5,M
1515.83003998,4,1000,0,1,3,4,1,2,5,0,0,250.0,test,4,M
522.405862808,5,1000,5,1,3,4,1,2,5,0,0,250.0,test,5,M
666.301012039,1,1000,3,1,3,4,1,2,5,0,0,250.0,test,1,M
699.79095459,3,1000,1,1,3,4,1,2,5,0,0,250.0,test,3,M
1034.43598747,1,1000,3,1,3,4,1,2,5,0,0,250.0,test,1,M
475.792884827,5,1000,5,1,3,4,1,2,5,0,0,250.0,test,5,M
474.907875061,4,1000,0,1,3,4,1,2,5,0,0,250.0,test,4,M
906.410932541,1,1000,3,1,3,4,1,2,5,0,0,250.0,test,1,M
842.481136322,4,1000,0,1,3,4,1,2,5,0,0,250.0,test,4,M
634.469985962,1,1000,3,1,3,4,1,2,5,0,0,250.0,test,1,M
842.433929443,2,1000,2,1,3,4,1,2,5,0,0,250.0,test,2,M
906.397104263,4,1000,0,0,3,4,1,2,5,0,0,250.0,test,1,M
586.322069168,4,1000,0,1,3,4,1,2,5,0,0,250.0,test,4,M
585.103034973,0,1000,4,1,3,4,1,2,5,0,0,250.0,test,0,M
730.436086655,2,1000,2,0,3,4,1,2,5,0,0,250.0,test,3,M
602.345943451,2,1000,2,1,3,4,1,2,5,0,0,250.0,test,2,M
650.919914246,0,1000,4,1,3,4,1,2,5,0,0,250.0,test,0,M
1146.07000351,4,1000,0,1,3,4,1,2,5,0,0,250.0,test,4,M
762.311935425,1,1000,3,1,3,4,1,2,5,0,0,250.0,test,1,M
954.702138901,1,1000,3,1,3,4,1,2,5,0,0,250.0,test,1,M
762.377977371,4,1000,0,1,3,4,1,2,5,0,0,250.0,test,4,M
554.354906082,5,1000,5,1,3,4,1,2,5,0,0,250.0,test,5,M
570.324897766,3,1000,1,1,3,4,1,2,5,0,0,250.0,test,3,M
554.353952408,2,1000,2,1,3,4,1,2,5,0,0,250.0,test,2,M
555.781126022,5,1000,5,1,3,4,1,2,5,0,0,250.0,test,5,M
617.132902145,4,1000,0,1,3,4,1,2,5,0,0,250.0,test,4,M
587.750196457,1,1000,3,1,3,4,1,2,5,0,0,250.0,test,1,M
619.656085968,3,1000,1,1,3,4,1,2,5,0,0,250.0,test,3,M
523.617982864,4,1000,0,0,3,4,1,2,5,0,0,250.0,test,0,M
330.306053162,0,1000,4,1,3,4,1,2,5,0,0,250.0,test,0,M
1002.06708908,4,1000,0,1,3,4,1,2,5,0,0,250.0,test,4,M
538.033008575,1,1000,3,1,3,4,1,2,5,0,0,250.0,test,1,M
1002.41208076,4,1000,0,1,3,4,1,2,5,0,0,250.0,test,4,M
698.387145996,2,1000,2,0,3,4,1,2,5,0,0,250.0,test,3,M
555.779933929,2,1000,2,1,3,4,1,2,5,0,0,250.0,test,2,M
747.03502655,2,1000,2,1,3,4,1,2,5,0,0,250.0,test,2,M
905.733108521,5,1000,5,0,3,4,1,2,5,0,0,250.0,test,4,M
683.793067932,2,1000,2,1,3,4,1,2,5,0,0,250.0,test,2,M
1035.60709953,1,1000,3,0,3,4,1,2,5,0,0,250.0,test,5,M
747.713088989,0,1000,4,1,3,4,1,2,5,0,0,250.0,test,0,M
1275.75492859,4,1000,0,1,3,4,1,2,5,0,0,250.0,test,4,M
666.898012161,1,1000,3,1,3,4,1,2,5,0,0,250.0,test,1,M
506.365060806,1,1000,3,1,3,4,1,2,5,0,0,250.0,test,1,M
378.857851028,1,1000,3,1,3,4,1,2,5,0,0,250.0,test,1,M
554.316043854,0,1000,4,1,3,4,1,2,5,0,0,250.0,test,0,M
458.94408226,4,1000,0,0,3,4,1,2,5,0,0,250.0,test,1,M
730.447053909,2,1000,2,1,3,4,1,2,5,0,0,250.0,test,2,M
842.398166656,4,1000,0,1,3,4,1,2,5,0,0,250.0,test,4,M
410.372972488,4,1000,0,1,3,4,1,2,5,0,0,250.0,test,4,M
1338.55390549,4,1000,0,0,3,4,1,2,5,0,0,250.0,test,1,M
746.311903,1,1000,3,1,3,4,1,2,5,0,0,250.0,test,1,M
346.144914627,5,1000,5,1,3,4,1,2,5,0,0,250.0,test,5,M
906.32390976,1,1000,3,0,3,4,1,2,5,0,0,250.0,test,5,M
554.292917252,5,1000,5,1,3,4,1,2,5,0,0,250.0,test,5,M
395.266056061,4,1000,0,1,3,4,1,2,5,0,0,250.0,test,4,M
859.726905823,1,1000,3,0,3,4,1,2,5,0,0,250.0,test,5,M
683.804035187,0,1000,4,1,3,4,1,2,5,0,0,250.0,test,0,M
795.381069183,4,1000,0,1,3,4,1,2,5,0,0,250.0,test,4,M
523.549079895,2,1000,2,0,3,4,1,2,5,0,0,250.0,test,3,M
570.316076279,3,1000,1,1,3,4,1,2,5,0,0,250.0,test,3,M
490.28801918,3,1000,1,1,3,4,1,2,5,0,0,250.0,test,3,M
394.355773926,3,1000,1,1,3,4,1,2,5,0,0,250.0,test,3,M
682.332038879,1,1000,3,1,3,4,1,2,5,0,0,250.0,test,1,M
410.218954086,1,1000,3,1,3,4,1,2,5,0,0,250.0,test,1,M
363.753080368,4,1000,0,0,3,4,1,2,5,0,0,250.0,test,0,M
570.360898972,3,1000,1,1,3,4,1,2,5,0,0,250.0,test,3,M
586.884021759,4,1000,0,0,3,4,1,2,5,0,0,250.0,test,1,M
1194.40722466,3,1000,1,1,3,4,1,2,5,0,0,250.0,test,3,M
859.736919403,5,1000,5,0,3,4,1,2,5,0,0,250.0,test,1,M
746.157884598,1,1000,3,1,3,4,1,2,5,0,0,250.0,test,1,M
874.372005463,5,1000,5,0,3,4,1,2,5,0,0,250.0,test,4,M
634.488105774,0,1000,4,1,3,4,1,2,5,0,0,250.0,test,0,M
778.344154358,3,1000,1,1,3,4,1,2,5,0,0,250.0,test,3,M
570.363998413,1,1000,3,0,3,4,1,2,5,0,0,250.0,test,5,M
474.300146103,5,1000,5,0,3,4,1,2,5,0,0,250.0,test,1,M
667.80090332,4,1000,0,1,3,4,1,2,5,0,0,250.0,test,4,M
426.380872726,5,1000,5,1,3,4,1,2,5,0,0,250.0,test,5,M
458.342075348,1,1000,3,1,3,4,1,2,5,0,0,250.0,test,1,M
938.346862793,1,1000,3,1,3,4,1,2,5,0,0,250.0,test,1,M
842.443943024,2,1000,2,1,3,4,1,2,5,0,0,250.0,test,2,M
1050.44388771,4,1000,0,1,3,4,1,2,5,0,0,250.0,test,4,M
683.795213699,0,1000,4,1,3,4,1,2,5,0,0,250.0,test,0,M
811.803102493,4,1000,0,1,3,4,1,2,5,0,0,250.0,test,4,M
363.731861115,5,1000,5,1,3,4,1,2,5,0,0,250.0,test,5,M
571.806907654,1,1000,3,1,3,4,1,2,5,0,0,250.0,test,1,M
443.77207756,2,1000,2,1,3,4,1,2,5,0,0,250.0,test,2,M
395.792961121,3,1000,1,0,3,4,1,2,5,0,0,250.0,test,2,M
634.316921234,0,1000,4,1,3,4,1,2,5,0,0,250.0,test,0,M
443.688869476,4,1000,0,1,3,4,1,2,5,0,0,250.0,test,4,M
1098.38795662,2,1000,2,1,3,4,1,2,5,0,0,250.0,test,2,M
698.354005814,1,1000,3,1,3,4,1,2,5,0,0,250.0,test,1,M
522.338151932,1,1000,3,1,3,4,1,2,5,0,0,250.0,test,1,M
634.359121323,3,1000,1,1,3,4,1,2,5,0,0,250.0,test,3,M
474.292993546,3,1000,1,1,3,4,1,2,5,0,0,250.0,test,3,M
811.693191528,4,1000,0,1,3,4,1,2,5,0,0,250.0,test,4,M
666.455984116,1,1000,3,1,3,4,1,2,5,0,0,250.0,test,1,M
1738.34896088,3,1000,1,1,3,4,1,2,5,0,0,250.0,test,3,M
507.821083069,3,1000,1,1,3,4,1,2,5,0,0,250.0,test,3,M
539.77894783,1,1000,3,1,3,4,1,2,5,0,0,250.0,test,1,M
699.814081192,2,1000,2,1,3,4,1,2,5,0,0,250.0,test,2,M
619.791984558,2,1000,2,1,3,4,1,2,5,0,0,250.0,test,2,M
522.425889969,2,1000,2,1,3,4,1,2,5,0,0,250.0,test,2,M
603.796958923,3,1000,1,1,3,4,1,2,5,0,0,250.0,test,3,M
603.793144226,1,1000,3,1,3,4,1,2,5,0,0,250.0,test,1,M
474.35593605,5,1000,5,1,3,4,1,2,5,0,0,250.0,test,5,M
490.428924561,5,1000,5,1,3,4,1,2,5,0,0,250.0,test,5,M
698.338031769,2,1000,2,1,3,4,1,2,5,0,0,250.0,test,2,M
602.360963821,3,1000,1,0,3,4,1,2,5,0,0,250.0,test,4,M
650.385141373,4,1000,0,1,3,4,1,2,5,0,0,250.0,test,4,M
602.542161942,1,1000,3,1,3,4,1,2,5,0,0,250.0,test,1,M
586.406946182,3,1000,1,1,3,4,1,2,5,0,0,250.0,test,3,M
602.396965027,5,1000,5,1,3,4,1,2,5,0,0,250.0,test,5,M
442.352056503,5,1000,5,1,3,4,1,2,5,0,0,250.0,test,5,M
666.325807571,0,1000,4,1,3,4,1,2,5,0,0,250.0,test,0,M
554.384946823,2,1000,2,0,3,4,1,2,5,0,0,250.0,test,3,M
586.316823959,0,1000,4,0,3,4,1,2,5,0,0,250.0,test,2,M
1066.43414497,4,1000,0,0,3,4,1,2,5,0,0,250.0,test,1,M
554.81505394,5,1000,5,1,3,4,1,2,5,0,0,250.0,test,5,M
571.791887283,1,1000,3,1,3,4,1,2,5,0,0,250.0,test,1,M
634.844064713,0,1000,4,1,3,4,1,2,5,0,0,250.0,test,0,M
553.148984909,0,1000,4,1,3,4,1,2,5,0,0,250.0,test,0,M
586.863040924,2,1000,2,0,3,4,1,2,5,0,0,250.0,test,3,M
650.375127792,1,1000,3,1,3,4,1,2,5,0,0,250.0,test,1,M
570.39308548,0,1000,4,1,3,4,1,2,5,0,0,250.0,test,0,M
602.380037308,3,1000,1,1,3,4,1,2,5,0,0,250.0,test,3,M
570.220947266,0,1000,4,1,3,4,1,2,5,0,0,250.0,test,0,M
731.820821762,3,1000,1,1,3,4,1,2,5,0,0,250.0,test,3,M
635.568141937,2,1000,2,1,3,4,1,2,5,0,0,250.0,test,2,M
538.237094879,0,1000,4,1,3,4,1,2,5,0,0,250.0,test,0,M
602.387905121,5,1000,5,1,3,4,1,2,5,0,0,250.0,test,5,M
891.9069767,5,1000,5,1,3,4,1,2,5,0,0,250.0,test,5,M
1003.76105309,1,1000,3,1,3,4,1,2,5,0,0,250.0,test,1,M
682.846069336,5,1000,5,1,3,4,1,2,5,0,0,250.0,test,5,M
618.397951126,0,1000,4,1,3,4,1,2,5,0,0,250.0,test,0,M
602.904081345,5,1000,5,1,3,4,1,2,5,0,0,250.0,test,5,M
859.77602005,3,1000,1,1,3,4,1,2,5,0,0,250.0,test,3,M
1098.29592705,4,1000,0,1,3,4,1,2,5,0,0,250.0,test,4,M
1146.31509781,2,1000,2,1,3,4,1,2,5,0,0,250.0,test,2,M
554.342031479,5,1000,5,1,3,4,1,2,5,0,0,250.0,test,5,M
906.502008438,2,1000,2,0,3,4,1,2,5,0,0,250.0,test,3,M
922.40691185,1,1000,3,1,3,4,1,2,5,0,0,250.0,test,1,M
650.441169739,3,1000,1,1,3,4,1,2,5,0,0,250.0,test,3,M
586.267948151,5,1000,5,1,3,4,1,2,5,0,0,250.0,test,5,M
538.374185562,0,1000,4,1,3,4,1,2,5,0,0,250.0,test,0,M
554.420948029,1,1000,3,1,3,4,1,2,5,0,0,250.0,test,1,M
666.332006454,3,1000,1,1,3,4,1,2,5,0,0,250.0,test,3,M
554.327964783,0,1000,4,1,3,4,1,2,5,0,0,250.0,test,0,M
570.392131805,5,1000,5,1,3,4,1,2,5,0,0,250.0,test,5,M
458.8098526,5,1000,5,1,3,4,1,2,5,0,0,250.0,test,5,M
475.009918213,1,1000,3,1,3,4,1,2,5,0,0,250.0,test,1,M
395.648956299,1,1000,3,1,3,4,1,2,5,0,0,250.0,test,1,M
554.306983948,3,1000,1,1,3,4,1,2,5,0,0,250.0,test,3,M
507.7688694,4,1000,0,0,3,4,1,2,5,0,0,250.0,test,1,M
441.052913666,4,1000,0,1,3,4,1,2,5,0,0,250.0,test,4,M
746.362924576,5,1000,5,1,3,4,1,2,5,0,0,250.0,test,5,M
427.564144135,5,1000,5,1,3,4,1,2,5,0,0,250.0,test,5,M
601.890087128,3,1000,1,1,3,4,1,2,5,0,0,250.0,test,3,M
458.158016205,2,1000,2,0,3,4,1,2,5,0,0,250.0,test,3,M
618.342876434,0,1000,4,1,3,4,1,2,5,0,0,250.0,test,0,M
603.790998459,5,1000,5,1,3,4,1,2,5,0,0,250.0,test,5,M
842.398881912,3,1000,1,1,3,4,1,2,5,0,0,250.0,test,3,M
858.239173889,5,1000,5,0,3,4,1,2,5,0,0,250.0,test,4,M
570.352077484,0,1000,4,1,3,4,1,2,5,0,0,250.0,test,0,M
1227.86188126,2,1000,2,0,3,4,1,2,5,0,0,250.0,test,3,M
602.334976196,0,1000,4,1,3,4,1,2,5,0,0,250.0,test,0,M
554.470062256,1,1000,3,1,3,4,1,2,5,0,0,250.0,test,1,M
890.413999557,3,1000,1,1,3,4,1,2,5,0,0,250.0,test,3,M
490.387916565,3,1000,1,1,3,4,1,2,5,0,0,250.0,test,3,M
458.339929581,3,1000,1,1,3,4,1,2,5,0,0,250.0,test,3,M
922.399997711,4,1000,0,1,3,4,1,2,5,0,0,250.0,test,4,M
522.308826447,0,1000,4,1,3,4,1,2,5,0,0,250.0,test,0,M
602.40983963,0,1000,4,1,3,4,1,2,5,0,0,250.0,test,0,M
666.292905807,4,1000,0,1,3,4,1,2,5,0,0,250.0,test,4,M
554.28981781,3,1000,1,1,3,4,1,2,5,0,0,250.0,test,3,M
426.191091537,3,1000,1,1,3,4,1,2,5,0,0,250.0,test,3,M
378.473997116,3,1000,1,1,3,4,1,2,5,0,0,250.0,test,3,M
394.376993179,4,1000,0,1,3,4,1,2,5,0,0,250.0,test,4,M
554.466962814,2,1000,2,0,3,4,1,2,5,0,0,250.0,test,3,M
682.348966599,2,1000,2,1,3,4,1,2,5,0,0,250.0,test,2,M
362.347126007,2,1000,2,1,3,4,1,2,5,0,0,250.0,test,2,M
667.793035507,5,1000,5,1,3,4,1,2,5,0,0,250.0,test,5,M
570.348978043,0,1000,4,1,3,4,1,2,5,0,0,250.0,test,0,M
603.822946548,0,1000,4,1,3,4,1,2,5,0,0,250.0,test,0,M
539.770126343,2,1000,2,0,3,4,1,2,5,0,0,250.0,test,3,M
299.321889877,2,1000,2,1,3,4,1,2,5,0,0,250.0,test,2,M
747.645139694,3,1000,1,1,3,4,1,2,5,0,0,250.0,test,3,M
634.319067001,4,1000,0,1,3,4,1,2,5,0,0,250.0,test,4,M
619.515895844,0,1000,4,1,3,4,1,2,5,0,0,250.0,test,0,M
490.187883377,2,1000,2,0,3,4,1,2,5,0,0,250.0,test,1,M
666.355133057,1,1000,3,1,3,4,1,2,5,0,0,250.0,test,1,M
506.302833557,5,1000,5,1,3,4,1,2,5,0,0,250.0,test,5,M
522.212982178,4,1000,0,1,3,4,1,2,5,0,0,250.0,test,4,M
618.418931961,0,1000,4,1,3,4,1,2,5,0,0,250.0,test,0,M
890.304088593,5,1000,5,1,3,4,1,2,5,0,0,250.0,test,5,M
715.798139572,3,1000,1,1,3,4,1,2,5,0,0,250.0,test,3,M
554.3820858,1,1000,3,1,3,4,1,2,5,0,0,250.0,test,1,M
700.693845749,0,1000,4,1,3,4,1,2,5,0,0,250.0,test,0,M
635.786056519,3,1000,1,1,3,4,1,2,5,0,0,250.0,test,3,M
651.671886444,5,1000,5,1,3,4,1,2,5,0,0,250.0,test,5,M
570.472002029,1,1000,3,1,3,4,1,2,5,0,0,250.0,test,1,M
570.297002792,3,1000,1,1,3,4,1,2,5,0,0,250.0,test,3,M
490.396022797,3,1000,1,1,3,4,1,2,5,0,0,250.0,test,3,M
378.345012665,3,1000,1,1,3,4,1,2,5,0,0,250.0,test,3,M
395.702123642,3,1000,1,1,3,4,1,2,5,0,0,250.0,test,3,M
618.425130844,2,1000,2,1,3,4,1,2,5,0,0,250.0,test,2,M
538.29407692,1,1000,3,1,3,4,1,2,5,0,0,250.0,test,1,M
715.81697464,2,1000,2,1,3,4,1,2,5,0,0,250.0,test,2,M
506.319999695,1,1000,3,1,3,4,1,2,5,0,0,250.0,test,1,M
459.721088409,3,1000,1,1,3,4,1,2,5,0,0,250.0,test,3,M
618.345022202,1,1000,3,1,3,4,1,2,5,0,0,250.0,test,1,M
618.432998657,0,1000,4,1,3,4,1,2,5,0,0,250.0,test,0,M
427.764892578,5,1000,5,0,3,4,1,2,5,0,0,250.0,test,1,M
938.384056091,2,1000,2,0,3,4,1,2,5,0,0,250.0,test,3,M
762.359857559,3,1000,1,1,3,4,1,2,5,0,0,250.0,test,3,M
522.145986557,0,1000,4,1,3,4,1,2,5,0,0,250.0,test,0,M
570.355892181,0,1000,4,1,3,4,1,2,5,0,0,250.0,test,0,M
1162.29295731,1,1000,3,1,3,4,1,2,5,0,0,250.0,test,1,M
651.80015564,2,1000,2,1,3,4,1,2,5,0,0,250.0,test,2,M
666.330099106,3,1000,1,1,3,4,1,2,5,0,0,250.0,test,3,M
763.613939285,4,1000,0,1,3,4,1,2,5,0,0,250.0,test,4,M
