RT,correct_response,ms-prestimblank,curstim,correct,SRmap_1,SRmap_0,SRmap_3,SRmap_2,SRmap_5,SRmap_4,ms-precue,ntrials,type,response,condition
9406.15701675,2,600,5,1,3,0,1,5,2,4,400,250.0,train,2,E-
1742.89894104,4,600,4,1,3,0,1,5,2,4,400,250.0,train,4,E-
2015.11907578,3,600,1,1,3,0,1,5,2,4,400,250.0,train,3,E-
2159.17301178,0,600,0,1,3,0,1,5,2,4,400,250.0,train,0,E-
1327.0471096,1,600,3,1,3,0,1,5,2,4,400,250.0,train,1,E-
1647.18484879,4,600,4,1,3,0,1,5,2,4,400,250.0,train,4,E-
1742.8278923,4,600,4,1,3,0,1,5,2,4,400,250.0,train,4,E-
1631.22582436,5,600,2,1,3,0,1,5,2,4,400,250.0,train,5,E-
1727.23603249,2,600,5,1,3,0,1,5,2,4,400,250.0,train,2,E-
1279.14905548,4,600,4,1,3,0,1,5,2,4,400,250.0,train,4,E-
1071.05493546,5,600,2,1,3,0,1,5,2,4,400,250.0,train,5,E-
1151.13806725,1,600,3,1,3,0,1,5,2,4,400,250.0,train,1,E-
991.264104843,3,600,1,1,3,0,1,5,2,4,400,250.0,train,3,E-
1199.53203201,4,600,4,1,3,0,1,5,2,4,400,250.0,train,4,E-
623.284101486,5,600,2,1,3,0,1,5,2,4,400,250.0,train,5,E-
975.214004517,1,600,3,1,3,0,1,5,2,4,400,250.0,train,1,E-
1247.23696709,3,600,1,1,3,0,1,5,2,4,400,250.0,train,3,E-
1103.38807106,1,600,3,1,3,0,1,5,2,4,400,250.0,train,1,E-
751.217126846,4,600,4,1,3,0,1,5,2,4,400,250.0,train,4,E-
1215.20805359,0,600,0,1,3,0,1,5,2,4,400,250.0,train,0,E-
622.946023941,0,600,0,1,3,0,1,5,2,4,400,250.0,train,0,E-
639.251947403,3,600,1,0,3,0,1,5,2,4,400,250.0,train,5,E-
1343.04404259,1,600,3,1,3,0,1,5,2,4,400,250.0,train,1,E-
1023.09513092,3,600,1,0,3,0,1,5,2,4,400,250.0,train,4,E-
1039.23511505,2,600,5,0,3,0,1,5,2,4,400,250.0,train,1,E-
911.167860031,1,600,3,1,3,0,1,5,2,4,400,250.0,train,1,E-
431.605815887,0,600,0,1,3,0,1,5,2,4,400,250.0,train,0,E-
847.238063812,2,600,5,1,3,0,1,5,2,4,400,250.0,train,2,E-
479.164838791,3,600,1,1,3,0,1,5,2,4,400,250.0,train,3,E-
991.088151932,1,600,3,1,3,0,1,5,2,4,400,250.0,train,1,E-
431.151866913,2,600,5,1,3,0,1,5,2,4,400,250.0,train,2,E-
606.364965439,4,600,4,0,3,0,1,5,2,4,400,250.0,train,5,E-
655.62415123,3,600,1,1,3,0,1,5,2,4,400,250.0,train,3,E-
431.261777878,4,600,4,1,3,0,1,5,2,4,400,250.0,train,4,E-
367.173910141,4,600,4,1,3,0,1,5,2,4,400,250.0,train,4,E-
479.083061218,5,600,2,1,3,0,1,5,2,4,400,250.0,train,5,E-
943.299055099,3,600,1,1,3,0,1,5,2,4,400,250.0,train,3,E-
511.240005493,1,600,3,1,3,0,1,5,2,4,400,250.0,train,1,E-
431.139945984,2,600,5,1,3,0,1,5,2,4,400,250.0,train,2,E-
495.604991913,2,600,5,1,3,0,1,5,2,4,400,250.0,train,2,E-
431.174993515,3,600,1,1,3,0,1,5,2,4,400,250.0,train,3,E-
319.159984589,4,600,4,1,3,0,1,5,2,4,400,250.0,train,4,E-
511.184930801,5,600,2,1,3,0,1,5,2,4,400,250.0,train,5,E-
1343.13082695,5,600,2,0,3,0,1,5,2,4,400,250.0,train,4,E-
783.664941788,2,600,5,1,3,0,1,5,2,4,400,250.0,train,2,E-
270.375013351,1,600,3,1,3,0,1,5,2,4,400,250.0,train,1,E-
910.509109497,4,600,4,1,3,0,1,5,2,4,400,250.0,train,4,E-
415.631055832,5,600,2,1,3,0,1,5,2,4,400,250.0,train,5,E-
287.564992905,5,600,2,1,3,0,1,5,2,4,400,250.0,train,5,E-
335.772037506,0,600,0,1,3,0,1,5,2,4,400,250.0,train,0,E-
287.601947784,0,600,0,1,3,0,1,5,2,4,400,250.0,train,0,E-
350.471973419,3,600,1,1,3,0,1,5,2,4,400,250.0,train,3,E-
287.201881409,2,600,5,1,3,0,1,5,2,4,400,250.0,train,2,E-
671.719074249,5,600,2,1,3,0,1,5,2,4,400,250.0,train,5,E-
575.695991516,1,600,3,1,3,0,1,5,2,4,400,250.0,train,1,E-
719.695091248,5,600,2,1,3,0,1,5,2,4,400,250.0,train,5,E-
479.523181915,3,600,1,1,3,0,1,5,2,4,400,250.0,train,3,E-
511.630058289,2,600,5,1,3,0,1,5,2,4,400,250.0,train,2,E-
350.776910782,5,600,2,1,3,0,1,5,2,4,400,250.0,train,5,E-
719.631910324,3,600,1,1,3,0,1,5,2,4,400,250.0,train,3,E-
399.723052979,0,600,0,1,3,0,1,5,2,4,400,250.0,train,0,E-
527.040958405,5,600,2,1,3,0,1,5,2,4,400,250.0,train,5,E-
303.151130676,0,600,0,1,3,0,1,5,2,4,400,250.0,train,0,E-
527.116060257,4,600,4,1,3,0,1,5,2,4,400,250.0,train,4,E-
271.161079407,1,600,3,1,3,0,1,5,2,4,400,250.0,train,1,E-
271.047830582,0,600,0,1,3,0,1,5,2,4,400,250.0,train,0,E-
287.693977356,2,600,5,1,3,0,1,5,2,4,400,250.0,train,2,E-
318.337202072,3,600,1,1,3,0,1,5,2,4,400,250.0,train,3,E-
303.730964661,0,600,0,1,3,0,1,5,2,4,400,250.0,train,0,E-
334.763050079,1,600,3,1,3,0,1,5,2,4,400,250.0,train,1,E-
191.76197052,0,600,0,1,3,0,1,5,2,4,400,250.0,train,0,E-
206.716060638,3,600,1,1,3,0,1,5,2,4,400,250.0,train,3,E-
255.709886551,5,600,2,1,3,0,1,5,2,4,400,250.0,train,5,E-
334.738016129,3,600,1,1,3,0,1,5,2,4,400,250.0,train,3,E-
95.762014389,4,600,4,1,3,0,1,5,2,4,400,250.0,train,4,E-
78.381061554,1,600,3,1,3,0,1,5,2,4,400,250.0,train,1,E-
175.265073776,2,600,5,1,3,0,1,5,2,4,400,250.0,train,2,E-
191.59913063,2,600,5,1,3,0,1,5,2,4,400,250.0,train,2,E-
110.230922699,3,600,1,1,3,0,1,5,2,4,400,250.0,train,3,E-
142.882108688,0,600,0,1,3,0,1,5,2,4,400,250.0,train,0,E-
1007.25007057,0,600,0,1,3,0,1,5,2,4,400,250.0,train,0,E-
319.309949875,4,600,4,0,3,0,1,5,2,4,400,250.0,train,3,E-
255.10597229,1,600,3,1,3,0,1,5,2,4,400,250.0,train,1,E-
127.326965332,0,600,0,1,3,0,1,5,2,4,400,250.0,train,0,E-
287.250995636,1,600,3,1,3,0,1,5,2,4,400,250.0,train,1,E-
175.153970718,5,600,2,1,3,0,1,5,2,4,400,250.0,train,5,E-
367.154836655,2,600,5,0,3,0,1,5,2,4,400,250.0,train,3,E-
303.145170212,1,600,3,1,3,0,1,5,2,4,400,250.0,train,1,E-
174.361944199,0,600,0,1,3,0,1,5,2,4,400,250.0,train,0,E-
351.193904877,3,600,1,1,3,0,1,5,2,4,400,250.0,train,3,E-
222.614049911,1,600,3,1,3,0,1,5,2,4,400,250.0,train,1,E-
189.341068268,1,600,3,1,3,0,1,5,2,4,400,250.0,train,1,E-
383.045911789,3,600,1,1,3,0,1,5,2,4,400,250.0,train,3,E-
63.0781650543,0,600,0,1,3,0,1,5,2,4,400,250.0,train,0,E-
255.54394722,5,600,2,1,3,0,1,5,2,4,400,250.0,train,5,E-
94.3169593811,1,600,3,1,3,0,1,5,2,4,400,250.0,train,1,E-
783.190965652,0,600,0,1,3,0,1,5,2,4,400,250.0,train,0,E-
95.0241088867,1,600,3,1,3,0,1,5,2,4,400,250.0,train,1,E-
255.645990372,4,600,4,1,3,0,1,5,2,4,400,250.0,train,4,E-
303.579092026,2,600,5,1,3,0,1,5,2,4,400,250.0,train,2,E-
79.6241760254,0,600,0,1,3,0,1,5,2,4,400,250.0,train,0,E-
223.532915115,4,600,4,1,3,0,1,5,2,4,400,250.0,train,4,E-
47.7738380432,5,600,2,1,3,0,1,5,2,4,400,250.0,train,5,E-
207.656860352,2,600,5,1,3,0,1,5,2,4,400,250.0,train,2,E-
222.885131836,3,600,1,0,3,0,1,5,2,4,400,250.0,train,4,E-
159.343004227,0,600,0,1,3,0,1,5,2,4,400,250.0,train,0,E-
255.220174789,3,600,1,1,3,0,1,5,2,4,400,250.0,train,3,E-
191.742181778,0,600,0,1,3,0,1,5,2,4,400,250.0,train,0,E-
271.629095078,2,600,5,1,3,0,1,5,2,4,400,250.0,train,2,E-
351.747989655,4,600,4,1,3,0,1,5,2,4,400,250.0,train,4,E-
303.620100021,2,600,5,0,3,0,1,5,2,4,400,250.0,train,3,E-
382.946014404,5,600,2,0,3,0,1,5,2,4,400,250.0,train,3,E-
415.632963181,2,600,5,1,3,0,1,5,2,4,400,250.0,train,2,E-
239.818811417,4,600,4,1,3,0,1,5,2,4,400,250.0,train,4,E-
543.653011322,5,600,2,1,3,0,1,5,2,4,400,250.0,train,5,E-
79.8578262329,4,600,4,1,3,0,1,5,2,4,400,250.0,train,4,E-
111.057043076,5,600,2,1,3,0,1,5,2,4,400,250.0,train,5,E-
159.862041473,4,600,4,1,3,0,1,5,2,4,400,250.0,train,4,E-
94.6881771088,0,600,0,1,3,0,1,5,2,4,400,250.0,train,0,E-
222.295045853,1,600,3,1,3,0,1,5,2,4,400,250.0,train,1,E-
126.724004745,1,600,3,1,3,0,1,5,2,4,400,250.0,train,1,E-
142.385005951,5,600,2,1,3,0,1,5,2,4,400,250.0,train,5,E-
207.211971283,2,600,5,0,3,0,1,5,2,4,400,250.0,train,3,E-
126.309156418,5,600,2,1,3,0,1,5,2,4,400,250.0,train,5,E-
335.27302742,1,600,3,1,3,0,1,5,2,4,400,250.0,train,1,E-
350.663900375,5,600,2,1,3,0,1,5,2,4,400,250.0,train,5,E-
78.4571170807,0,600,0,1,3,0,1,5,2,4,400,250.0,train,0,E-
63.2340908051,1,600,3,1,3,0,1,5,2,4,400,250.0,train,1,E-
62.6249313354,4,600,4,1,3,0,1,5,2,4,400,250.0,train,4,E-
63.1849765778,0,600,0,1,3,0,1,5,2,4,400,250.0,train,0,E-
47.2378730774,5,600,2,1,3,0,1,5,2,4,400,250.0,train,5,E-
158.298969269,0,600,0,1,3,0,1,5,2,4,400,250.0,train,0,E-
174.470901489,3,600,1,1,3,0,1,5,2,4,400,250.0,train,3,E-
110.772848129,5,600,2,1,3,0,1,5,2,4,400,250.0,train,5,E-
222.373008728,4,600,4,1,3,0,1,5,2,4,400,250.0,train,4,E-
174.544095993,2,600,5,1,3,0,1,5,2,4,400,250.0,train,2,E-
94.7020053864,0,600,0,1,3,0,1,5,2,4,400,250.0,train,0,E-
30.5631160736,2,600,5,1,3,0,1,5,2,4,400,250.0,train,2,E-
382.827997208,1,600,3,1,3,0,1,5,2,4,400,250.0,train,1,E-
78.1109333038,1,600,3,1,3,0,1,5,2,4,400,250.0,train,1,E-
222.203969955,5,600,2,1,3,0,1,5,2,4,400,250.0,train,5,E-
110.687971115,0,600,0,1,3,0,1,5,2,4,400,250.0,train,0,E-
286.660909653,1,600,3,1,3,0,1,5,2,4,400,250.0,train,1,E-
158.420085907,5,600,2,1,3,0,1,5,2,4,400,250.0,train,5,E-
94.3598747253,2,600,5,1,3,0,1,5,2,4,400,250.0,train,2,E-
174.568891525,3,600,1,1,3,0,1,5,2,4,400,250.0,train,3,E-
222.582101822,0,600,0,1,3,0,1,5,2,4,400,250.0,train,0,E-
190.48500061,4,600,4,1,3,0,1,5,2,4,400,250.0,train,4,E-
28.783082962,0,600,0,1,3,0,1,5,2,4,400,250.0,train,0,E-
398.993015289,4,600,4,1,3,0,1,5,2,4,400,250.0,train,4,E-
254.929065704,4,600,4,1,3,0,1,5,2,4,400,250.0,train,4,E-
190.38105011,4,600,4,1,3,0,1,5,2,4,400,250.0,train,4,E-
159.16800499,5,600,2,1,3,0,1,5,2,4,400,250.0,train,5,E-
254.908084869,0,600,0,1,3,0,1,5,2,4,400,250.0,train,0,E-
78.8600444794,0,600,0,1,3,0,1,5,2,4,400,250.0,train,0,E-
253.86095047,5,600,2,1,3,0,1,5,2,4,400,250.0,train,5,E-
366.944789886,0,600,0,1,3,0,1,5,2,4,400,250.0,train,0,E-
655.755996704,2,600,5,1,3,0,1,5,2,4,400,250.0,train,2,E-
287.115097046,4,600,4,1,3,0,1,5,2,4,400,250.0,train,4,E-
206.995010376,1,600,3,1,3,0,1,5,2,4,400,250.0,train,1,E-
351.677894592,0,600,0,1,3,0,1,5,2,4,400,250.0,train,0,E-
543.772935867,1,600,3,1,3,0,1,5,2,4,400,250.0,train,1,E-
48.2470989227,0,600,0,1,3,0,1,5,2,4,400,250.0,train,0,E-
174.402952194,4,600,4,1,3,0,1,5,2,4,400,250.0,train,4,E-
623.708963394,0,600,0,1,3,0,1,5,2,4,400,250.0,train,0,E-
174.36003685,2,600,5,1,3,0,1,5,2,4,400,250.0,train,2,E-
255.798101425,3,600,1,1,3,0,1,5,2,4,400,250.0,train,3,E-
14.7130489349,3,600,1,1,3,0,1,5,2,4,400,250.0,train,3,E-
847.57900238,3,600,1,1,3,0,1,5,2,4,400,250.0,train,3,E-
159.085988998,5,600,2,0,3,0,1,5,2,4,400,250.0,train,4,E-
223.666906357,5,600,2,1,3,0,1,5,2,4,400,250.0,train,5,E-
142.362117767,3,600,1,1,3,0,1,5,2,4,400,250.0,train,3,E-
95.8030223846,3,600,1,1,3,0,1,5,2,4,400,250.0,train,3,E-
95.7660675049,1,600,3,1,3,0,1,5,2,4,400,250.0,train,1,E-
46.3619232178,3,600,1,1,3,0,1,5,2,4,400,250.0,train,3,E-
62.4279975891,5,600,2,1,3,0,1,5,2,4,400,250.0,train,5,E-
127.326965332,1,600,3,1,3,0,1,5,2,4,400,250.0,train,1,E-
446.489095688,0,600,0,1,3,0,1,5,2,4,400,250.0,train,0,E-
223.155975342,4,600,4,1,3,0,1,5,2,4,400,250.0,train,4,E-
415.242910385,1,600,3,1,3,0,1,5,2,4,400,250.0,train,1,E-
303.317785263,4,600,4,1,3,0,1,5,2,4,400,250.0,train,4,E-
175.42386055,2,600,5,0,3,0,1,5,2,4,400,250.0,train,3,E-
287.120103836,4,600,4,1,3,0,1,5,2,4,400,250.0,train,4,E-
127.675056458,1,600,3,1,3,0,1,5,2,4,400,250.0,train,1,E-
47.8479862213,4,600,4,1,3,0,1,5,2,4,400,250.0,train,4,E-
79.7839164734,3,600,1,1,3,0,1,5,2,4,400,250.0,train,3,E-
271.35181427,5,600,2,1,3,0,1,5,2,4,400,250.0,train,5,E-
63.1279945374,0,600,0,1,3,0,1,5,2,4,400,250.0,train,0,E-
591.643095016,4,600,4,1,3,0,1,5,2,4,400,250.0,train,4,E-
127.405881882,5,600,2,1,3,0,1,5,2,4,400,250.0,train,5,E-
15.7809257507,4,600,4,1,3,0,1,5,2,4,400,250.0,train,4,E-
735.663890839,5,600,2,1,3,0,1,5,2,4,400,250.0,train,5,E-
319.683074951,1,600,3,1,3,0,1,5,2,4,400,250.0,train,1,E-
207.654953003,3,600,1,1,3,0,1,5,2,4,400,250.0,train,3,E-
63.4651184082,1,600,3,1,3,0,1,5,2,4,400,250.0,train,1,E-
47.7569103241,2,600,5,1,3,0,1,5,2,4,400,250.0,train,2,E-
79.8141956329,1,600,3,1,3,0,1,5,2,4,400,250.0,train,1,E-
47.7900505066,0,600,0,1,3,0,1,5,2,4,400,250.0,train,0,E-
78.6938667297,1,600,3,1,3,0,1,5,2,4,400,250.0,train,1,E-
175.620079041,5,600,2,1,3,0,1,5,2,4,400,250.0,train,5,E-
0.0557899475098,4,600,4,1,3,0,1,5,2,4,400,250.0,train,4,E-
79.8108577728,1,600,3,1,3,0,1,5,2,4,400,250.0,train,1,E-
15.7268047333,2,600,5,1,3,0,1,5,2,4,400,250.0,train,2,E-
47.0271110535,0,600,0,1,3,0,1,5,2,4,400,250.0,train,0,E-
79.8170566559,0,600,0,1,3,0,1,5,2,4,400,250.0,train,0,E-
79.8301696777,5,600,2,1,3,0,1,5,2,4,400,250.0,train,5,E-
31.8908691406,5,600,2,1,3,0,1,5,2,4,400,250.0,train,5,E-
0.0541210174561,4,600,4,1,3,0,1,5,2,4,400,250.0,train,4,E-
79.1599750519,3,600,1,1,3,0,1,5,2,4,400,250.0,train,3,E-
222.830057144,5,600,2,1,3,0,1,5,2,4,400,250.0,train,5,E-
62.4370574951,3,600,1,1,3,0,1,5,2,4,400,250.0,train,3,E-
0.0498294830322,0,600,0,1,3,0,1,5,2,4,400,250.0,train,0,E-
190.274000168,2,600,5,1,3,0,1,5,2,4,400,250.0,train,2,E-
15.7370567322,5,600,2,1,3,0,1,5,2,4,400,250.0,train,5,E-
143.623113632,2,600,5,1,3,0,1,5,2,4,400,250.0,train,2,E-
0.0510215759277,2,600,5,1,3,0,1,5,2,4,400,250.0,train,2,E-
527.532100677,2,600,5,1,3,0,1,5,2,4,400,250.0,train,2,E-
415.673971176,2,600,5,1,3,0,1,5,2,4,400,250.0,train,2,E-
63.7648105621,1,600,3,1,3,0,1,5,2,4,400,250.0,train,1,E-
79.2429447174,0,600,0,1,3,0,1,5,2,4,400,250.0,train,0,E-
175.653934479,5,600,2,1,3,0,1,5,2,4,400,250.0,train,5,E-
15.007019043,1,600,3,1,3,0,1,5,2,4,400,250.0,train,1,E-
47.7480888367,1,600,3,1,3,0,1,5,2,4,400,250.0,train,1,E-
542.272806168,1,600,3,1,3,0,1,5,2,4,400,250.0,train,1,E-
415.563106537,0,600,0,1,3,0,1,5,2,4,400,250.0,train,0,E-
254.539966583,4,600,4,1,3,0,1,5,2,4,400,250.0,train,4,E-
174.398183823,4,600,4,1,3,0,1,5,2,4,400,250.0,train,4,E-
271.779060364,2,600,5,1,3,0,1,5,2,4,400,250.0,train,2,E-
79.3290138245,1,600,3,1,3,0,1,5,2,4,400,250.0,train,1,E-
63.7328624725,5,600,2,1,3,0,1,5,2,4,400,250.0,train,5,E-
95.694065094,3,600,1,1,3,0,1,5,2,4,400,250.0,train,3,E-
31.779050827,3,600,1,1,3,0,1,5,2,4,400,250.0,train,3,E-
86.9579315186,0,600,0,1,3,0,1,5,2,4,400,250.0,train,0,E-
31.7788124084,5,600,2,1,3,0,1,5,2,4,400,250.0,train,5,E-
0.0309944152832,1,600,3,1,3,0,1,5,2,4,400,250.0,train,1,E-
127.710103989,5,600,2,1,3,0,1,5,2,4,400,250.0,train,5,E-
63.3020401001,4,600,4,1,3,0,1,5,2,4,400,250.0,train,4,E-
63.7578964233,0,600,0,1,3,0,1,5,2,4,400,250.0,train,0,E-
351.671218872,2,600,5,1,3,0,1,5,2,4,400,250.0,train,2,E-
286.870002747,4,600,4,1,3,0,1,5,2,4,400,250.0,train,4,E-
0.0569820404053,1,600,3,1,3,0,1,5,2,4,400,250.0,train,1,E-
63.8420581818,5,600,2,1,3,0,1,5,2,4,400,250.0,train,5,E-
14.9438381195,0,600,0,1,3,0,1,5,2,4,400,250.0,train,0,E-
63.8101100922,5,600,2,1,3,0,1,5,2,4,400,250.0,train,5,E-
95.7851409912,3,600,1,1,3,0,1,5,2,4,400,250.0,train,3,E-
431.349039078,1,600,3,1,3,0,1,5,2,4,400,250.0,train,1,E-
127.671003342,4,600,4,0,3,0,1,5,2,4,400,250.0,train,5,E-
206.369161606,1,600,3,1,3,0,1,5,2,4,400,250.0,train,1,E-
0.0510215759277,0,600,0,1,3,0,1,5,2,4,400,250.0,train,0,E-
463.683843613,0,600,0,1,3,0,1,5,2,4,400,250.0,train,0,E-
526.4980793,1,1000,2,1,2,5,3,1,4,0,0,250.0,test,1,E-
831.039905548,5,1000,0,1,2,5,3,1,4,0,0,250.0,test,5,E-
685.967922211,2,1000,1,1,2,5,3,1,4,0,0,250.0,test,2,E-
575.369119644,0,1000,4,1,2,5,3,1,4,0,0,250.0,test,0,E-
511.114120483,4,1000,5,1,2,5,3,1,4,0,0,250.0,test,4,E-
447.710037231,0,1000,4,1,2,5,3,1,4,0,0,250.0,test,0,E-
607.059001923,2,1000,1,1,2,5,3,1,4,0,0,250.0,test,2,E-
510.750055313,3,1000,3,1,2,5,3,1,4,0,0,250.0,test,3,E-
1262.6760006,2,1000,1,1,2,5,3,1,4,0,0,250.0,test,2,E-
461.988925934,0,1000,4,1,2,5,3,1,4,0,0,250.0,test,0,E-
461.45606041,2,1000,1,1,2,5,3,1,4,0,0,250.0,test,2,E-
399.766921997,2,1000,1,1,2,5,3,1,4,0,0,250.0,test,2,E-
461.991071701,0,1000,4,1,2,5,3,1,4,0,0,250.0,test,0,E-
366.276979446,1,1000,2,1,2,5,3,1,4,0,0,250.0,test,1,E-
413.494825363,0,1000,4,1,2,5,3,1,4,0,0,250.0,test,0,E-
399.730920792,1,1000,2,1,2,5,3,1,4,0,0,250.0,test,1,E-
398.974895477,1,1000,2,1,2,5,3,1,4,0,0,250.0,test,1,E-
319.715023041,0,1000,4,1,2,5,3,1,4,0,0,250.0,test,0,E-
382.828950882,1,1000,2,1,2,5,3,1,4,0,0,250.0,test,1,E-
606.34803772,2,1000,1,1,2,5,3,1,4,0,0,250.0,test,2,E-
575.752019882,5,1000,0,0,2,5,3,1,4,0,0,250.0,test,3,E-
495.693922043,0,1000,4,1,2,5,3,1,4,0,0,250.0,test,0,E-
431.858062744,2,1000,1,1,2,5,3,1,4,0,0,250.0,test,2,E-
383.026123047,1,1000,2,1,2,5,3,1,4,0,0,250.0,test,1,E-
398.638010025,0,1000,4,1,2,5,3,1,4,0,0,250.0,test,0,E-
335.084915161,0,1000,4,1,2,5,3,1,4,0,0,250.0,test,0,E-
351.722955704,0,1000,4,1,2,5,3,1,4,0,0,250.0,test,0,E-
382.623910904,1,1000,2,1,2,5,3,1,4,0,0,250.0,test,1,E-
479.751110077,5,1000,0,0,2,5,3,1,4,0,0,250.0,test,3,E-
511.221170425,4,1000,5,1,2,5,3,1,4,0,0,250.0,test,4,E-
399.720907211,5,1000,0,1,2,5,3,1,4,0,0,250.0,test,5,E-
367.252826691,3,1000,3,1,2,5,3,1,4,0,0,250.0,test,3,E-
383.713006973,3,1000,3,1,2,5,3,1,4,0,0,250.0,test,3,E-
510.9770298,5,1000,0,1,2,5,3,1,4,0,0,250.0,test,5,E-
399.718046188,4,1000,5,1,2,5,3,1,4,0,0,250.0,test,4,E-
367.765188217,0,1000,4,0,2,5,3,1,4,0,0,250.0,test,3,E-
639.004945755,2,1000,1,1,2,5,3,1,4,0,0,250.0,test,2,E-
415.416002274,2,1000,1,1,2,5,3,1,4,0,0,250.0,test,2,E-
509.871959686,3,1000,3,1,2,5,3,1,4,0,0,250.0,test,3,E-
526.62396431,5,1000,0,1,2,5,3,1,4,0,0,250.0,test,5,E-
543.739080429,1,1000,2,1,2,5,3,1,4,0,0,250.0,test,1,E-
478.327035904,5,1000,0,1,2,5,3,1,4,0,0,250.0,test,5,E-
461.29488945,0,1000,4,1,2,5,3,1,4,0,0,250.0,test,0,E-
462.872982025,4,1000,5,1,2,5,3,1,4,0,0,250.0,test,4,E-
414.175033569,0,1000,4,1,2,5,3,1,4,0,0,250.0,test,0,E-
494.436979294,3,1000,3,1,2,5,3,1,4,0,0,250.0,test,3,E-
447.685956955,2,1000,1,1,2,5,3,1,4,0,0,250.0,test,2,E-
430.592060089,5,1000,0,1,2,5,3,1,4,0,0,250.0,test,5,E-
415.71521759,5,1000,0,1,2,5,3,1,4,0,0,250.0,test,5,E-
542.398929596,1,1000,2,1,2,5,3,1,4,0,0,250.0,test,1,E-
350.544929504,0,1000,4,1,2,5,3,1,4,0,0,250.0,test,0,E-
431.762933731,2,1000,1,1,2,5,3,1,4,0,0,250.0,test,2,E-
397.511005402,5,1000,0,1,2,5,3,1,4,0,0,250.0,test,5,E-
398.18406105,5,1000,0,1,2,5,3,1,4,0,0,250.0,test,5,E-
413.530826569,3,1000,3,1,2,5,3,1,4,0,0,250.0,test,3,E-
446.38299942,5,1000,0,1,2,5,3,1,4,0,0,250.0,test,5,E-
413.527011871,2,1000,1,0,2,5,3,1,4,0,0,250.0,test,3,E-
366.405010223,2,1000,1,1,2,5,3,1,4,0,0,250.0,test,2,E-
495.725154877,0,1000,4,1,2,5,3,1,4,0,0,250.0,test,0,E-
398.645162582,2,1000,1,1,2,5,3,1,4,0,0,250.0,test,2,E-
318.690061569,2,1000,1,1,2,5,3,1,4,0,0,250.0,test,2,E-
478.573083878,3,1000,3,1,2,5,3,1,4,0,0,250.0,test,3,E-
398.857831955,1,1000,2,1,2,5,3,1,4,0,0,250.0,test,1,E-
463.199138641,5,1000,0,1,2,5,3,1,4,0,0,250.0,test,5,E-
461.137056351,1,1000,2,1,2,5,3,1,4,0,0,250.0,test,1,E-
398.280143738,4,1000,5,1,2,5,3,1,4,0,0,250.0,test,4,E-
431.735038757,3,1000,3,1,2,5,3,1,4,0,0,250.0,test,3,E-
446.934938431,1,1000,2,1,2,5,3,1,4,0,0,250.0,test,1,E-
414.599180222,4,1000,5,1,2,5,3,1,4,0,0,250.0,test,4,E-
365.295886993,4,1000,5,1,2,5,3,1,4,0,0,250.0,test,4,E-
351.052999496,2,1000,1,0,2,5,3,1,4,0,0,250.0,test,3,E-
558.397054672,1,1000,2,1,2,5,3,1,4,0,0,250.0,test,1,E-
463.099956512,0,1000,4,1,2,5,3,1,4,0,0,250.0,test,0,E-
495.256900787,4,1000,5,1,2,5,3,1,4,0,0,250.0,test,4,E-
463.796854019,5,1000,0,1,2,5,3,1,4,0,0,250.0,test,5,E-
479.748010635,2,1000,1,1,2,5,3,1,4,0,0,250.0,test,2,E-
398.860931396,4,1000,5,1,2,5,3,1,4,0,0,250.0,test,4,E-
511.093139648,2,1000,1,1,2,5,3,1,4,0,0,250.0,test,2,E-
366.878032684,4,1000,5,1,2,5,3,1,4,0,0,250.0,test,4,E-
606.581926346,5,1000,0,1,2,5,3,1,4,0,0,250.0,test,5,E-
541.621923447,2,1000,1,1,2,5,3,1,4,0,0,250.0,test,2,E-
463.150024414,0,1000,4,1,2,5,3,1,4,0,0,250.0,test,0,E-
381.728887558,0,1000,4,1,2,5,3,1,4,0,0,250.0,test,0,E-
430.953025818,5,1000,0,1,2,5,3,1,4,0,0,250.0,test,5,E-
446.027994156,2,1000,1,0,2,5,3,1,4,0,0,250.0,test,1,E-
509.446144104,4,1000,5,1,2,5,3,1,4,0,0,250.0,test,4,E-
351.014137268,4,1000,5,1,2,5,3,1,4,0,0,250.0,test,4,E-
509.351968765,5,1000,0,1,2,5,3,1,4,0,0,250.0,test,5,E-
445.436000824,3,1000,3,1,2,5,3,1,4,0,0,250.0,test,3,E-
703.129053116,2,1000,1,1,2,5,3,1,4,0,0,250.0,test,2,E-
510.517835617,4,1000,5,1,2,5,3,1,4,0,0,250.0,test,4,E-
685.818910599,1,1000,2,1,2,5,3,1,4,0,0,250.0,test,1,E-
462.623119354,4,1000,5,1,2,5,3,1,4,0,0,250.0,test,4,E-
462.870121002,0,1000,4,1,2,5,3,1,4,0,0,250.0,test,0,E-
383.718013763,2,1000,1,1,2,5,3,1,4,0,0,250.0,test,2,E-
416.036844254,2,1000,1,1,2,5,3,1,4,0,0,250.0,test,2,E-
734.555959702,3,1000,3,1,2,5,3,1,4,0,0,250.0,test,3,E-
431.027889252,1,1000,2,1,2,5,3,1,4,0,0,250.0,test,1,E-
431.727170944,3,1000,3,1,2,5,3,1,4,0,0,250.0,test,3,E-
463.078975677,5,1000,0,1,2,5,3,1,4,0,0,250.0,test,5,E-
366.874933243,3,1000,3,1,2,5,3,1,4,0,0,250.0,test,3,E-
367.761135101,3,1000,3,1,2,5,3,1,4,0,0,250.0,test,3,E-
287.748098373,3,1000,3,1,2,5,3,1,4,0,0,250.0,test,3,E-
287.724971771,3,1000,3,1,2,5,3,1,4,0,0,250.0,test,3,E-
366.947174072,0,1000,4,0,2,5,3,1,4,0,0,250.0,test,2,E-
574.491977692,4,1000,5,1,2,5,3,1,4,0,0,250.0,test,4,E-
366.635084152,0,1000,4,1,2,5,3,1,4,0,0,250.0,test,0,E-
398.958921432,0,1000,4,1,2,5,3,1,4,0,0,250.0,test,0,E-
431.28991127,2,1000,1,1,2,5,3,1,4,0,0,250.0,test,2,E-
541.877985001,2,1000,1,1,2,5,3,1,4,0,0,250.0,test,2,E-
511.754989624,3,1000,3,1,2,5,3,1,4,0,0,250.0,test,3,E-
430.825948715,5,1000,0,1,2,5,3,1,4,0,0,250.0,test,5,E-
479.717969894,2,1000,1,1,2,5,3,1,4,0,0,250.0,test,2,E-
479.665994644,3,1000,3,1,2,5,3,1,4,0,0,250.0,test,3,E-
767.725944519,5,1000,0,1,2,5,3,1,4,0,0,250.0,test,5,E-
398.901939392,3,1000,3,1,2,5,3,1,4,0,0,250.0,test,3,E-
383.723020554,1,1000,2,1,2,5,3,1,4,0,0,250.0,test,1,E-
399.451971054,5,1000,0,1,2,5,3,1,4,0,0,250.0,test,5,E-
335.036039352,3,1000,3,1,2,5,3,1,4,0,0,250.0,test,3,E-
335.384130478,3,1000,3,1,2,5,3,1,4,0,0,250.0,test,3,E-
399.769067764,4,1000,5,1,2,5,3,1,4,0,0,250.0,test,4,E-
463.305950165,0,1000,4,1,2,5,3,1,4,0,0,250.0,test,0,E-
383.730888367,1,1000,2,1,2,5,3,1,4,0,0,250.0,test,1,E-
431.738138199,3,1000,3,1,2,5,3,1,4,0,0,250.0,test,3,E-
335.186958313,4,1000,5,1,2,5,3,1,4,0,0,250.0,test,4,E-
365.170001984,3,1000,3,1,2,5,3,1,4,0,0,250.0,test,3,E-
383.463144302,0,1000,4,1,2,5,3,1,4,0,0,250.0,test,0,E-
334.37204361,2,1000,1,0,2,5,3,1,4,0,0,250.0,test,4,E-
479.733943939,1,1000,2,1,2,5,3,1,4,0,0,250.0,test,1,E-
415.735006332,0,1000,4,1,2,5,3,1,4,0,0,250.0,test,0,E-
382.59601593,0,1000,4,1,2,5,3,1,4,0,0,250.0,test,0,E-
414.888858795,1,1000,2,1,2,5,3,1,4,0,0,250.0,test,1,E-
319.740056992,2,1000,1,1,2,5,3,1,4,0,0,250.0,test,2,E-
382.817983627,1,1000,2,0,2,5,3,1,4,0,0,250.0,test,0,E-
477.410078049,2,1000,1,1,2,5,3,1,4,0,0,250.0,test,2,E-
733.273029327,5,1000,0,1,2,5,3,1,4,0,0,250.0,test,5,E-
382.259130478,5,1000,0,1,2,5,3,1,4,0,0,250.0,test,5,E-
413.667917252,2,1000,1,0,2,5,3,1,4,0,0,250.0,test,3,E-
479.541063309,4,1000,5,1,2,5,3,1,4,0,0,250.0,test,4,E-
510.450124741,4,1000,5,1,2,5,3,1,4,0,0,250.0,test,4,E-
414.99209404,0,1000,4,1,2,5,3,1,4,0,0,250.0,test,0,E-
446.896076202,2,1000,1,1,2,5,3,1,4,0,0,250.0,test,2,E-
494.872093201,4,1000,5,1,2,5,3,1,4,0,0,250.0,test,4,E-
431.677103043,5,1000,0,1,2,5,3,1,4,0,0,250.0,test,5,E-
446.465969086,1,1000,2,1,2,5,3,1,4,0,0,250.0,test,1,E-
430.556058884,5,1000,0,1,2,5,3,1,4,0,0,250.0,test,5,E-
462.90397644,4,1000,5,1,2,5,3,1,4,0,0,250.0,test,4,E-
382.251977921,0,1000,4,1,2,5,3,1,4,0,0,250.0,test,0,E-
447.686910629,3,1000,3,1,2,5,3,1,4,0,0,250.0,test,3,E-
397.81498909,4,1000,5,1,2,5,3,1,4,0,0,250.0,test,4,E-
446.948051453,0,1000,4,1,2,5,3,1,4,0,0,250.0,test,0,E-
399.389028549,0,1000,4,1,2,5,3,1,4,0,0,250.0,test,0,E-
447.654008865,4,1000,5,1,2,5,3,1,4,0,0,250.0,test,4,E-
415.040969849,4,1000,5,1,2,5,3,1,4,0,0,250.0,test,4,E-
367.667913437,0,1000,4,0,2,5,3,1,4,0,0,250.0,test,3,E-
463.732004166,1,1000,2,1,2,5,3,1,4,0,0,250.0,test,1,E-
510.330915451,1,1000,2,1,2,5,3,1,4,0,0,250.0,test,1,E-
398.641109467,2,1000,1,1,2,5,3,1,4,0,0,250.0,test,2,E-
383.502960205,3,1000,3,1,2,5,3,1,4,0,0,250.0,test,3,E-
398.69594574,5,1000,0,1,2,5,3,1,4,0,0,250.0,test,5,E-
350.639820099,0,1000,4,1,2,5,3,1,4,0,0,250.0,test,0,E-
319.678068161,1,1000,2,1,2,5,3,1,4,0,0,250.0,test,1,E-
351.509809494,2,1000,1,1,2,5,3,1,4,0,0,250.0,test,2,E-
447.710037231,4,1000,5,1,2,5,3,1,4,0,0,250.0,test,4,E-
350.959062576,1,1000,2,0,2,5,3,1,4,0,0,250.0,test,3,E-
574.895143509,3,1000,3,1,2,5,3,1,4,0,0,250.0,test,3,E-
399.652957916,5,1000,0,1,2,5,3,1,4,0,0,250.0,test,5,E-
397.958993912,3,1000,3,1,2,5,3,1,4,0,0,250.0,test,3,E-
334.60187912,4,1000,5,1,2,5,3,1,4,0,0,250.0,test,4,E-
493.719816208,1,1000,2,0,2,5,3,1,4,0,0,250.0,test,0,E-
494.127035141,4,1000,5,1,2,5,3,1,4,0,0,250.0,test,4,E-
463.019132614,1,1000,2,1,2,5,3,1,4,0,0,250.0,test,1,E-
414.834022522,3,1000,3,0,2,5,3,1,4,0,0,250.0,test,4,E-
479.70199585,5,1000,0,1,2,5,3,1,4,0,0,250.0,test,5,E-
462.583065033,2,1000,1,0,2,5,3,1,4,0,0,250.0,test,3,E-
495.744943619,5,1000,0,1,2,5,3,1,4,0,0,250.0,test,5,E-
431.69593811,5,1000,0,1,2,5,3,1,4,0,0,250.0,test,5,E-
431.225061417,5,1000,0,1,2,5,3,1,4,0,0,250.0,test,5,E-
350.524902344,5,1000,0,1,2,5,3,1,4,0,0,250.0,test,5,E-
463.741064072,3,1000,3,1,2,5,3,1,4,0,0,250.0,test,3,E-
447.010993958,0,1000,4,1,2,5,3,1,4,0,0,250.0,test,0,E-
463.706016541,3,1000,3,1,2,5,3,1,4,0,0,250.0,test,3,E-
431.530952454,0,1000,4,1,2,5,3,1,4,0,0,250.0,test,0,E-
414.988040924,0,1000,4,1,2,5,3,1,4,0,0,250.0,test,0,E-
399.679899216,0,1000,4,1,2,5,3,1,4,0,0,250.0,test,0,E-
381.725072861,1,1000,2,1,2,5,3,1,4,0,0,250.0,test,1,E-
398.890972137,5,1000,0,1,2,5,3,1,4,0,0,250.0,test,5,E-
381.968975067,0,1000,4,1,2,5,3,1,4,0,0,250.0,test,0,E-
446.913003922,4,1000,5,1,2,5,3,1,4,0,0,250.0,test,4,E-
383.02898407,1,1000,2,0,2,5,3,1,4,0,0,250.0,test,0,E-
815.684080124,2,1000,1,0,2,5,3,1,4,0,0,250.0,test,3,E-
495.59211731,0,1000,4,1,2,5,3,1,4,0,0,250.0,test,0,E-
430.478096008,2,1000,1,1,2,5,3,1,4,0,0,250.0,test,2,E-
431.632995605,5,1000,0,1,2,5,3,1,4,0,0,250.0,test,5,E-
367.077112198,1,1000,2,1,2,5,3,1,4,0,0,250.0,test,1,E-
479.657888412,5,1000,0,1,2,5,3,1,4,0,0,250.0,test,5,E-
462.646961212,1,1000,2,1,2,5,3,1,4,0,0,250.0,test,1,E-
367.206096649,0,1000,4,1,2,5,3,1,4,0,0,250.0,test,0,E-
398.874998093,0,1000,4,1,2,5,3,1,4,0,0,250.0,test,0,E-
542.761087418,5,1000,0,1,2,5,3,1,4,0,0,250.0,test,5,E-
527.700901031,2,1000,1,1,2,5,3,1,4,0,0,250.0,test,2,E-
430.952072144,3,1000,3,1,2,5,3,1,4,0,0,250.0,test,3,E-
366.400003433,1,1000,2,1,2,5,3,1,4,0,0,250.0,test,1,E-
463.729858398,3,1000,3,1,2,5,3,1,4,0,0,250.0,test,3,E-
399.164915085,0,1000,4,1,2,5,3,1,4,0,0,250.0,test,0,E-
414.98708725,2,1000,1,1,2,5,3,1,4,0,0,250.0,test,2,E-
367.674827576,2,1000,1,1,2,5,3,1,4,0,0,250.0,test,2,E-
382.956027985,0,1000,4,1,2,5,3,1,4,0,0,250.0,test,0,E-
366.505861282,4,1000,5,1,2,5,3,1,4,0,0,250.0,test,4,E-
414.969921112,2,1000,1,1,2,5,3,1,4,0,0,250.0,test,2,E-
383.65316391,3,1000,3,1,2,5,3,1,4,0,0,250.0,test,3,E-
414.877891541,3,1000,3,1,2,5,3,1,4,0,0,250.0,test,3,E-
478.55591774,0,1000,4,1,2,5,3,1,4,0,0,250.0,test,0,E-
302.394151688,3,1000,3,1,2,5,3,1,4,0,0,250.0,test,3,E-
494.170188904,2,1000,1,1,2,5,3,1,4,0,0,250.0,test,2,E-
366.557121277,0,1000,4,1,2,5,3,1,4,0,0,250.0,test,0,E-
414.957046509,1,1000,2,1,2,5,3,1,4,0,0,250.0,test,1,E-
350.362062454,1,1000,2,1,2,5,3,1,4,0,0,250.0,test,1,E-
366.654872894,1,1000,2,1,2,5,3,1,4,0,0,250.0,test,1,E-
398.8468647,3,1000,3,0,2,5,3,1,4,0,0,250.0,test,2,E-
511.273860931,1,1000,2,1,2,5,3,1,4,0,0,250.0,test,1,E-
399.703979492,4,1000,5,1,2,5,3,1,4,0,0,250.0,test,4,E-
511.748075485,1,1000,2,1,2,5,3,1,4,0,0,250.0,test,1,E-
399.688005447,2,1000,1,1,2,5,3,1,4,0,0,250.0,test,2,E-
430.047988892,0,1000,4,1,2,5,3,1,4,0,0,250.0,test,0,E-
399.580001831,2,1000,1,1,2,5,3,1,4,0,0,250.0,test,2,E-
415.00210762,3,1000,3,1,2,5,3,1,4,0,0,250.0,test,3,E-
334.824800491,3,1000,3,1,2,5,3,1,4,0,0,250.0,test,3,E-
367.735147476,4,1000,5,1,2,5,3,1,4,0,0,250.0,test,4,E-
558.710098267,5,1000,0,1,2,5,3,1,4,0,0,250.0,test,5,E-
670.41015625,0,1000,4,1,2,5,3,1,4,0,0,250.0,test,0,E-
447.709083557,2,1000,1,0,2,5,3,1,4,0,0,250.0,test,3,E-
494.343996048,2,1000,1,1,2,5,3,1,4,0,0,250.0,test,2,E-
415.102005005,3,1000,3,1,2,5,3,1,4,0,0,250.0,test,3,E-
351.741790771,4,1000,5,1,2,5,3,1,4,0,0,250.0,test,4,E-
446.157932281,0,1000,4,1,2,5,3,1,4,0,0,250.0,test,0,E-
382.946014404,0,1000,4,1,2,5,3,1,4,0,0,250.0,test,0,E-
495.750904083,3,1000,3,1,2,5,3,1,4,0,0,250.0,test,3,E-
366.510152817,4,1000,5,1,2,5,3,1,4,0,0,250.0,test,4,E-
431.751012802,3,1000,3,1,2,5,3,1,4,0,0,250.0,test,3,E-
382.925987244,5,1000,0,1,2,5,3,1,4,0,0,250.0,test,5,E-
335.073947906,5,1000,0,1,2,5,3,1,4,0,0,250.0,test,5,E-
367.637872696,4,1000,5,1,2,5,3,1,4,0,0,250.0,test,4,E-
367.730140686,1,1000,2,1,2,5,3,1,4,0,0,250.0,test,1,E-
351.74202919,1,1000,2,1,2,5,3,1,4,0,0,250.0,test,1,E-
527.722120285,2,1000,1,1,2,5,3,1,4,0,0,250.0,test,2,E-
382.931947708,1,1000,2,1,2,5,3,1,4,0,0,250.0,test,1,E-
399.686098099,0,1000,4,1,2,5,3,1,4,0,0,250.0,test,0,E-
447.602987289,5,1000,0,1,2,5,3,1,4,0,0,250.0,test,5,E-
415.721893311,5,1000,0,1,2,5,3,1,4,0,0,250.0,test,5,E-
