RT,correct_response,ms-prestimblank,curstim,correct,SRmap_1,SRmap_0,SRmap_3,SRmap_2,SRmap_5,SRmap_4,ms-precue,ntrials,type,response,condition
6110.24999619,5,600,3,1,4,3,5,0,1,2,400,250.0,train,5,E+
1582.41891861,1,600,5,1,4,3,5,0,1,2,400,250.0,train,1,E+
605.912923813,0,600,2,1,4,3,5,0,1,2,400,250.0,train,0,E+
526.453018188,3,600,0,0,4,3,5,0,1,2,400,250.0,train,4,E+
1439.02397156,1,600,5,1,4,3,5,0,1,2,400,250.0,train,1,E+
270.224094391,5,600,3,1,4,3,5,0,1,2,400,250.0,train,5,E+
239.010810852,5,600,3,1,4,3,5,0,1,2,400,250.0,train,5,E+
286.460876465,1,600,5,1,4,3,5,0,1,2,400,250.0,train,1,E+
303.05314064,4,600,1,1,4,3,5,0,1,2,400,250.0,train,4,E+
253.508090973,1,600,5,1,4,3,5,0,1,2,400,250.0,train,1,E+
686.66100502,5,600,3,1,4,3,5,0,1,2,400,250.0,train,5,E+
334.753990173,2,600,4,1,4,3,5,0,1,2,400,250.0,train,2,E+
125.694990158,0,600,2,1,4,3,5,0,1,2,400,250.0,train,0,E+
223.555088043,2,600,4,1,4,3,5,0,1,2,400,250.0,train,2,E+
463.522911072,4,600,1,0,4,3,5,0,1,2,400,250.0,train,3,E+
238.27791214,2,600,4,1,4,3,5,0,1,2,400,250.0,train,2,E+
142.374038696,4,600,1,0,4,3,5,0,1,2,400,250.0,train,3,E+
286.430120468,0,600,2,1,4,3,5,0,1,2,400,250.0,train,0,E+
173.963069916,0,600,2,1,4,3,5,0,1,2,400,250.0,train,0,E+
253.945827484,1,600,5,1,4,3,5,0,1,2,400,250.0,train,1,E+
174.15189743,2,600,4,1,4,3,5,0,1,2,400,250.0,train,2,E+
62.1628761292,0,600,2,1,4,3,5,0,1,2,400,250.0,train,0,E+
399.274110794,4,600,1,1,4,3,5,0,1,2,400,250.0,train,4,E+
62.2460842133,0,600,2,1,4,3,5,0,1,2,400,250.0,train,0,E+
350.454092026,3,600,0,1,4,3,5,0,1,2,400,250.0,train,3,E+
111.130952835,5,600,3,1,4,3,5,0,1,2,400,250.0,train,5,E+
1102.38790512,5,600,3,1,4,3,5,0,1,2,400,250.0,train,5,E+
222.367048264,4,600,1,1,4,3,5,0,1,2,400,250.0,train,4,E+
110.069990158,0,600,2,1,4,3,5,0,1,2,400,250.0,train,0,E+
206.429958344,4,600,1,1,4,3,5,0,1,2,400,250.0,train,4,E+
110.447883606,4,600,1,1,4,3,5,0,1,2,400,250.0,train,4,E+
142.157077789,0,600,2,1,4,3,5,0,1,2,400,250.0,train,0,E+
207.459926605,2,600,4,1,4,3,5,0,1,2,400,250.0,train,2,E+
142.950057983,0,600,2,1,4,3,5,0,1,2,400,250.0,train,0,E+
446.012020111,3,600,0,1,4,3,5,0,1,2,400,250.0,train,3,E+
158.782958984,5,600,3,1,4,3,5,0,1,2,400,250.0,train,5,E+
237.778186798,5,600,3,1,4,3,5,0,1,2,400,250.0,train,5,E+
542.457103729,2,600,4,0,4,3,5,0,1,2,400,250.0,train,3,E+
173.923969269,5,600,3,1,4,3,5,0,1,2,400,250.0,train,5,E+
367.001056671,4,600,1,1,4,3,5,0,1,2,400,250.0,train,4,E+
174.157857895,5,600,3,1,4,3,5,0,1,2,400,250.0,train,5,E+
446.995973587,3,600,0,1,4,3,5,0,1,2,400,250.0,train,3,E+
382.120132446,1,600,5,1,4,3,5,0,1,2,400,250.0,train,1,E+
174.337148666,1,600,5,1,4,3,5,0,1,2,400,250.0,train,1,E+
286.443948746,2,600,4,1,4,3,5,0,1,2,400,250.0,train,2,E+
686.104059219,3,600,0,1,4,3,5,0,1,2,400,250.0,train,3,E+
334.184169769,2,600,4,1,4,3,5,0,1,2,400,250.0,train,2,E+
174.427032471,1,600,5,1,4,3,5,0,1,2,400,250.0,train,1,E+
110.146045685,1,600,5,1,4,3,5,0,1,2,400,250.0,train,1,E+
30.3258895874,1,600,5,1,4,3,5,0,1,2,400,250.0,train,1,E+
206.614017487,3,600,0,0,4,3,5,0,1,2,400,250.0,train,4,E+
109.810113907,4,600,1,1,4,3,5,0,1,2,400,250.0,train,4,E+
174.721956253,4,600,1,1,4,3,5,0,1,2,400,250.0,train,4,E+
95.4329967499,1,600,5,1,4,3,5,0,1,2,400,250.0,train,1,E+
367.542028427,3,600,0,0,4,3,5,0,1,2,400,250.0,train,4,E+
190.243959427,0,600,2,1,4,3,5,0,1,2,400,250.0,train,0,E+
95.0691699982,1,600,5,1,4,3,5,0,1,2,400,250.0,train,1,E+
127.673864365,0,600,2,1,4,3,5,0,1,2,400,250.0,train,0,E+
238.780021667,2,600,4,1,4,3,5,0,1,2,400,250.0,train,2,E+
223.059892654,1,600,5,1,4,3,5,0,1,2,400,250.0,train,1,E+
63.4710788727,0,600,2,1,4,3,5,0,1,2,400,250.0,train,0,E+
271.462917328,0,600,2,1,4,3,5,0,1,2,400,250.0,train,0,E+
158.705949783,1,600,5,1,4,3,5,0,1,2,400,250.0,train,1,E+
63.4558200836,1,600,5,1,4,3,5,0,1,2,400,250.0,train,1,E+
766.21389389,1,600,5,1,4,3,5,0,1,2,400,250.0,train,1,E+
158.080101013,0,600,2,1,4,3,5,0,1,2,400,250.0,train,0,E+
222.404003143,2,600,4,1,4,3,5,0,1,2,400,250.0,train,2,E+
591.432094574,1,600,5,1,4,3,5,0,1,2,400,250.0,train,1,E+
366.415023804,4,600,1,1,4,3,5,0,1,2,400,250.0,train,4,E+
126.315116882,5,600,3,1,4,3,5,0,1,2,400,250.0,train,5,E+
334.33508873,2,600,4,1,4,3,5,0,1,2,400,250.0,train,2,E+
174.139976501,5,600,3,1,4,3,5,0,1,2,400,250.0,train,5,E+
190.293073654,1,600,5,1,4,3,5,0,1,2,400,250.0,train,1,E+
270.524978638,1,600,5,1,4,3,5,0,1,2,400,250.0,train,1,E+
142.020940781,4,600,1,1,4,3,5,0,1,2,400,250.0,train,4,E+
142.422914505,2,600,4,1,4,3,5,0,1,2,400,250.0,train,2,E+
111.63187027,1,600,5,1,4,3,5,0,1,2,400,250.0,train,1,E+
239.530086517,4,600,1,1,4,3,5,0,1,2,400,250.0,train,4,E+
174.48592186,5,600,3,1,4,3,5,0,1,2,400,250.0,train,5,E+
206.215143204,3,600,0,0,4,3,5,0,1,2,400,250.0,train,2,E+
127.498149872,0,600,2,1,4,3,5,0,1,2,400,250.0,train,0,E+
95.2119827271,5,600,3,1,4,3,5,0,1,2,400,250.0,train,5,E+
431.171178818,2,600,4,1,4,3,5,0,1,2,400,250.0,train,2,E+
191.479921341,1,600,5,1,4,3,5,0,1,2,400,250.0,train,1,E+
143.465995789,0,600,2,1,4,3,5,0,1,2,400,250.0,train,0,E+
287.437915802,0,600,2,1,4,3,5,0,1,2,400,250.0,train,0,E+
0.0550746917725,0,600,2,1,4,3,5,0,1,2,400,250.0,train,0,E+
30.3959846497,1,600,5,1,4,3,5,0,1,2,400,250.0,train,1,E+
158.219099045,0,600,2,1,4,3,5,0,1,2,400,250.0,train,0,E+
254.445075989,3,600,0,1,4,3,5,0,1,2,400,250.0,train,3,E+
78.4652233124,2,600,4,1,4,3,5,0,1,2,400,250.0,train,2,E+
1614.4220829,3,600,0,1,4,3,5,0,1,2,400,250.0,train,3,E+
14.4159793854,1,600,5,1,4,3,5,0,1,2,400,250.0,train,1,E+
126.355886459,0,600,2,1,4,3,5,0,1,2,400,250.0,train,0,E+
0.0548362731934,1,600,5,1,4,3,5,0,1,2,400,250.0,train,1,E+
30.7269096375,4,600,1,1,4,3,5,0,1,2,400,250.0,train,4,E+
143.435001373,1,600,5,1,4,3,5,0,1,2,400,250.0,train,1,E+
126.098155975,0,600,2,1,4,3,5,0,1,2,400,250.0,train,0,E+
126.467943192,5,600,3,1,4,3,5,0,1,2,400,250.0,train,5,E+
190.644025803,4,600,1,1,4,3,5,0,1,2,400,250.0,train,4,E+
127.465963364,2,600,4,0,4,3,5,0,1,2,400,250.0,train,1,E+
175.434827805,5,600,3,1,4,3,5,0,1,2,400,250.0,train,5,E+
110.70394516,1,600,5,1,4,3,5,0,1,2,400,250.0,train,1,E+
62.2599124908,2,600,4,1,4,3,5,0,1,2,400,250.0,train,2,E+
95.4658985138,4,600,1,1,4,3,5,0,1,2,400,250.0,train,4,E+
95.5090522766,3,600,0,1,4,3,5,0,1,2,400,250.0,train,3,E+
0.0541210174561,4,600,1,1,4,3,5,0,1,2,400,250.0,train,4,E+
31.42786026,4,600,1,1,4,3,5,0,1,2,400,250.0,train,4,E+
846.513032913,4,600,1,1,4,3,5,0,1,2,400,250.0,train,4,E+
175.073862076,1,600,5,1,4,3,5,0,1,2,400,250.0,train,1,E+
141.878128052,4,600,1,1,4,3,5,0,1,2,400,250.0,train,4,E+
318.374156952,2,600,4,0,4,3,5,0,1,2,400,250.0,train,3,E+
95.03698349,0,600,2,1,4,3,5,0,1,2,400,250.0,train,0,E+
655.133008957,0,600,2,1,4,3,5,0,1,2,400,250.0,train,0,E+
126.573085785,5,600,3,1,4,3,5,0,1,2,400,250.0,train,5,E+
206.338882446,2,600,4,0,4,3,5,0,1,2,400,250.0,train,3,E+
189.925909042,3,600,0,1,4,3,5,0,1,2,400,250.0,train,3,E+
110.723018646,1,600,5,1,4,3,5,0,1,2,400,250.0,train,1,E+
141.849994659,1,600,5,1,4,3,5,0,1,2,400,250.0,train,1,E+
414.47687149,2,600,4,1,4,3,5,0,1,2,400,250.0,train,2,E+
0.053882598877,2,600,4,1,4,3,5,0,1,2,400,250.0,train,2,E+
158.186912537,5,600,3,1,4,3,5,0,1,2,400,250.0,train,5,E+
159.551858902,1,600,5,1,4,3,5,0,1,2,400,250.0,train,1,E+
110.319137573,1,600,5,0,4,3,5,0,1,2,400,250.0,train,2,E+
190.865039825,3,600,0,0,4,3,5,0,1,2,400,250.0,train,4,E+
398.498058319,2,600,4,0,4,3,5,0,1,2,400,250.0,train,1,E+
367.090940475,3,600,0,1,4,3,5,0,1,2,400,250.0,train,3,E+
318.438053131,4,600,1,1,4,3,5,0,1,2,400,250.0,train,4,E+
286.338090897,1,600,5,1,4,3,5,0,1,2,400,250.0,train,1,E+
159.505844116,0,600,2,1,4,3,5,0,1,2,400,250.0,train,0,E+
158.004999161,5,600,3,1,4,3,5,0,1,2,400,250.0,train,5,E+
254.42814827,2,600,4,1,4,3,5,0,1,2,400,250.0,train,2,E+
286.104202271,5,600,3,1,4,3,5,0,1,2,400,250.0,train,5,E+
478.415966034,4,600,1,1,4,3,5,0,1,2,400,250.0,train,4,E+
527.481079102,2,600,4,1,4,3,5,0,1,2,400,250.0,train,2,E+
335.579156876,3,600,0,1,4,3,5,0,1,2,400,250.0,train,3,E+
254.881858826,4,600,1,1,4,3,5,0,1,2,400,250.0,train,4,E+
287.523984909,2,600,4,1,4,3,5,0,1,2,400,250.0,train,2,E+
159.046173096,2,600,4,1,4,3,5,0,1,2,400,250.0,train,2,E+
190.445899963,3,600,0,0,4,3,5,0,1,2,400,250.0,train,4,E+
221.240997314,1,600,5,1,4,3,5,0,1,2,400,250.0,train,1,E+
158.707857132,2,600,4,1,4,3,5,0,1,2,400,250.0,train,2,E+
255.445957184,1,600,5,1,4,3,5,0,1,2,400,250.0,train,1,E+
542.469978333,4,600,1,1,4,3,5,0,1,2,400,250.0,train,4,E+
271.255970001,5,600,3,1,4,3,5,0,1,2,400,250.0,train,5,E+
606.365919113,4,600,1,1,4,3,5,0,1,2,400,250.0,train,4,E+
207.247018814,4,600,1,1,4,3,5,0,1,2,400,250.0,train,4,E+
126.349925995,3,600,0,1,4,3,5,0,1,2,400,250.0,train,3,E+
286.268949509,2,600,4,1,4,3,5,0,1,2,400,250.0,train,2,E+
223.160982132,4,600,1,1,4,3,5,0,1,2,400,250.0,train,4,E+
223.200082779,5,600,3,1,4,3,5,0,1,2,400,250.0,train,5,E+
159.535169601,4,600,1,1,4,3,5,0,1,2,400,250.0,train,4,E+
174.596071243,0,600,2,1,4,3,5,0,1,2,400,250.0,train,0,E+
494.483947754,3,600,0,1,4,3,5,0,1,2,400,250.0,train,3,E+
239.509105682,0,600,2,1,4,3,5,0,1,2,400,250.0,train,0,E+
383.577823639,5,600,3,1,4,3,5,0,1,2,400,250.0,train,5,E+
494.358062744,1,600,5,1,4,3,5,0,1,2,400,250.0,train,1,E+
302.248001099,4,600,1,1,4,3,5,0,1,2,400,250.0,train,4,E+
574.74398613,4,600,1,1,4,3,5,0,1,2,400,250.0,train,4,E+
398.475885391,1,600,5,1,4,3,5,0,1,2,400,250.0,train,1,E+
653.854846954,3,600,0,1,4,3,5,0,1,2,400,250.0,train,3,E+
287.474870682,2,600,4,1,4,3,5,0,1,2,400,250.0,train,2,E+
126.289844513,2,600,4,1,4,3,5,0,1,2,400,250.0,train,2,E+
159.548997879,0,600,2,1,4,3,5,0,1,2,400,250.0,train,0,E+
431.488037109,5,600,3,1,4,3,5,0,1,2,400,250.0,train,5,E+
191.36595726,2,600,4,1,4,3,5,0,1,2,400,250.0,train,2,E+
191.446065903,3,600,0,0,4,3,5,0,1,2,400,250.0,train,4,E+
174.133062363,5,600,3,1,4,3,5,0,1,2,400,250.0,train,5,E+
303.541898727,1,600,5,1,4,3,5,0,1,2,400,250.0,train,1,E+
366.290092468,2,600,4,1,4,3,5,0,1,2,400,250.0,train,2,E+
62.5319480896,0,600,2,1,4,3,5,0,1,2,400,250.0,train,0,E+
94.3260192871,1,600,5,1,4,3,5,0,1,2,400,250.0,train,1,E+
223.515987396,2,600,4,1,4,3,5,0,1,2,400,250.0,train,2,E+
254.326105118,3,600,0,1,4,3,5,0,1,2,400,250.0,train,3,E+
158.433198929,5,600,3,1,4,3,5,0,1,2,400,250.0,train,5,E+
286.17310524,5,600,3,1,4,3,5,0,1,2,400,250.0,train,5,E+
270.231962204,1,600,5,1,4,3,5,0,1,2,400,250.0,train,1,E+
255.536079407,5,600,3,1,4,3,5,0,1,2,400,250.0,train,5,E+
399.497032166,4,600,1,1,4,3,5,0,1,2,400,250.0,train,4,E+
207.280874252,5,600,3,1,4,3,5,0,1,2,400,250.0,train,5,E+
302.983999252,2,600,4,0,4,3,5,0,1,2,400,250.0,train,3,E+
222.254037857,0,600,2,1,4,3,5,0,1,2,400,250.0,train,0,E+
317.91806221,4,600,1,1,4,3,5,0,1,2,400,250.0,train,4,E+
175.267219543,1,600,5,1,4,3,5,0,1,2,400,250.0,train,1,E+
159.149885178,5,600,3,1,4,3,5,0,1,2,400,250.0,train,5,E+
127.505064011,4,600,1,1,4,3,5,0,1,2,400,250.0,train,4,E+
110.325098038,5,600,3,1,4,3,5,0,1,2,400,250.0,train,5,E+
398.340940475,2,600,4,1,4,3,5,0,1,2,400,250.0,train,2,E+
126.24502182,5,600,3,1,4,3,5,0,1,2,400,250.0,train,5,E+
239.379882812,1,600,5,1,4,3,5,0,1,2,400,250.0,train,1,E+
270.503997803,5,600,3,1,4,3,5,0,1,2,400,250.0,train,5,E+
381.922960281,1,600,5,1,4,3,5,0,1,2,400,250.0,train,1,E+
270.370006561,2,600,4,1,4,3,5,0,1,2,400,250.0,train,2,E+
207.579851151,1,600,5,1,4,3,5,0,1,2,400,250.0,train,1,E+
175.499916077,2,600,4,1,4,3,5,0,1,2,400,250.0,train,2,E+
126.298904419,1,600,5,1,4,3,5,0,1,2,400,250.0,train,1,E+
238.246917725,3,600,0,1,4,3,5,0,1,2,400,250.0,train,3,E+
125.919818878,3,600,0,1,4,3,5,0,1,2,400,250.0,train,3,E+
206.408977509,2,600,4,0,4,3,5,0,1,2,400,250.0,train,1,E+
191.305875778,2,600,4,1,4,3,5,0,1,2,400,250.0,train,2,E+
45.961856842,1,600,5,1,4,3,5,0,1,2,400,250.0,train,1,E+
526.678085327,3,600,0,1,4,3,5,0,1,2,400,250.0,train,3,E+
174.012184143,0,600,2,1,4,3,5,0,1,2,400,250.0,train,0,E+
287.553071976,4,600,1,1,4,3,5,0,1,2,400,250.0,train,4,E+
110.314130783,5,600,3,1,4,3,5,0,1,2,400,250.0,train,5,E+
175.528049469,1,600,5,1,4,3,5,0,1,2,400,250.0,train,1,E+
222.107887268,4,600,1,1,4,3,5,0,1,2,400,250.0,train,4,E+
62.6580715179,1,600,5,1,4,3,5,0,1,2,400,250.0,train,1,E+
301.941871643,3,600,0,1,4,3,5,0,1,2,400,250.0,train,3,E+
174.454927444,4,600,1,1,4,3,5,0,1,2,400,250.0,train,4,E+
270.380973816,2,600,4,1,4,3,5,0,1,2,400,250.0,train,2,E+
254.510879517,0,600,2,1,4,3,5,0,1,2,400,250.0,train,0,E+
175.394058228,0,600,2,1,4,3,5,0,1,2,400,250.0,train,0,E+
271.499156952,2,600,4,1,4,3,5,0,1,2,400,250.0,train,2,E+
398.319959641,4,600,1,1,4,3,5,0,1,2,400,250.0,train,4,E+
110.311031342,4,600,1,1,4,3,5,0,1,2,400,250.0,train,4,E+
558.336019516,1,600,5,1,4,3,5,0,1,2,400,250.0,train,1,E+
526.360988617,1,600,5,1,4,3,5,0,1,2,400,250.0,train,1,E+
254.438877106,5,600,3,1,4,3,5,0,1,2,400,250.0,train,5,E+
670.301914215,4,600,1,1,4,3,5,0,1,2,400,250.0,train,4,E+
239.52794075,4,600,1,1,4,3,5,0,1,2,400,250.0,train,4,E+
542.321920395,1,600,5,1,4,3,5,0,1,2,400,250.0,train,1,E+
111.106157303,0,600,2,1,4,3,5,0,1,2,400,250.0,train,0,E+
270.33996582,4,600,1,1,4,3,5,0,1,2,400,250.0,train,4,E+
174.484014511,0,600,2,1,4,3,5,0,1,2,400,250.0,train,0,E+
79.5228481293,5,600,3,1,4,3,5,0,1,2,400,250.0,train,5,E+
383.420228958,3,600,0,1,4,3,5,0,1,2,400,250.0,train,3,E+
383.519172668,4,600,1,1,4,3,5,0,1,2,400,250.0,train,4,E+
270.298957825,4,600,1,1,4,3,5,0,1,2,400,250.0,train,4,E+
269.661903381,5,600,3,1,4,3,5,0,1,2,400,250.0,train,5,E+
399.514913559,3,600,0,1,4,3,5,0,1,2,400,250.0,train,3,E+
461.718082428,1,600,5,1,4,3,5,0,1,2,400,250.0,train,1,E+
350.260972977,3,600,0,1,4,3,5,0,1,2,400,250.0,train,3,E+
205.617904663,0,600,2,1,4,3,5,0,1,2,400,250.0,train,0,E+
446.398019791,2,600,4,1,4,3,5,0,1,2,400,250.0,train,2,E+
702.256917953,5,600,3,1,4,3,5,0,1,2,400,250.0,train,5,E+
111.311912537,1,600,5,1,4,3,5,0,1,2,400,250.0,train,1,E+
63.404083252,5,600,3,1,4,3,5,0,1,2,400,250.0,train,5,E+
78.705072403,5,600,3,1,4,3,5,0,1,2,400,250.0,train,5,E+
302.913188934,2,600,4,1,4,3,5,0,1,2,400,250.0,train,2,E+
47.4848747253,5,600,3,1,4,3,5,0,1,2,400,250.0,train,5,E+
239.113092422,3,600,0,1,4,3,5,0,1,2,400,250.0,train,3,E+
207.564115524,1,600,5,1,4,3,5,0,1,2,400,250.0,train,1,E+
141.954183578,1,600,5,1,4,3,5,0,1,2,400,250.0,train,1,E+
463.496923447,4,600,1,1,4,3,5,0,1,2,400,250.0,train,4,E+
205.956935883,5,600,3,1,4,3,5,0,1,2,400,250.0,train,5,E+
4895.34497261,2,600,4,1,4,3,5,0,1,2,400,250.0,train,2,E+
174.623012543,4,600,1,1,4,3,5,0,1,2,400,250.0,train,4,E+
207.520008087,3,600,0,1,4,3,5,0,1,2,400,250.0,train,3,E+
223.465919495,2,600,4,1,4,3,5,0,1,2,400,250.0,train,2,E+
942.19493866,1,1000,5,1,4,3,5,0,1,2,0,250.0,test,1,E+
814.826011658,4,1000,1,1,4,3,5,0,1,2,0,250.0,test,4,E+
527.119874954,4,1000,1,1,4,3,5,0,1,2,0,250.0,test,4,E+
781.111955643,2,1000,4,1,4,3,5,0,1,2,0,250.0,test,2,E+
637.778043747,5,1000,3,1,4,3,5,0,1,2,0,250.0,test,5,E+
813.832044601,2,1000,4,1,4,3,5,0,1,2,0,250.0,test,2,E+
525.015830994,2,1000,4,1,4,3,5,0,1,2,0,250.0,test,2,E+
606.696844101,4,1000,1,1,4,3,5,0,1,2,0,250.0,test,4,E+
798.492908478,3,1000,0,1,4,3,5,0,1,2,0,250.0,test,3,E+
638.381958008,2,1000,4,1,4,3,5,0,1,2,0,250.0,test,2,E+
702.861070633,4,1000,1,1,4,3,5,0,1,2,0,250.0,test,4,E+
574.331998825,4,1000,1,1,4,3,5,0,1,2,0,250.0,test,4,E+
877.185821533,0,1000,2,1,4,3,5,0,1,2,0,250.0,test,0,E+
1262.27784157,1,1000,5,1,4,3,5,0,1,2,0,250.0,test,1,E+
653.35392952,5,1000,3,1,4,3,5,0,1,2,0,250.0,test,5,E+
685.235977173,2,1000,4,1,4,3,5,0,1,2,0,250.0,test,2,E+
607.545137405,5,1000,3,1,4,3,5,0,1,2,0,250.0,test,5,E+
638.206005096,2,1000,4,1,4,3,5,0,1,2,0,250.0,test,2,E+
846.364974976,3,1000,0,1,4,3,5,0,1,2,0,250.0,test,3,E+
959.07998085,2,1000,4,1,4,3,5,0,1,2,0,250.0,test,2,E+
526.365995407,3,1000,0,1,4,3,5,0,1,2,0,250.0,test,3,E+
623.584985733,1,1000,5,1,4,3,5,0,1,2,0,250.0,test,1,E+
863.059043884,0,1000,2,1,4,3,5,0,1,2,0,250.0,test,0,E+
1182.61003494,1,1000,5,1,4,3,5,0,1,2,0,250.0,test,1,E+
639.075994492,0,1000,2,1,4,3,5,0,1,2,0,250.0,test,0,E+
543.003797531,4,1000,1,0,4,3,5,0,1,2,0,250.0,test,5,E+
557.055950165,5,1000,3,1,4,3,5,0,1,2,0,250.0,test,5,E+
591.584205627,3,1000,0,0,4,3,5,0,1,2,0,250.0,test,2,E+
574.25904274,5,1000,3,1,4,3,5,0,1,2,0,250.0,test,5,E+
702.311038971,0,1000,2,1,4,3,5,0,1,2,0,250.0,test,0,E+
558.522939682,0,1000,2,1,4,3,5,0,1,2,0,250.0,test,0,E+
685.902118683,3,1000,0,1,4,3,5,0,1,2,0,250.0,test,3,E+
462.523937225,3,1000,0,1,4,3,5,0,1,2,0,250.0,test,3,E+
493.287086487,1,1000,5,1,4,3,5,0,1,2,0,250.0,test,1,E+
510.16497612,3,1000,0,1,4,3,5,0,1,2,0,250.0,test,3,E+
670.325040817,4,1000,1,1,4,3,5,0,1,2,0,250.0,test,4,E+
557.478904724,5,1000,3,1,4,3,5,0,1,2,0,250.0,test,5,E+
527.528047562,0,1000,2,1,4,3,5,0,1,2,0,250.0,test,0,E+
781.222105026,3,1000,0,1,4,3,5,0,1,2,0,250.0,test,3,E+
735.517024994,3,1000,0,1,4,3,5,0,1,2,0,250.0,test,3,E+
541.959047318,1,1000,5,1,4,3,5,0,1,2,0,250.0,test,1,E+
590.495109558,0,1000,2,1,4,3,5,0,1,2,0,250.0,test,0,E+
1070.96886635,3,1000,0,1,4,3,5,0,1,2,0,250.0,test,3,E+
623.071908951,2,1000,4,1,4,3,5,0,1,2,0,250.0,test,2,E+
607.145786285,0,1000,2,1,4,3,5,0,1,2,0,250.0,test,0,E+
591.18103981,2,1000,4,1,4,3,5,0,1,2,0,250.0,test,2,E+
926.92399025,0,1000,2,1,4,3,5,0,1,2,0,250.0,test,0,E+
845.416069031,1,1000,5,1,4,3,5,0,1,2,0,250.0,test,1,E+
1437.15500832,3,1000,0,1,4,3,5,0,1,2,0,250.0,test,3,E+
606.98390007,1,1000,5,1,4,3,5,0,1,2,0,250.0,test,1,E+
606.50396347,2,1000,4,1,4,3,5,0,1,2,0,250.0,test,2,E+
669.527053833,2,1000,4,1,4,3,5,0,1,2,0,250.0,test,2,E+
719.63095665,1,1000,5,1,4,3,5,0,1,2,0,250.0,test,1,E+
509.850025177,5,1000,3,1,4,3,5,0,1,2,0,250.0,test,5,E+
510.44011116,0,1000,2,1,4,3,5,0,1,2,0,250.0,test,0,E+
719.62594986,2,1000,4,1,4,3,5,0,1,2,0,250.0,test,2,E+
4462.03804016,2,1000,4,1,4,3,5,0,1,2,0,250.0,test,2,E+
526.59702301,5,1000,3,1,4,3,5,0,1,2,0,250.0,test,5,E+
445.98698616,5,1000,3,1,4,3,5,0,1,2,0,250.0,test,5,E+
477.761983871,4,1000,1,1,4,3,5,0,1,2,0,250.0,test,4,E+
430.311918259,4,1000,1,1,4,3,5,0,1,2,0,250.0,test,4,E+
526.828050613,1,1000,5,1,4,3,5,0,1,2,0,250.0,test,1,E+
590.446949005,2,1000,4,1,4,3,5,0,1,2,0,250.0,test,2,E+
590.244054794,2,1000,4,0,4,3,5,0,1,2,0,250.0,test,3,E+
526.376008987,1,1000,5,1,4,3,5,0,1,2,0,250.0,test,1,E+
590.389966965,3,1000,0,0,4,3,5,0,1,2,0,250.0,test,4,E+
526.45111084,1,1000,5,1,4,3,5,0,1,2,0,250.0,test,1,E+
702.908992767,5,1000,3,1,4,3,5,0,1,2,0,250.0,test,5,E+
654.447078705,4,1000,1,1,4,3,5,0,1,2,0,250.0,test,4,E+
526.573896408,2,1000,4,0,4,3,5,0,1,2,0,250.0,test,3,E+
574.337005615,0,1000,2,1,4,3,5,0,1,2,0,250.0,test,0,E+
398.405075073,0,1000,2,1,4,3,5,0,1,2,0,250.0,test,0,E+
525.305986404,2,1000,4,1,4,3,5,0,1,2,0,250.0,test,2,E+
509.443998337,0,1000,2,1,4,3,5,0,1,2,0,250.0,test,0,E+
702.453136444,4,1000,1,1,4,3,5,0,1,2,0,250.0,test,4,E+
684.821128845,3,1000,0,1,4,3,5,0,1,2,0,250.0,test,3,E+
605.2069664,2,1000,4,1,4,3,5,0,1,2,0,250.0,test,2,E+
557.392120361,1,1000,5,1,4,3,5,0,1,2,0,250.0,test,1,E+
671.504020691,5,1000,3,1,4,3,5,0,1,2,0,250.0,test,5,E+
637.481927872,2,1000,4,1,4,3,5,0,1,2,0,250.0,test,2,E+
589.2329216,1,1000,5,1,4,3,5,0,1,2,0,250.0,test,1,E+
589.22791481,3,1000,0,1,4,3,5,0,1,2,0,250.0,test,3,E+
509.293079376,2,1000,4,1,4,3,5,0,1,2,0,250.0,test,2,E+
604.836940765,3,1000,0,1,4,3,5,0,1,2,0,250.0,test,3,E+
669.295072556,4,1000,1,0,4,3,5,0,1,2,0,250.0,test,3,E+
509.3729496,5,1000,3,1,4,3,5,0,1,2,0,250.0,test,5,E+
940.994024277,4,1000,1,1,4,3,5,0,1,2,0,250.0,test,4,E+
717.742919922,1,1000,5,1,4,3,5,0,1,2,0,250.0,test,1,E+
590.723991394,3,1000,0,0,4,3,5,0,1,2,0,250.0,test,2,E+
542.31095314,4,1000,1,1,4,3,5,0,1,2,0,250.0,test,4,E+
1054.76403236,0,1000,2,1,4,3,5,0,1,2,0,250.0,test,0,E+
622.452020645,5,1000,3,1,4,3,5,0,1,2,0,250.0,test,5,E+
526.371002197,0,1000,2,1,4,3,5,0,1,2,0,250.0,test,0,E+
991.080999374,2,1000,4,1,4,3,5,0,1,2,0,250.0,test,2,E+
542.244195938,1,1000,5,1,4,3,5,0,1,2,0,250.0,test,1,E+
622.340917587,0,1000,2,1,4,3,5,0,1,2,0,250.0,test,0,E+
654.115915298,2,1000,4,1,4,3,5,0,1,2,0,250.0,test,2,E+
446.990966797,2,1000,4,0,4,3,5,0,1,2,0,250.0,test,3,E+
686.2449646,2,1000,4,1,4,3,5,0,1,2,0,250.0,test,2,E+
620.222091675,2,1000,4,1,4,3,5,0,1,2,0,250.0,test,2,E+
606.385946274,2,1000,4,1,4,3,5,0,1,2,0,250.0,test,2,E+
557.869911194,5,1000,3,1,4,3,5,0,1,2,0,250.0,test,5,E+
3470.47615051,0,1000,2,1,4,3,5,0,1,2,0,250.0,test,0,E+
606.613874435,4,1000,1,1,4,3,5,0,1,2,0,250.0,test,4,E+
654.490947723,3,1000,0,1,4,3,5,0,1,2,0,250.0,test,3,E+
573.068141937,4,1000,1,1,4,3,5,0,1,2,0,250.0,test,4,E+
526.370048523,1,1000,5,1,4,3,5,0,1,2,0,250.0,test,1,E+
687.164068222,1,1000,5,1,4,3,5,0,1,2,0,250.0,test,1,E+
606.479883194,2,1000,4,1,4,3,5,0,1,2,0,250.0,test,2,E+
621.633052826,3,1000,0,1,4,3,5,0,1,2,0,250.0,test,3,E+
446.557044983,0,1000,2,1,4,3,5,0,1,2,0,250.0,test,0,E+
446.547031403,0,1000,2,1,4,3,5,0,1,2,0,250.0,test,0,E+
494.230985641,1,1000,5,1,4,3,5,0,1,2,0,250.0,test,1,E+
590.279102325,3,1000,0,1,4,3,5,0,1,2,0,250.0,test,3,E+
509.951114655,4,1000,1,1,4,3,5,0,1,2,0,250.0,test,4,E+
478.276968002,4,1000,1,1,4,3,5,0,1,2,0,250.0,test,4,E+
574.192047119,0,1000,2,1,4,3,5,0,1,2,0,250.0,test,0,E+
719.567060471,0,1000,2,1,4,3,5,0,1,2,0,250.0,test,0,E+
1294.31796074,4,1000,1,1,4,3,5,0,1,2,0,250.0,test,4,E+
637.077093124,1,1000,5,1,4,3,5,0,1,2,0,250.0,test,1,E+
573.024988174,4,1000,1,1,4,3,5,0,1,2,0,250.0,test,4,E+
718.330860138,2,1000,4,1,4,3,5,0,1,2,0,250.0,test,2,E+
558.36391449,2,1000,4,1,4,3,5,0,1,2,0,250.0,test,2,E+
573.42505455,1,1000,5,1,4,3,5,0,1,2,0,250.0,test,1,E+
733.458042145,4,1000,1,1,4,3,5,0,1,2,0,250.0,test,4,E+
670.500993729,2,1000,4,0,4,3,5,0,1,2,0,250.0,test,1,E+
590.395927429,3,1000,0,1,4,3,5,0,1,2,0,250.0,test,3,E+
542.064905167,1,1000,5,1,4,3,5,0,1,2,0,250.0,test,1,E+
990.344047546,0,1000,2,1,4,3,5,0,1,2,0,250.0,test,0,E+
526.327133179,1,1000,5,1,4,3,5,0,1,2,0,250.0,test,1,E+
591.114044189,4,1000,1,1,4,3,5,0,1,2,0,250.0,test,4,E+
446.384906769,0,1000,2,0,4,3,5,0,1,2,0,250.0,test,3,E+
430.254936218,0,1000,2,1,4,3,5,0,1,2,0,250.0,test,0,E+
670.161962509,2,1000,4,1,4,3,5,0,1,2,0,250.0,test,2,E+
686.475992203,3,1000,0,1,4,3,5,0,1,2,0,250.0,test,3,E+
877.943992615,0,1000,2,1,4,3,5,0,1,2,0,250.0,test,0,E+
493.207931519,5,1000,3,1,4,3,5,0,1,2,0,250.0,test,5,E+
703.253984451,1,1000,5,1,4,3,5,0,1,2,0,250.0,test,1,E+
589.486837387,0,1000,2,0,4,3,5,0,1,2,0,250.0,test,1,E+
766.699075699,3,1000,0,1,4,3,5,0,1,2,0,250.0,test,3,E+
526.576042175,3,1000,0,1,4,3,5,0,1,2,0,250.0,test,3,E+
542.428970337,5,1000,3,1,4,3,5,0,1,2,0,250.0,test,5,E+
606.426954269,5,1000,3,1,4,3,5,0,1,2,0,250.0,test,5,E+
686.39588356,2,1000,4,1,4,3,5,0,1,2,0,250.0,test,2,E+
621.379137039,0,1000,2,1,4,3,5,0,1,2,0,250.0,test,0,E+
494.159221649,5,1000,3,1,4,3,5,0,1,2,0,250.0,test,5,E+
494.228839874,1,1000,5,1,4,3,5,0,1,2,0,250.0,test,1,E+
589.317083359,2,1000,4,1,4,3,5,0,1,2,0,250.0,test,2,E+
861.160993576,4,1000,1,1,4,3,5,0,1,2,0,250.0,test,4,E+
573.781967163,5,1000,3,1,4,3,5,0,1,2,0,250.0,test,5,E+
525.31504631,5,1000,3,1,4,3,5,0,1,2,0,250.0,test,5,E+
653.343915939,1,1000,5,1,4,3,5,0,1,2,0,250.0,test,1,E+
622.112035751,5,1000,3,1,4,3,5,0,1,2,0,250.0,test,5,E+
1069.27704811,0,1000,2,0,4,3,5,0,1,2,0,250.0,test,3,E+
462.138175964,5,1000,3,1,4,3,5,0,1,2,0,250.0,test,5,E+
669.21210289,3,1000,0,0,4,3,5,0,1,2,0,250.0,test,4,E+
734.972000122,2,1000,4,0,4,3,5,0,1,2,0,250.0,test,3,E+
573.298931122,2,1000,4,0,4,3,5,0,1,2,0,250.0,test,1,E+
735.561132431,4,1000,1,1,4,3,5,0,1,2,0,250.0,test,4,E+
958.711862564,5,1000,3,1,4,3,5,0,1,2,0,250.0,test,5,E+
974.417924881,2,1000,4,1,4,3,5,0,1,2,0,250.0,test,2,E+
542.527198792,2,1000,4,1,4,3,5,0,1,2,0,250.0,test,2,E+
1278.37014198,5,1000,3,1,4,3,5,0,1,2,0,250.0,test,5,E+
1054.10194397,3,1000,0,1,4,3,5,0,1,2,0,250.0,test,3,E+
622.466087341,1,1000,5,1,4,3,5,0,1,2,0,250.0,test,1,E+
749.27687645,2,1000,4,1,4,3,5,0,1,2,0,250.0,test,2,E+
654.461145401,0,1000,2,1,4,3,5,0,1,2,0,250.0,test,0,E+
1325.05893707,2,1000,4,1,4,3,5,0,1,2,0,250.0,test,2,E+
926.571846008,4,1000,1,1,4,3,5,0,1,2,0,250.0,test,4,E+
895.109176636,3,1000,0,1,4,3,5,0,1,2,0,250.0,test,3,E+
590.528011322,0,1000,2,1,4,3,5,0,1,2,0,250.0,test,0,E+
718.851089478,3,1000,0,1,4,3,5,0,1,2,0,250.0,test,3,E+
734.442949295,1,1000,5,0,4,3,5,0,1,2,0,250.0,test,5,E+
622.112035751,2,1000,4,1,4,3,5,0,1,2,0,250.0,test,2,E+
590.924024582,4,1000,1,1,4,3,5,0,1,2,0,250.0,test,4,E+
622.2178936,2,1000,4,1,4,3,5,0,1,2,0,250.0,test,2,E+
557.840108871,4,1000,1,1,4,3,5,0,1,2,0,250.0,test,4,E+
526.497125626,5,1000,3,1,4,3,5,0,1,2,0,250.0,test,5,E+
654.335975647,4,1000,1,1,4,3,5,0,1,2,0,250.0,test,4,E+
574.944019318,5,1000,3,1,4,3,5,0,1,2,0,250.0,test,5,E+
685.058116913,3,1000,0,1,4,3,5,0,1,2,0,250.0,test,3,E+
605.365991592,4,1000,1,1,4,3,5,0,1,2,0,250.0,test,4,E+
909.399986267,0,1000,2,1,4,3,5,0,1,2,0,250.0,test,0,E+
541.255950928,1,1000,5,1,4,3,5,0,1,2,0,250.0,test,1,E+
909.290075302,0,1000,2,0,4,3,5,0,1,2,0,250.0,test,2,E+
621.79517746,0,1000,2,1,4,3,5,0,1,2,0,250.0,test,0,E+
477.089881897,5,1000,3,1,4,3,5,0,1,2,0,250.0,test,5,E+
510.847091675,0,1000,2,1,4,3,5,0,1,2,0,250.0,test,0,E+
669.465065002,3,1000,0,1,4,3,5,0,1,2,0,250.0,test,3,E+
511.260032654,4,1000,1,1,4,3,5,0,1,2,0,250.0,test,4,E+
623.135089874,0,1000,2,0,4,3,5,0,1,2,0,250.0,test,3,E+
830.800056458,2,1000,4,1,4,3,5,0,1,2,0,250.0,test,2,E+
604.950904846,1,1000,5,1,4,3,5,0,1,2,0,250.0,test,1,E+
669.050931931,5,1000,3,1,4,3,5,0,1,2,0,250.0,test,5,E+
1517.35210419,5,1000,3,1,4,3,5,0,1,2,0,250.0,test,5,E+
733.294010162,2,1000,4,1,4,3,5,0,1,2,0,250.0,test,2,E+
622.348070145,3,1000,0,1,4,3,5,0,1,2,0,250.0,test,3,E+
782.800912857,3,1000,0,1,4,3,5,0,1,2,0,250.0,test,3,E+
605.278968811,4,1000,1,1,4,3,5,0,1,2,0,250.0,test,4,E+
590.943098068,0,1000,2,1,4,3,5,0,1,2,0,250.0,test,0,E+
654.671907425,4,1000,1,1,4,3,5,0,1,2,0,250.0,test,4,E+
430.418014526,1,1000,5,1,4,3,5,0,1,2,0,250.0,test,1,E+
526.341915131,1,1000,5,1,4,3,5,0,1,2,0,250.0,test,1,E+
526.231050491,5,1000,3,1,4,3,5,0,1,2,0,250.0,test,5,E+
2430.08518219,5,1000,3,0,4,3,5,0,1,2,0,250.0,test,4,E+
732.094049454,3,1000,0,1,4,3,5,0,1,2,0,250.0,test,3,E+
478.197813034,4,1000,1,1,4,3,5,0,1,2,0,250.0,test,4,E+
652.660131454,2,1000,4,1,4,3,5,0,1,2,0,250.0,test,2,E+
557.643890381,0,1000,2,1,4,3,5,0,1,2,0,250.0,test,0,E+
830.646038055,5,1000,3,1,4,3,5,0,1,2,0,250.0,test,5,E+
654.891014099,2,1000,4,1,4,3,5,0,1,2,0,250.0,test,2,E+
494.579076767,1,1000,5,1,4,3,5,0,1,2,0,250.0,test,1,E+
654.399871826,2,1000,4,1,4,3,5,0,1,2,0,250.0,test,2,E+
6238.2440567,2,1000,4,1,4,3,5,0,1,2,0,250.0,test,2,E+
510.694026947,5,1000,3,1,4,3,5,0,1,2,0,250.0,test,5,E+
526.477098465,0,1000,2,1,4,3,5,0,1,2,0,250.0,test,0,E+
413.22684288,1,1000,5,1,4,3,5,0,1,2,0,250.0,test,1,E+
525.174856186,5,1000,3,1,4,3,5,0,1,2,0,250.0,test,5,E+
558.419942856,5,1000,3,1,4,3,5,0,1,2,0,250.0,test,5,E+
509.400129318,0,1000,2,1,4,3,5,0,1,2,0,250.0,test,0,E+
861.307859421,3,1000,0,0,4,3,5,0,1,2,0,250.0,test,0,E+
541.686058044,4,1000,1,1,4,3,5,0,1,2,0,250.0,test,4,E+
5261.05308533,1,1000,5,1,4,3,5,0,1,2,0,250.0,test,1,E+
590.559959412,5,1000,3,1,4,3,5,0,1,2,0,250.0,test,5,E+
621.338129044,4,1000,1,1,4,3,5,0,1,2,0,250.0,test,4,E+
1661.13996506,3,1000,0,1,4,3,5,0,1,2,0,250.0,test,3,E+
413.185834885,4,1000,1,1,4,3,5,0,1,2,0,250.0,test,4,E+
557.415962219,4,1000,1,1,4,3,5,0,1,2,0,250.0,test,4,E+
605.396032333,3,1000,0,1,4,3,5,0,1,2,0,250.0,test,3,E+
862.711906433,2,1000,4,1,4,3,5,0,1,2,0,250.0,test,2,E+
526.427984238,4,1000,1,1,4,3,5,0,1,2,0,250.0,test,4,E+
4237.26797104,5,1000,3,1,4,3,5,0,1,2,0,250.0,test,5,E+
590.642929077,2,1000,4,1,4,3,5,0,1,2,0,250.0,test,2,E+
654.370069504,0,1000,2,1,4,3,5,0,1,2,0,250.0,test,0,E+
526.279211044,5,1000,3,1,4,3,5,0,1,2,0,250.0,test,5,E+
606.028079987,3,1000,0,1,4,3,5,0,1,2,0,250.0,test,3,E+
574.471950531,4,1000,1,1,4,3,5,0,1,2,0,250.0,test,4,E+
637.115001678,3,1000,0,1,4,3,5,0,1,2,0,250.0,test,3,E+
382.284164429,5,1000,3,0,4,3,5,0,1,2,0,250.0,test,4,E+
734.375,5,1000,3,1,4,3,5,0,1,2,0,250.0,test,5,E+
4142.34495163,1,1000,5,0,4,3,5,0,1,2,0,250.0,test,4,E+
958.653926849,3,1000,0,1,4,3,5,0,1,2,0,250.0,test,3,E+
655.112981796,3,1000,0,1,4,3,5,0,1,2,0,250.0,test,3,E+
750.346183777,4,1000,1,1,4,3,5,0,1,2,0,250.0,test,4,E+
606.561899185,5,1000,3,1,4,3,5,0,1,2,0,250.0,test,5,E+
590.425014496,4,1000,1,1,4,3,5,0,1,2,0,250.0,test,4,E+
557.270050049,0,1000,2,1,4,3,5,0,1,2,0,250.0,test,0,E+
654.886960983,4,1000,1,1,4,3,5,0,1,2,0,250.0,test,4,E+
590.940952301,5,1000,3,1,4,3,5,0,1,2,0,250.0,test,5,E+
830.364942551,2,1000,4,1,4,3,5,0,1,2,0,250.0,test,2,E+
