RT,correct_response,ms-prestimblank,curstim,correct,SRmap_1,SRmap_0,SRmap_3,SRmap_2,SRmap_5,SRmap_4,ms-precue,ntrials,type,response,condition
15935.3740215,2,1000,0,1,1,2,0,3,5,4,0,250.0,train,2,M
2287.68396378,5,1000,5,1,1,2,0,3,5,4,0,250.0,train,5,M
1536.27800941,4,1000,4,1,1,2,0,3,5,4,0,250.0,train,4,M
880.130052567,1,1000,1,1,1,2,0,3,5,4,0,250.0,train,1,M
1056.48112297,5,1000,5,0,1,2,0,3,5,4,0,250.0,train,4,M
848.395824432,2,1000,0,1,1,2,0,3,5,4,0,250.0,train,2,M
944.389104843,4,1000,4,1,1,2,0,3,5,4,0,250.0,train,4,M
672.315120697,0,1000,3,1,1,2,0,3,5,4,0,250.0,train,0,M
912.378072739,5,1000,5,1,1,2,0,3,5,4,0,250.0,train,5,M
528.35893631,4,1000,4,1,1,2,0,3,5,4,0,250.0,train,4,M
464.417934418,2,1000,0,1,1,2,0,3,5,4,0,250.0,train,2,M
784.481048584,2,1000,0,1,1,2,0,3,5,4,0,250.0,train,2,M
576.596975327,2,1000,0,1,1,2,0,3,5,4,0,250.0,train,2,M
608.565092087,1,1000,1,1,1,2,0,3,5,4,0,250.0,train,1,M
592.283010483,5,1000,5,0,1,2,0,3,5,4,0,250.0,train,4,M
576.402902603,2,1000,0,1,1,2,0,3,5,4,0,250.0,train,2,M
512.293815613,3,1000,2,0,1,2,0,3,5,4,0,250.0,train,2,M
704.280853271,2,1000,0,1,1,2,0,3,5,4,0,250.0,train,2,M
544.571876526,1,1000,1,0,1,2,0,3,5,4,0,250.0,train,0,M
896.400928497,2,1000,0,1,1,2,0,3,5,4,0,250.0,train,2,M
560.424089432,1,1000,1,1,1,2,0,3,5,4,0,250.0,train,1,M
480.501890182,0,1000,3,1,1,2,0,3,5,4,0,250.0,train,0,M
944.658994675,4,1000,4,1,1,2,0,3,5,4,0,250.0,train,4,M
449.04088974,4,1000,4,1,1,2,0,3,5,4,0,250.0,train,4,M
560.950994492,1,1000,1,1,1,2,0,3,5,4,0,250.0,train,1,M
928.621053696,3,1000,2,1,1,2,0,3,5,4,0,250.0,train,3,M
848.509073257,3,1000,2,1,1,2,0,3,5,4,0,250.0,train,3,M
576.494932175,4,1000,4,1,1,2,0,3,5,4,0,250.0,train,4,M
752.64787674,5,1000,5,1,1,2,0,3,5,4,0,250.0,train,5,M
752.442121506,3,1000,2,0,1,2,0,3,5,4,0,250.0,train,4,M
544.422864914,4,1000,4,1,1,2,0,3,5,4,0,250.0,train,4,M
560.619115829,5,1000,5,1,1,2,0,3,5,4,0,250.0,train,5,M
672.372817993,2,1000,0,1,1,2,0,3,5,4,0,250.0,train,2,M
496.57702446,2,1000,0,1,1,2,0,3,5,4,0,250.0,train,2,M
496.48809433,0,1000,3,1,1,2,0,3,5,4,0,250.0,train,0,M
688.30704689,5,1000,5,1,1,2,0,3,5,4,0,250.0,train,5,M
399.634122849,4,1000,4,1,1,2,0,3,5,4,0,250.0,train,4,M
640.425920486,1,1000,1,1,1,2,0,3,5,4,0,250.0,train,1,M
464.48302269,1,1000,1,1,1,2,0,3,5,4,0,250.0,train,1,M
480.551958084,0,1000,3,1,1,2,0,3,5,4,0,250.0,train,0,M
640.27094841,5,1000,5,1,1,2,0,3,5,4,0,250.0,train,5,M
608.54101181,1,1000,1,1,1,2,0,3,5,4,0,250.0,train,1,M
864.486932755,3,1000,2,1,1,2,0,3,5,4,0,250.0,train,3,M
544.543981552,4,1000,4,0,1,2,0,3,5,4,0,250.0,train,5,M
800.403118134,2,1000,0,1,1,2,0,3,5,4,0,250.0,train,2,M
592.43106842,3,1000,2,1,1,2,0,3,5,4,0,250.0,train,3,M
496.529102325,3,1000,2,1,1,2,0,3,5,4,0,250.0,train,3,M
496.574163437,0,1000,3,1,1,2,0,3,5,4,0,250.0,train,0,M
720.382928848,5,1000,5,1,1,2,0,3,5,4,0,250.0,train,5,M
1024.38402176,3,1000,2,1,1,2,0,3,5,4,0,250.0,train,3,M
624.250173569,4,1000,4,1,1,2,0,3,5,4,0,250.0,train,4,M
912.501096725,3,1000,2,1,1,2,0,3,5,4,0,250.0,train,3,M
656.492948532,5,1000,5,0,1,2,0,3,5,4,0,250.0,train,4,M
784.033060074,4,1000,4,1,1,2,0,3,5,4,0,250.0,train,4,M
543.462991714,0,1000,3,1,1,2,0,3,5,4,0,250.0,train,0,M
672.125101089,5,1000,5,1,1,2,0,3,5,4,0,250.0,train,5,M
1263.57913017,3,1000,2,1,1,2,0,3,5,4,0,250.0,train,3,M
672.934055328,3,1000,2,1,1,2,0,3,5,4,0,250.0,train,3,M
608.865022659,0,1000,3,1,1,2,0,3,5,4,0,250.0,train,0,M
496.477127075,0,1000,3,1,1,2,0,3,5,4,0,250.0,train,0,M
432.433128357,1,1000,1,1,1,2,0,3,5,4,0,250.0,train,1,M
512.472867966,1,1000,1,1,1,2,0,3,5,4,0,250.0,train,1,M
464.484930038,2,1000,0,1,1,2,0,3,5,4,0,250.0,train,2,M
497.466087341,0,1000,3,1,1,2,0,3,5,4,0,250.0,train,0,M
688.503026962,5,1000,5,1,1,2,0,3,5,4,0,250.0,train,5,M
848.554849625,2,1000,0,1,1,2,0,3,5,4,0,250.0,train,2,M
768.564939499,4,1000,4,1,1,2,0,3,5,4,0,250.0,train,4,M
544.564008713,1,1000,1,1,1,2,0,3,5,4,0,250.0,train,1,M
544.461011887,2,1000,0,1,1,2,0,3,5,4,0,250.0,train,2,M
1360.44001579,4,1000,4,1,1,2,0,3,5,4,0,250.0,train,4,M
576.601982117,1,1000,1,1,1,2,0,3,5,4,0,250.0,train,1,M
896.063089371,4,1000,4,1,1,2,0,3,5,4,0,250.0,train,4,M
480.511903763,0,1000,3,1,1,2,0,3,5,4,0,250.0,train,0,M
432.543039322,1,1000,1,1,1,2,0,3,5,4,0,250.0,train,1,M
752.527236938,4,1000,4,1,1,2,0,3,5,4,0,250.0,train,4,M
752.588033676,4,1000,4,1,1,2,0,3,5,4,0,250.0,train,4,M
656.644105911,5,1000,5,0,1,2,0,3,5,4,0,250.0,train,4,M
672.465085983,5,1000,5,1,1,2,0,3,5,4,0,250.0,train,5,M
512.506008148,0,1000,3,1,1,2,0,3,5,4,0,250.0,train,0,M
448.55093956,1,1000,1,1,1,2,0,3,5,4,0,250.0,train,1,M
704.341173172,4,1000,4,1,1,2,0,3,5,4,0,250.0,train,4,M
544.006109238,4,1000,4,1,1,2,0,3,5,4,0,250.0,train,4,M
495.104074478,5,1000,5,1,1,2,0,3,5,4,0,250.0,train,5,M
591.633081436,4,1000,4,1,1,2,0,3,5,4,0,250.0,train,4,M
655.560970306,2,1000,0,1,1,2,0,3,5,4,0,250.0,train,2,M
895.748853683,3,1000,2,0,1,2,0,3,5,4,0,250.0,train,4,M
640.40517807,2,1000,0,1,1,2,0,3,5,4,0,250.0,train,2,M
688.55214119,4,1000,4,1,1,2,0,3,5,4,0,250.0,train,4,M
544.265985489,5,1000,5,1,1,2,0,3,5,4,0,250.0,train,5,M
1088.50598335,2,1000,0,1,1,2,0,3,5,4,0,250.0,train,2,M
624.444007874,2,1000,0,1,1,2,0,3,5,4,0,250.0,train,2,M
688.275814056,5,1000,5,1,1,2,0,3,5,4,0,250.0,train,5,M
560.518980026,5,1000,5,1,1,2,0,3,5,4,0,250.0,train,5,M
752.456903458,3,1000,2,1,1,2,0,3,5,4,0,250.0,train,3,M
544.465065002,4,1000,4,1,1,2,0,3,5,4,0,250.0,train,4,M
592.417001724,5,1000,5,0,1,2,0,3,5,4,0,250.0,train,4,M
736.289978027,5,1000,5,1,1,2,0,3,5,4,0,250.0,train,5,M
576.174974442,4,1000,4,1,1,2,0,3,5,4,0,250.0,train,4,M
576.44200325,0,1000,3,1,1,2,0,3,5,4,0,250.0,train,0,M
384.366035461,1,1000,1,1,1,2,0,3,5,4,0,250.0,train,1,M
496.465206146,0,1000,3,1,1,2,0,3,5,4,0,250.0,train,0,M
1024.61981773,4,1000,4,1,1,2,0,3,5,4,0,250.0,train,4,M
640.483856201,1,1000,1,1,1,2,0,3,5,4,0,250.0,train,1,M
592.458963394,2,1000,0,1,1,2,0,3,5,4,0,250.0,train,2,M
496.187925339,0,1000,3,1,1,2,0,3,5,4,0,250.0,train,0,M
800.596952438,3,1000,2,1,1,2,0,3,5,4,0,250.0,train,3,M
480.541944504,3,1000,2,1,1,2,0,3,5,4,0,250.0,train,3,M
480.554103851,3,1000,2,1,1,2,0,3,5,4,0,250.0,train,3,M
576.460838318,5,1000,5,1,1,2,0,3,5,4,0,250.0,train,5,M
720.587015152,4,1000,4,1,1,2,0,3,5,4,0,250.0,train,4,M
816.622972488,5,1000,5,0,1,2,0,3,5,4,0,250.0,train,3,M
816.489934921,2,1000,0,1,1,2,0,3,5,4,0,250.0,train,2,M
544.615030289,4,1000,4,1,1,2,0,3,5,4,0,250.0,train,4,M
560.472011566,4,1000,4,1,1,2,0,3,5,4,0,250.0,train,4,M
480.388879776,4,1000,4,1,1,2,0,3,5,4,0,250.0,train,4,M
640.403032303,0,1000,3,1,1,2,0,3,5,4,0,250.0,train,0,M
592.60392189,2,1000,0,1,1,2,0,3,5,4,0,250.0,train,2,M
448.599815369,0,1000,3,1,1,2,0,3,5,4,0,250.0,train,0,M
736.62686348,4,1000,4,1,1,2,0,3,5,4,0,250.0,train,4,M
672.584056854,2,1000,0,1,1,2,0,3,5,4,0,250.0,train,2,M
496.5031147,2,1000,0,1,1,2,0,3,5,4,0,250.0,train,2,M
512.57610321,1,1000,1,1,1,2,0,3,5,4,0,250.0,train,1,M
768.512010574,3,1000,2,1,1,2,0,3,5,4,0,250.0,train,3,M
464.54501152,0,1000,3,1,1,2,0,3,5,4,0,250.0,train,0,M
912.395000458,4,1000,4,1,1,2,0,3,5,4,0,250.0,train,4,M
480.324983597,4,1000,4,1,1,2,0,3,5,4,0,250.0,train,4,M
576.591014862,3,1000,2,1,1,2,0,3,5,4,0,250.0,train,3,M
432.445049286,0,1000,3,1,1,2,0,3,5,4,0,250.0,train,0,M
544.495105743,1,1000,1,1,1,2,0,3,5,4,0,250.0,train,1,M
672.32298851,3,1000,2,1,1,2,0,3,5,4,0,250.0,train,3,M
448.389053345,1,1000,1,1,1,2,0,3,5,4,0,250.0,train,1,M
784.551143646,4,1000,4,1,1,2,0,3,5,4,0,250.0,train,4,M
448.528051376,5,1000,5,1,1,2,0,3,5,4,0,250.0,train,5,M
656.367063522,3,1000,2,1,1,2,0,3,5,4,0,250.0,train,3,M
560.498952866,3,1000,2,1,1,2,0,3,5,4,0,250.0,train,3,M
560.429096222,0,1000,3,1,1,2,0,3,5,4,0,250.0,train,0,M
688.498020172,5,1000,5,1,1,2,0,3,5,4,0,250.0,train,5,M
512.459993362,1,1000,1,1,1,2,0,3,5,4,0,250.0,train,1,M
688.12584877,3,1000,2,1,1,2,0,3,5,4,0,250.0,train,3,M
448.498010635,1,1000,1,1,1,2,0,3,5,4,0,250.0,train,1,M
576.519012451,2,1000,0,0,1,2,0,3,5,4,0,250.0,train,3,M
784.179925919,3,1000,2,1,1,2,0,3,5,4,0,250.0,train,3,M
512.496948242,0,1000,3,1,1,2,0,3,5,4,0,250.0,train,0,M
1120.47815323,4,1000,4,1,1,2,0,3,5,4,0,250.0,train,4,M
640.544891357,1,1000,1,1,1,2,0,3,5,4,0,250.0,train,1,M
656.469106674,5,1000,5,1,1,2,0,3,5,4,0,250.0,train,5,M
448.517084122,1,1000,1,1,1,2,0,3,5,4,0,250.0,train,1,M
1072.50285149,5,1000,5,1,1,2,0,3,5,4,0,250.0,train,5,M
496.484994888,1,1000,1,1,1,2,0,3,5,4,0,250.0,train,1,M
608.504056931,5,1000,5,1,1,2,0,3,5,4,0,250.0,train,5,M
448.547124863,0,1000,3,1,1,2,0,3,5,4,0,250.0,train,0,M
832.478046417,0,1000,3,1,1,2,0,3,5,4,0,250.0,train,0,M
608.563899994,1,1000,1,1,1,2,0,3,5,4,0,250.0,train,1,M
480.360031128,0,1000,3,1,1,2,0,3,5,4,0,250.0,train,0,M
784.18302536,3,1000,2,1,1,2,0,3,5,4,0,250.0,train,3,M
768.628120422,3,1000,2,1,1,2,0,3,5,4,0,250.0,train,3,M
896.414995193,5,1000,5,1,1,2,0,3,5,4,0,250.0,train,5,M
992.623090744,2,1000,0,1,1,2,0,3,5,4,0,250.0,train,2,M
624.456167221,2,1000,0,1,1,2,0,3,5,4,0,250.0,train,2,M
736.579179764,5,1000,5,1,1,2,0,3,5,4,0,250.0,train,5,M
608.532905579,3,1000,2,0,1,2,0,3,5,4,0,250.0,train,0,M
544.451951981,2,1000,0,1,1,2,0,3,5,4,0,250.0,train,2,M
512.493133545,2,1000,0,1,1,2,0,3,5,4,0,250.0,train,2,M
624.527931213,5,1000,5,1,1,2,0,3,5,4,0,250.0,train,5,M
560.012102127,4,1000,4,1,1,2,0,3,5,4,0,250.0,train,4,M
880.841016769,1,1000,1,1,1,2,0,3,5,4,0,250.0,train,1,M
495.553016663,1,1000,1,1,1,2,0,3,5,4,0,250.0,train,1,M
671.556949615,3,1000,2,1,1,2,0,3,5,4,0,250.0,train,3,M
639.81795311,5,1000,5,1,1,2,0,3,5,4,0,250.0,train,5,M
496.370077133,0,1000,3,1,1,2,0,3,5,4,0,250.0,train,0,M
480.466842651,0,1000,3,1,1,2,0,3,5,4,0,250.0,train,0,M
432.493925095,0,1000,3,1,1,2,0,3,5,4,0,250.0,train,0,M
432.44600296,0,1000,3,1,1,2,0,3,5,4,0,250.0,train,0,M
736.460208893,4,1000,4,1,1,2,0,3,5,4,0,250.0,train,4,M
592.455863953,1,1000,1,1,1,2,0,3,5,4,0,250.0,train,1,M
848.500967026,4,1000,4,1,1,2,0,3,5,4,0,250.0,train,4,M
800.542116165,5,1000,5,1,1,2,0,3,5,4,0,250.0,train,5,M
576.552867889,5,1000,5,1,1,2,0,3,5,4,0,250.0,train,5,M
688.549995422,0,1000,3,1,1,2,0,3,5,4,0,250.0,train,0,M
624.604940414,5,1000,5,1,1,2,0,3,5,4,0,250.0,train,5,M
496.428966522,4,1000,4,1,1,2,0,3,5,4,0,250.0,train,4,M
1072.57008553,2,1000,0,1,1,2,0,3,5,4,0,250.0,train,2,M
464.428901672,0,1000,3,1,1,2,0,3,5,4,0,250.0,train,0,M
608.579874039,3,1000,2,0,1,2,0,3,5,4,0,250.0,train,4,M
736.335992813,2,1000,0,1,1,2,0,3,5,4,0,250.0,train,2,M
1199.72801208,5,1000,5,1,1,2,0,3,5,4,0,250.0,train,5,M
607.717037201,3,1000,2,0,1,2,0,3,5,4,0,250.0,train,2,M
735.560178757,4,1000,4,1,1,2,0,3,5,4,0,250.0,train,4,M
687.702894211,4,1000,4,1,1,2,0,3,5,4,0,250.0,train,4,M
575.716018677,2,1000,0,1,1,2,0,3,5,4,0,250.0,train,2,M
463.543891907,2,1000,0,1,1,2,0,3,5,4,0,250.0,train,2,M
735.074996948,5,1000,5,1,1,2,0,3,5,4,0,250.0,train,5,M
527.66084671,0,1000,3,1,1,2,0,3,5,4,0,250.0,train,0,M
703.804016113,4,1000,4,1,1,2,0,3,5,4,0,250.0,train,4,M
623.677015305,4,1000,4,1,1,2,0,3,5,4,0,250.0,train,4,M
511.634111404,4,1000,4,1,1,2,0,3,5,4,0,250.0,train,4,M
591.787815094,5,1000,5,1,1,2,0,3,5,4,0,250.0,train,5,M
591.550111771,1,1000,1,1,1,2,0,3,5,4,0,250.0,train,1,M
607.648134232,5,1000,5,1,1,2,0,3,5,4,0,250.0,train,5,M
575.672149658,1,1000,1,1,1,2,0,3,5,4,0,250.0,train,1,M
447.590827942,0,1000,3,1,1,2,0,3,5,4,0,250.0,train,0,M
608.053922653,2,1000,0,1,1,2,0,3,5,4,0,250.0,train,2,M
608.31618309,5,1000,5,1,1,2,0,3,5,4,0,250.0,train,5,M
943.490028381,3,1000,2,1,1,2,0,3,5,4,0,250.0,train,3,M
479.794025421,0,1000,3,1,1,2,0,3,5,4,0,250.0,train,0,M
880.668878555,3,1000,2,1,1,2,0,3,5,4,0,250.0,train,3,M
479.612112045,5,1000,5,1,1,2,0,3,5,4,0,250.0,train,5,M
655.93290329,2,1000,0,1,1,2,0,3,5,4,0,250.0,train,2,M
495.657920837,2,1000,0,1,1,2,0,3,5,4,0,250.0,train,2,M
863.788843155,3,1000,2,1,1,2,0,3,5,4,0,250.0,train,3,M
479.6230793,0,1000,3,1,1,2,0,3,5,4,0,250.0,train,0,M
400.849103928,1,1000,1,1,1,2,0,3,5,4,0,250.0,train,1,M
416.887998581,0,1000,3,1,1,2,0,3,5,4,0,250.0,train,0,M
528.864145279,2,1000,0,1,1,2,0,3,5,4,0,250.0,train,2,M
656.867980957,5,1000,5,1,1,2,0,3,5,4,0,250.0,train,5,M
640.428066254,2,1000,0,1,1,2,0,3,5,4,0,250.0,train,2,M
576.457023621,3,1000,2,1,1,2,0,3,5,4,0,250.0,train,3,M
832.584142685,2,1000,0,1,1,2,0,3,5,4,0,250.0,train,2,M
432.45100975,0,1000,3,1,1,2,0,3,5,4,0,250.0,train,0,M
608.52098465,5,1000,5,1,1,2,0,3,5,4,0,250.0,train,5,M
1056.56194687,3,1000,2,1,1,2,0,3,5,4,0,250.0,train,3,M
512.418031693,1,1000,1,1,1,2,0,3,5,4,0,250.0,train,1,M
687.613010406,3,1000,2,1,1,2,0,3,5,4,0,250.0,train,3,M
528.550863266,0,1000,3,1,1,2,0,3,5,4,0,250.0,train,0,M
672.590970993,3,1000,2,1,1,2,0,3,5,4,0,250.0,train,3,M
672.558069229,4,1000,4,1,1,2,0,3,5,4,0,250.0,train,4,M
832.441806793,4,1000,4,1,1,2,0,3,5,4,0,250.0,train,4,M
544.559955597,1,1000,1,1,1,2,0,3,5,4,0,250.0,train,1,M
624.516010284,5,1000,5,1,1,2,0,3,5,4,0,250.0,train,5,M
576.416015625,1,1000,1,1,1,2,0,3,5,4,0,250.0,train,1,M
384.40489769,0,1000,3,1,1,2,0,3,5,4,0,250.0,train,0,M
592.450141907,5,1000,5,1,1,2,0,3,5,4,0,250.0,train,5,M
592.527866364,4,1000,4,1,1,2,0,3,5,4,0,250.0,train,4,M
576.431035995,5,1000,5,1,1,2,0,3,5,4,0,250.0,train,5,M
592.383146286,2,1000,0,0,1,2,0,3,5,4,0,250.0,train,4,M
2816.30587578,0,1000,3,1,1,2,0,3,5,4,0,250.0,train,0,M
800.519943237,2,1000,0,1,1,2,0,3,5,4,0,250.0,train,2,M
656.496047974,3,1000,2,1,1,2,0,3,5,4,0,250.0,train,3,M
720.563173294,4,1000,4,1,1,2,0,3,5,4,0,250.0,train,4,M
656.888008118,4,1000,4,1,1,2,0,3,5,4,0,250.0,train,4,M
736.456155777,2,1000,0,1,1,2,0,3,5,4,0,250.0,train,2,M
624.552965164,4,1000,4,1,1,2,0,3,5,4,0,250.0,train,4,M
816.551923752,2,1000,0,1,1,2,0,3,5,4,0,250.0,train,2,M
688.462972641,4,1000,4,1,1,2,0,3,5,4,0,250.0,train,4,M
464.160919189,1,1000,1,1,1,2,0,3,5,4,0,250.0,train,1,M
432.422876358,1,1000,1,1,1,2,0,3,5,4,0,250.0,train,1,M
464.437961578,0,1000,3,1,1,2,0,3,5,4,0,250.0,train,0,M
448.458909988,0,1000,3,1,1,2,0,3,5,4,0,250.0,train,0,M
656.517028809,3,1000,2,1,1,2,0,3,5,4,0,250.0,train,3,M
496.510982513,4,1000,4,1,1,2,0,3,5,4,0,250.0,train,4,M
22847.4419117,3,1000,2,1,1,2,0,3,5,4,0,250.0,test,3,M
1584.28478241,2,1000,0,1,1,2,0,3,5,4,0,250.0,test,2,M
1472.16010094,4,1000,4,1,1,2,0,3,5,4,0,250.0,test,4,M
752.401828766,5,1000,5,1,1,2,0,3,5,4,0,250.0,test,5,M
1296.45204544,4,1000,4,1,1,2,0,3,5,4,0,250.0,test,4,M
1216.35508537,1,1000,1,1,1,2,0,3,5,4,0,250.0,test,1,M
736.400842667,0,1000,3,1,1,2,0,3,5,4,0,250.0,test,0,M
976.392030716,2,1000,0,1,1,2,0,3,5,4,0,250.0,test,2,M
688.434123993,5,1000,5,1,1,2,0,3,5,4,0,250.0,test,5,M
720.397949219,3,1000,2,0,1,2,0,3,5,4,0,250.0,test,4,M
560.356855392,3,1000,2,1,1,2,0,3,5,4,0,250.0,test,3,M
1808.44593048,0,1000,3,1,1,2,0,3,5,4,0,250.0,test,0,M
1312.27493286,4,1000,4,1,1,2,0,3,5,4,0,250.0,test,4,M
800.343036652,1,1000,1,1,1,2,0,3,5,4,0,250.0,test,1,M
592.34213829,0,1000,3,1,1,2,0,3,5,4,0,250.0,test,0,M
1424.07417297,1,1000,1,1,1,2,0,3,5,4,0,250.0,test,1,M
704.363107681,0,1000,3,1,1,2,0,3,5,4,0,250.0,test,0,M
736.346960068,3,1000,2,1,1,2,0,3,5,4,0,250.0,test,3,M
672.310113907,5,1000,5,1,1,2,0,3,5,4,0,250.0,test,5,M
752.321958542,3,1000,2,1,1,2,0,3,5,4,0,250.0,test,3,M
815.862178802,4,1000,4,1,1,2,0,3,5,4,0,250.0,test,4,M
768.491983414,4,1000,4,1,1,2,0,3,5,4,0,250.0,test,4,M
592.435121536,5,1000,5,1,1,2,0,3,5,4,0,250.0,test,5,M
624.477148056,3,1000,2,1,1,2,0,3,5,4,0,250.0,test,3,M
672.471046448,1,1000,1,1,1,2,0,3,5,4,0,250.0,test,1,M
1040.45009613,4,1000,4,1,1,2,0,3,5,4,0,250.0,test,4,M
592.323064804,4,1000,4,1,1,2,0,3,5,4,0,250.0,test,4,M
688.073158264,5,1000,5,1,1,2,0,3,5,4,0,250.0,test,5,M
752.540826797,1,1000,1,1,1,2,0,3,5,4,0,250.0,test,1,M
1168.33591461,2,1000,0,1,1,2,0,3,5,4,0,250.0,test,2,M
592.377901077,1,1000,1,1,1,2,0,3,5,4,0,250.0,test,1,M
640.244007111,3,1000,2,1,1,2,0,3,5,4,0,250.0,test,3,M
688.546895981,4,1000,4,0,1,2,0,3,5,4,0,250.0,test,2,M
848.356962204,2,1000,0,1,1,2,0,3,5,4,0,250.0,test,2,M
640.522003174,5,1000,5,1,1,2,0,3,5,4,0,250.0,test,5,M
608.361005783,0,1000,3,1,1,2,0,3,5,4,0,250.0,test,0,M
688.354969025,5,1000,5,1,1,2,0,3,5,4,0,250.0,test,5,M
528.347015381,5,1000,5,1,1,2,0,3,5,4,0,250.0,test,5,M
544.501066208,0,1000,3,1,1,2,0,3,5,4,0,250.0,test,0,M
1840.40498734,2,1000,0,1,1,2,0,3,5,4,0,250.0,test,2,M
720.423936844,2,1000,0,1,1,2,0,3,5,4,0,250.0,test,2,M
704.080820084,1,1000,1,1,1,2,0,3,5,4,0,250.0,test,1,M
528.371810913,0,1000,3,1,1,2,0,3,5,4,0,250.0,test,0,M
736.274003983,2,1000,0,1,1,2,0,3,5,4,0,250.0,test,2,M
624.403953552,3,1000,2,1,1,2,0,3,5,4,0,250.0,test,3,M
496.317863464,3,1000,2,1,1,2,0,3,5,4,0,250.0,test,3,M
928.370952606,1,1000,1,1,1,2,0,3,5,4,0,250.0,test,1,M
608.315944672,3,1000,2,1,1,2,0,3,5,4,0,250.0,test,3,M
704.407930374,5,1000,5,1,1,2,0,3,5,4,0,250.0,test,5,M
864.503860474,4,1000,4,1,1,2,0,3,5,4,0,250.0,test,4,M
528.035879135,3,1000,2,1,1,2,0,3,5,4,0,250.0,test,3,M
575.85310936,1,1000,1,1,1,2,0,3,5,4,0,250.0,test,1,M
608.089923859,5,1000,5,1,1,2,0,3,5,4,0,250.0,test,5,M
592.297077179,1,1000,1,1,1,2,0,3,5,4,0,250.0,test,1,M
528.278827667,3,1000,2,1,1,2,0,3,5,4,0,250.0,test,3,M
544.322967529,0,1000,3,1,1,2,0,3,5,4,0,250.0,test,0,M
544.274091721,5,1000,5,1,1,2,0,3,5,4,0,250.0,test,5,M
672.381877899,4,1000,4,1,1,2,0,3,5,4,0,250.0,test,4,M
543.997049332,3,1000,2,1,1,2,0,3,5,4,0,250.0,test,3,M
576.341152191,5,1000,5,1,1,2,0,3,5,4,0,250.0,test,5,M
544.346809387,1,1000,1,1,1,2,0,3,5,4,0,250.0,test,1,M
576.336860657,5,1000,5,1,1,2,0,3,5,4,0,250.0,test,5,M
864.529132843,2,1000,0,0,1,2,0,3,5,4,0,250.0,test,1,M
848.084211349,2,1000,0,1,1,2,0,3,5,4,0,250.0,test,2,M
656.430006027,5,1000,5,1,1,2,0,3,5,4,0,250.0,test,5,M
496.379852295,0,1000,3,1,1,2,0,3,5,4,0,250.0,test,0,M
560.350894928,1,1000,1,1,1,2,0,3,5,4,0,250.0,test,1,M
608.065843582,0,1000,3,1,1,2,0,3,5,4,0,250.0,test,0,M
608.424901962,1,1000,1,1,1,2,0,3,5,4,0,250.0,test,1,M
656.397819519,0,1000,3,1,1,2,0,3,5,4,0,250.0,test,0,M
560.406923294,3,1000,2,1,1,2,0,3,5,4,0,250.0,test,3,M
1072.49593735,0,1000,3,1,1,2,0,3,5,4,0,250.0,test,0,M
656.456947327,0,1000,3,1,1,2,0,3,5,4,0,250.0,test,0,M
1392.40193367,4,1000,4,1,1,2,0,3,5,4,0,250.0,test,4,M
656.133890152,3,1000,2,1,1,2,0,3,5,4,0,250.0,test,3,M
944.555997849,4,1000,4,1,1,2,0,3,5,4,0,250.0,test,4,M
592.287063599,5,1000,5,1,1,2,0,3,5,4,0,250.0,test,5,M
960.401058197,4,1000,4,1,1,2,0,3,5,4,0,250.0,test,4,M
688.518047333,4,1000,4,1,1,2,0,3,5,4,0,250.0,test,4,M
800.122976303,2,1000,0,1,1,2,0,3,5,4,0,250.0,test,2,M
592.341899872,0,1000,3,1,1,2,0,3,5,4,0,250.0,test,0,M
544.240951538,2,1000,0,1,1,2,0,3,5,4,0,250.0,test,2,M
448.265075684,0,1000,3,1,1,2,0,3,5,4,0,250.0,test,0,M
496.341943741,5,1000,5,0,1,2,0,3,5,4,0,250.0,test,0,M
720.366954803,2,1000,0,1,1,2,0,3,5,4,0,250.0,test,2,M
672.250032425,2,1000,0,1,1,2,0,3,5,4,0,250.0,test,2,M
736.521959305,4,1000,4,0,1,2,0,3,5,4,0,250.0,test,3,M
608.39009285,4,1000,4,1,1,2,0,3,5,4,0,250.0,test,4,M
624.309062958,1,1000,1,1,1,2,0,3,5,4,0,250.0,test,1,M
624.341964722,5,1000,5,1,1,2,0,3,5,4,0,250.0,test,5,M
800.122022629,2,1000,0,1,1,2,0,3,5,4,0,250.0,test,2,M
672.416210175,3,1000,2,1,1,2,0,3,5,4,0,250.0,test,3,M
560.451030731,1,1000,1,0,1,2,0,3,5,4,0,250.0,test,2,M
960.391044617,0,1000,3,1,1,2,0,3,5,4,0,250.0,test,0,M
640.395879745,3,1000,2,1,1,2,0,3,5,4,0,250.0,test,3,M
688.354969025,4,1000,4,1,1,2,0,3,5,4,0,250.0,test,4,M
528.038978577,4,1000,4,1,1,2,0,3,5,4,0,250.0,test,4,M
544.463157654,3,1000,2,1,1,2,0,3,5,4,0,250.0,test,3,M
576.109886169,1,1000,1,1,1,2,0,3,5,4,0,250.0,test,1,M
608.388185501,4,1000,4,1,1,2,0,3,5,4,0,250.0,test,4,M
592.365980148,5,1000,5,1,1,2,0,3,5,4,0,250.0,test,5,M
592.44799614,0,1000,3,0,1,2,0,3,5,4,0,250.0,test,1,M
656.314134598,1,1000,1,1,1,2,0,3,5,4,0,250.0,test,1,M
480.176925659,0,1000,3,1,1,2,0,3,5,4,0,250.0,test,0,M
848.474979401,5,1000,5,0,1,2,0,3,5,4,0,250.0,test,4,M
879.972934723,1,1000,1,1,1,2,0,3,5,4,0,250.0,test,1,M
895.603895187,3,1000,2,1,1,2,0,3,5,4,0,250.0,test,3,M
800.747156143,4,1000,4,1,1,2,0,3,5,4,0,250.0,test,4,M
655.822992325,3,1000,2,1,1,2,0,3,5,4,0,250.0,test,3,M
623.891115189,4,1000,4,1,1,2,0,3,5,4,0,250.0,test,4,M
512.054920197,4,1000,4,1,1,2,0,3,5,4,0,250.0,test,4,M
688.1980896,2,1000,0,0,1,2,0,3,5,4,0,250.0,test,5,M
623.815059662,3,1000,2,1,1,2,0,3,5,4,0,250.0,test,3,M
544.229030609,0,1000,3,1,1,2,0,3,5,4,0,250.0,test,0,M
543.929100037,0,1000,3,1,1,2,0,3,5,4,0,250.0,test,0,M
800.158023834,4,1000,4,1,1,2,0,3,5,4,0,250.0,test,4,M
527.875900269,4,1000,4,1,1,2,0,3,5,4,0,250.0,test,4,M
560.199022293,3,1000,2,1,1,2,0,3,5,4,0,250.0,test,3,M
527.990102768,1,1000,1,1,1,2,0,3,5,4,0,250.0,test,1,M
736.260890961,5,1000,5,1,1,2,0,3,5,4,0,250.0,test,5,M
544.367790222,3,1000,2,1,1,2,0,3,5,4,0,250.0,test,3,M
1408.42199326,2,1000,0,1,1,2,0,3,5,4,0,250.0,test,2,M
608.412981033,3,1000,2,1,1,2,0,3,5,4,0,250.0,test,3,M
576.21717453,4,1000,4,1,1,2,0,3,5,4,0,250.0,test,4,M
576.508045197,3,1000,2,1,1,2,0,3,5,4,0,250.0,test,3,M
496.417999268,3,1000,2,1,1,2,0,3,5,4,0,250.0,test,3,M
528.268098831,0,1000,3,1,1,2,0,3,5,4,0,250.0,test,0,M
656.29696846,4,1000,4,0,1,2,0,3,5,4,0,250.0,test,5,M
704.090833664,4,1000,4,1,1,2,0,3,5,4,0,250.0,test,4,M
512.152910233,0,1000,3,1,1,2,0,3,5,4,0,250.0,test,0,M
592.756032944,3,1000,2,1,1,2,0,3,5,4,0,250.0,test,3,M
496.328830719,3,1000,2,1,1,2,0,3,5,4,0,250.0,test,3,M
1199.84507561,5,1000,5,1,1,2,0,3,5,4,0,250.0,test,5,M
672.147989273,4,1000,4,1,1,2,0,3,5,4,0,250.0,test,4,M
479.981899261,4,1000,4,1,1,2,0,3,5,4,0,250.0,test,4,M
784.325838089,2,1000,0,0,1,2,0,3,5,4,0,250.0,test,5,M
415.906906128,2,1000,0,1,1,2,0,3,5,4,0,250.0,test,2,M
607.980966568,3,1000,2,1,1,2,0,3,5,4,0,250.0,test,3,M
544.191122055,3,1000,2,1,1,2,0,3,5,4,0,250.0,test,3,M
944.435834885,5,1000,5,1,1,2,0,3,5,4,0,250.0,test,5,M
544.840097427,0,1000,3,1,1,2,0,3,5,4,0,250.0,test,0,M
736.028194427,1,1000,1,1,1,2,0,3,5,4,0,250.0,test,1,M
1296.6940403,5,1000,5,1,1,2,0,3,5,4,0,250.0,test,5,M
704.242944717,4,1000,4,1,1,2,0,3,5,4,0,250.0,test,4,M
576.084852219,0,1000,3,1,1,2,0,3,5,4,0,250.0,test,0,M
575.746059418,3,1000,2,1,1,2,0,3,5,4,0,250.0,test,3,M
511.975049973,3,1000,2,1,1,2,0,3,5,4,0,250.0,test,3,M
624.194145203,5,1000,5,1,1,2,0,3,5,4,0,250.0,test,5,M
960.257053375,2,1000,0,1,1,2,0,3,5,4,0,250.0,test,2,M
576.477050781,1,1000,1,1,1,2,0,3,5,4,0,250.0,test,1,M
1200.26302338,4,1000,4,1,1,2,0,3,5,4,0,250.0,test,4,M
592.375993729,5,1000,5,1,1,2,0,3,5,4,0,250.0,test,5,M
528.395175934,0,1000,3,1,1,2,0,3,5,4,0,250.0,test,0,M
528.262138367,1,1000,1,1,1,2,0,3,5,4,0,250.0,test,1,M
640.44713974,3,1000,2,1,1,2,0,3,5,4,0,250.0,test,3,M
528.239011765,3,1000,2,1,1,2,0,3,5,4,0,250.0,test,3,M
1120.39208412,4,1000,4,1,1,2,0,3,5,4,0,250.0,test,4,M
528.336048126,4,1000,4,1,1,2,0,3,5,4,0,250.0,test,4,M
1264.27793503,0,1000,3,1,1,2,0,3,5,4,0,250.0,test,0,M
688.320875168,4,1000,4,1,1,2,0,3,5,4,0,250.0,test,4,M
640.229225159,3,1000,2,1,1,2,0,3,5,4,0,250.0,test,3,M
928.056955338,2,1000,0,1,1,2,0,3,5,4,0,250.0,test,2,M
1280.70902824,5,1000,5,1,1,2,0,3,5,4,0,250.0,test,5,M
639.974832535,5,1000,5,1,1,2,0,3,5,4,0,250.0,test,5,M
1056.36310577,2,1000,0,1,1,2,0,3,5,4,0,250.0,test,2,M
1024.42789078,2,1000,0,1,1,2,0,3,5,4,0,250.0,test,2,M
751.758098602,0,1000,3,1,1,2,0,3,5,4,0,250.0,test,0,M
640.237092972,1,1000,1,1,1,2,0,3,5,4,0,250.0,test,1,M
607.811927795,4,1000,4,1,1,2,0,3,5,4,0,250.0,test,4,M
672.395944595,1,1000,1,1,1,2,0,3,5,4,0,250.0,test,1,M
800.122022629,5,1000,5,1,1,2,0,3,5,4,0,250.0,test,5,M
576.374053955,4,1000,4,1,1,2,0,3,5,4,0,250.0,test,4,M
496.725082397,1,1000,1,1,1,2,0,3,5,4,0,250.0,test,1,M
720.715999603,3,1000,2,1,1,2,0,3,5,4,0,250.0,test,3,M
544.366836548,3,1000,2,1,1,2,0,3,5,4,0,250.0,test,3,M
512.501955032,1,1000,1,1,1,2,0,3,5,4,0,250.0,test,1,M
1632.33208656,2,1000,0,1,1,2,0,3,5,4,0,250.0,test,2,M
512.367963791,5,1000,5,1,1,2,0,3,5,4,0,250.0,test,5,M
560.372114182,1,1000,1,1,1,2,0,3,5,4,0,250.0,test,1,M
464.029073715,1,1000,1,1,1,2,0,3,5,4,0,250.0,test,1,M
448.374032974,1,1000,1,1,1,2,0,3,5,4,0,250.0,test,1,M
768.191099167,2,1000,0,1,1,2,0,3,5,4,0,250.0,test,2,M
624.351024628,5,1000,5,1,1,2,0,3,5,4,0,250.0,test,5,M
576.493024826,2,1000,0,1,1,2,0,3,5,4,0,250.0,test,2,M
784.349918365,5,1000,5,1,1,2,0,3,5,4,0,250.0,test,5,M
592.334985733,1,1000,1,1,1,2,0,3,5,4,0,250.0,test,1,M
672.379016876,2,1000,0,1,1,2,0,3,5,4,0,250.0,test,2,M
688.463926315,1,1000,1,1,1,2,0,3,5,4,0,250.0,test,1,M
592.365026474,1,1000,1,1,1,2,0,3,5,4,0,250.0,test,1,M
720.360040665,4,1000,4,1,1,2,0,3,5,4,0,250.0,test,4,M
544.48890686,4,1000,4,1,1,2,0,3,5,4,0,250.0,test,4,M
1280.39097786,5,1000,5,0,1,2,0,3,5,4,0,250.0,test,2,M
656.337022781,4,1000,4,1,1,2,0,3,5,4,0,250.0,test,4,M
832.503080368,5,1000,5,0,1,2,0,3,5,4,0,250.0,test,2,M
880.279064178,2,1000,0,1,1,2,0,3,5,4,0,250.0,test,2,M
736.32311821,4,1000,4,1,1,2,0,3,5,4,0,250.0,test,4,M
847.593069077,4,1000,4,1,1,2,0,3,5,4,0,250.0,test,4,M
624.278068542,0,1000,3,1,1,2,0,3,5,4,0,250.0,test,0,M
928.493022919,1,1000,1,0,1,2,0,3,5,4,0,250.0,test,2,M
784.57903862,2,1000,0,1,1,2,0,3,5,4,0,250.0,test,2,M
672.45221138,0,1000,3,1,1,2,0,3,5,4,0,250.0,test,0,M
736.434936523,5,1000,5,1,1,2,0,3,5,4,0,250.0,test,5,M
608.392000198,3,1000,2,1,1,2,0,3,5,4,0,250.0,test,3,M
720.385074615,1,1000,1,1,1,2,0,3,5,4,0,250.0,test,1,M
1472.08118439,5,1000,5,1,1,2,0,3,5,4,0,250.0,test,5,M
752.377033234,4,1000,4,1,1,2,0,3,5,4,0,250.0,test,4,M
736.485004425,0,1000,3,1,1,2,0,3,5,4,0,250.0,test,0,M
896.359205246,1,1000,1,1,1,2,0,3,5,4,0,250.0,test,1,M
1184.34095383,5,1000,5,1,1,2,0,3,5,4,0,250.0,test,5,M
768.537998199,3,1000,2,1,1,2,0,3,5,4,0,250.0,test,3,M
592.49997139,3,1000,2,1,1,2,0,3,5,4,0,250.0,test,3,M
800.517082214,0,1000,3,1,1,2,0,3,5,4,0,250.0,test,0,M
1520.28799057,2,1000,0,1,1,2,0,3,5,4,0,250.0,test,2,M
592.32878685,2,1000,0,1,1,2,0,3,5,4,0,250.0,test,2,M
752.492904663,1,1000,1,1,1,2,0,3,5,4,0,250.0,test,1,M
704.478979111,3,1000,2,1,1,2,0,3,5,4,0,250.0,test,3,M
752.169847488,0,1000,3,1,1,2,0,3,5,4,0,250.0,test,0,M
576.319932938,0,1000,3,1,1,2,0,3,5,4,0,250.0,test,0,M
784.854888916,0,1000,3,1,1,2,0,3,5,4,0,250.0,test,0,M
912.433862686,1,1000,1,1,1,2,0,3,5,4,0,250.0,test,1,M
720.353126526,5,1000,5,1,1,2,0,3,5,4,0,250.0,test,5,M
560.333013535,0,1000,3,1,1,2,0,3,5,4,0,250.0,test,0,M
848.026037216,5,1000,5,1,1,2,0,3,5,4,0,250.0,test,5,M
593.35398674,1,1000,1,1,1,2,0,3,5,4,0,250.0,test,1,M
576.339006424,0,1000,3,1,1,2,0,3,5,4,0,250.0,test,0,M
672.376871109,4,1000,4,1,1,2,0,3,5,4,0,250.0,test,4,M
1552.45089531,5,1000,5,1,1,2,0,3,5,4,0,250.0,test,5,M
672.464132309,1,1000,1,1,1,2,0,3,5,4,0,250.0,test,1,M
544.412136078,0,1000,3,1,1,2,0,3,5,4,0,250.0,test,0,M
640.511035919,5,1000,5,1,1,2,0,3,5,4,0,250.0,test,5,M
592.473983765,0,1000,3,1,1,2,0,3,5,4,0,250.0,test,0,M
560.410022736,1,1000,1,1,1,2,0,3,5,4,0,250.0,test,1,M
496.364831924,0,1000,3,1,1,2,0,3,5,4,0,250.0,test,0,M
400.300979614,5,1000,5,0,1,2,0,3,5,4,0,250.0,test,0,M
608.203887939,0,1000,3,1,1,2,0,3,5,4,0,250.0,test,0,M
1168.36094856,0,1000,3,1,1,2,0,3,5,4,0,250.0,test,0,M
1040.47393799,4,1000,4,1,1,2,0,3,5,4,0,250.0,test,4,M
703.741073608,1,1000,1,1,1,2,0,3,5,4,0,250.0,test,1,M
544.186830521,1,1000,1,1,1,2,0,3,5,4,0,250.0,test,1,M
608.486890793,3,1000,2,1,1,2,0,3,5,4,0,250.0,test,3,M
608.486890793,4,1000,4,1,1,2,0,3,5,4,0,250.0,test,4,M
1568.46284866,2,1000,0,1,1,2,0,3,5,4,0,250.0,test,2,M
880.346059799,1,1000,1,1,1,2,0,3,5,4,0,250.0,test,1,M
512.380123138,1,1000,1,1,1,2,0,3,5,4,0,250.0,test,1,M
960.163116455,5,1000,5,1,1,2,0,3,5,4,0,250.0,test,5,M
640.428066254,3,1000,2,1,1,2,0,3,5,4,0,250.0,test,3,M
512.372970581,0,1000,3,1,1,2,0,3,5,4,0,250.0,test,0,M
672.456979752,4,1000,4,1,1,2,0,3,5,4,0,250.0,test,4,M
1728.42097282,0,1000,3,1,1,2,0,3,5,4,0,250.0,test,0,M
1776.34811401,2,1000,0,1,1,2,0,3,5,4,0,250.0,test,2,M
