RT,correct_response,ms-prestimblank,curstim,correct,SRmap_1,SRmap_0,SRmap_3,SRmap_2,SRmap_5,SRmap_4,ms-precue,ntrials,type,response,condition
9583.28986168,4,1000,3,1,5,3,4,1,2,0,0,250.0,train,4,H+
2655.9650898,0,1000,4,1,5,3,4,1,2,0,0,250.0,train,0,H+
2112.08701134,3,1000,0,1,5,3,4,1,2,0,0,250.0,train,3,H+
1376.09291077,2,1000,5,1,5,3,4,1,2,0,0,250.0,train,2,H+
1440.09304047,0,1000,4,1,5,3,4,1,2,0,0,250.0,train,0,H+
1487.65492439,1,1000,2,1,5,3,4,1,2,0,0,250.0,train,1,H+
1936.20681763,3,1000,0,1,5,3,4,1,2,0,0,250.0,train,3,H+
1424.01194572,4,1000,3,1,5,3,4,1,2,0,0,250.0,train,4,H+
1152.3001194,0,1000,4,1,5,3,4,1,2,0,0,250.0,train,0,H+
1120.36299706,0,1000,4,1,5,3,4,1,2,0,0,250.0,train,0,H+
1584.28215981,5,1000,1,1,5,3,4,1,2,0,0,250.0,train,5,H+
1184.19790268,2,1000,5,1,5,3,4,1,2,0,0,250.0,train,2,H+
1024.50585365,0,1000,4,1,5,3,4,1,2,0,0,250.0,train,0,H+
1776.252985,3,1000,0,1,5,3,4,1,2,0,0,250.0,train,3,H+
2064.30196762,5,1000,1,1,5,3,4,1,2,0,0,250.0,train,5,H+
1216.36104584,2,1000,5,1,5,3,4,1,2,0,0,250.0,train,2,H+
1440.26899338,3,1000,0,1,5,3,4,1,2,0,0,250.0,train,3,H+
1136.54994965,1,1000,2,1,5,3,4,1,2,0,0,250.0,train,1,H+
896.276950836,1,1000,2,1,5,3,4,1,2,0,0,250.0,train,1,H+
1264.27698135,0,1000,4,1,5,3,4,1,2,0,0,250.0,train,0,H+
1024.43194389,0,1000,4,1,5,3,4,1,2,0,0,250.0,train,0,H+
1984.51209068,3,1000,0,1,5,3,4,1,2,0,0,250.0,train,3,H+
976.7100811,1,1000,2,1,5,3,4,1,2,0,0,250.0,train,1,H+
896.297931671,0,1000,4,1,5,3,4,1,2,0,0,250.0,train,0,H+
864.379167557,2,1000,5,1,5,3,4,1,2,0,0,250.0,train,2,H+
1664.67380524,3,1000,0,1,5,3,4,1,2,0,0,250.0,train,3,H+
1632.28607178,1,1000,2,1,5,3,4,1,2,0,0,250.0,train,1,H+
672.40190506,1,1000,2,1,5,3,4,1,2,0,0,250.0,train,1,H+
831.943035126,2,1000,5,1,5,3,4,1,2,0,0,250.0,train,2,H+
1440.38796425,5,1000,1,1,5,3,4,1,2,0,0,250.0,train,5,H+
736.315011978,5,1000,1,1,5,3,4,1,2,0,0,250.0,train,5,H+
816.236019135,2,1000,5,1,5,3,4,1,2,0,0,250.0,train,2,H+
640.417814255,2,1000,5,1,5,3,4,1,2,0,0,250.0,train,2,H+
1456.93492889,3,1000,0,1,5,3,4,1,2,0,0,250.0,train,3,H+
832.379102707,0,1000,4,1,5,3,4,1,2,0,0,250.0,train,0,H+
592.400789261,5,1000,1,1,5,3,4,1,2,0,0,250.0,train,5,H+
768.481969833,5,1000,1,1,5,3,4,1,2,0,0,250.0,train,5,H+
1728.40213776,4,1000,3,1,5,3,4,1,2,0,0,250.0,train,4,H+
768.044948578,0,1000,4,1,5,3,4,1,2,0,0,250.0,train,0,H+
512.517929077,0,1000,4,1,5,3,4,1,2,0,0,250.0,train,0,H+
1056.54907227,1,1000,2,1,5,3,4,1,2,0,0,250.0,train,1,H+
1056.59198761,0,1000,4,1,5,3,4,1,2,0,0,250.0,train,0,H+
880.520105362,2,1000,5,0,5,3,4,1,2,0,0,250.0,train,3,H+
640.314102173,5,1000,1,1,5,3,4,1,2,0,0,250.0,train,5,H+
576.643943787,5,1000,1,1,5,3,4,1,2,0,0,250.0,train,5,H+
928.400039673,1,1000,2,1,5,3,4,1,2,0,0,250.0,train,1,H+
1552.35004425,3,1000,0,1,5,3,4,1,2,0,0,250.0,train,3,H+
1104.47788239,4,1000,3,1,5,3,4,1,2,0,0,250.0,train,4,H+
1152.37092972,2,1000,5,1,5,3,4,1,2,0,0,250.0,train,2,H+
720.489025116,5,1000,1,1,5,3,4,1,2,0,0,250.0,train,5,H+
2320.34182549,3,1000,0,1,5,3,4,1,2,0,0,250.0,train,3,H+
1168.40791702,4,1000,3,1,5,3,4,1,2,0,0,250.0,train,4,H+
928.472042084,2,1000,5,1,5,3,4,1,2,0,0,250.0,train,2,H+
1072.7789402,4,1000,3,1,5,3,4,1,2,0,0,250.0,train,4,H+
832.446098328,2,1000,5,1,5,3,4,1,2,0,0,250.0,train,2,H+
1392.28200912,3,1000,0,1,5,3,4,1,2,0,0,250.0,train,3,H+
960.066080093,3,1000,0,1,5,3,4,1,2,0,0,250.0,train,3,H+
912.398099899,2,1000,5,1,5,3,4,1,2,0,0,250.0,train,2,H+
640.332937241,2,1000,5,1,5,3,4,1,2,0,0,250.0,train,2,H+
736.28616333,2,1000,5,1,5,3,4,1,2,0,0,250.0,train,2,H+
1104.39705849,3,1000,0,1,5,3,4,1,2,0,0,250.0,train,3,H+
592.470169067,5,1000,1,1,5,3,4,1,2,0,0,250.0,train,5,H+
1056.36000633,1,1000,2,1,5,3,4,1,2,0,0,250.0,train,1,H+
544.392824173,5,1000,1,1,5,3,4,1,2,0,0,250.0,train,5,H+
544.43192482,5,1000,1,1,5,3,4,1,2,0,0,250.0,train,5,H+
656.387090683,5,1000,1,1,5,3,4,1,2,0,0,250.0,train,5,H+
1040.50207138,0,1000,4,1,5,3,4,1,2,0,0,250.0,train,0,H+
944.401979446,1,1000,2,1,5,3,4,1,2,0,0,250.0,train,1,H+
880.49197197,0,1000,4,1,5,3,4,1,2,0,0,250.0,train,0,H+
1120.37396431,3,1000,0,1,5,3,4,1,2,0,0,250.0,train,3,H+
784.898996353,3,1000,0,1,5,3,4,1,2,0,0,250.0,train,3,H+
800.493001938,1,1000,2,1,5,3,4,1,2,0,0,250.0,train,1,H+
544.432878494,5,1000,1,1,5,3,4,1,2,0,0,250.0,train,5,H+
912.38117218,0,1000,4,1,5,3,4,1,2,0,0,250.0,train,0,H+
1072.55196571,0,1000,4,1,5,3,4,1,2,0,0,250.0,train,0,H+
976.332902908,1,1000,2,1,5,3,4,1,2,0,0,250.0,train,1,H+
496.299982071,1,1000,2,1,5,3,4,1,2,0,0,250.0,train,1,H+
768.356084824,2,1000,5,1,5,3,4,1,2,0,0,250.0,train,2,H+
1216.35699272,4,1000,3,1,5,3,4,1,2,0,0,250.0,train,4,H+
1200.53195953,0,1000,4,1,5,3,4,1,2,0,0,250.0,train,0,H+
1072.44300842,2,1000,5,1,5,3,4,1,2,0,0,250.0,train,2,H+
1024.36709404,3,1000,0,1,5,3,4,1,2,0,0,250.0,train,3,H+
672.414064407,2,1000,5,1,5,3,4,1,2,0,0,250.0,train,2,H+
688.479185104,2,1000,5,1,5,3,4,1,2,0,0,250.0,train,2,H+
576.373815536,5,1000,1,1,5,3,4,1,2,0,0,250.0,train,5,H+
1072.36099243,2,1000,5,1,5,3,4,1,2,0,0,250.0,train,2,H+
656.401872635,2,1000,5,1,5,3,4,1,2,0,0,250.0,train,2,H+
480.3211689,2,1000,5,1,5,3,4,1,2,0,0,250.0,train,2,H+
960.3099823,0,1000,4,1,5,3,4,1,2,0,0,250.0,train,0,H+
912.622928619,0,1000,4,1,5,3,4,1,2,0,0,250.0,train,0,H+
560.461997986,5,1000,1,1,5,3,4,1,2,0,0,250.0,train,5,H+
768.284082413,1,1000,2,1,5,3,4,1,2,0,0,250.0,train,1,H+
976.486206055,2,1000,5,1,5,3,4,1,2,0,0,250.0,train,2,H+
528.401136398,2,1000,5,1,5,3,4,1,2,0,0,250.0,train,2,H+
608.352184296,2,1000,5,1,5,3,4,1,2,0,0,250.0,train,2,H+
1040.3649807,2,1000,5,1,5,3,4,1,2,0,0,250.0,train,2,H+
1168.35379601,3,1000,0,1,5,3,4,1,2,0,0,250.0,train,3,H+
1936.27095222,4,1000,3,0,5,3,4,1,2,0,0,250.0,train,5,H+
944.285869598,0,1000,4,1,5,3,4,1,2,0,0,250.0,train,0,H+
848.009824753,0,1000,4,1,5,3,4,1,2,0,0,250.0,train,0,H+
1248.44503403,4,1000,3,1,5,3,4,1,2,0,0,250.0,train,4,H+
848.335027695,1,1000,2,1,5,3,4,1,2,0,0,250.0,train,1,H+
528.40590477,5,1000,1,1,5,3,4,1,2,0,0,250.0,train,5,H+
1392.46201515,4,1000,3,1,5,3,4,1,2,0,0,250.0,train,4,H+
832.762002945,2,1000,5,1,5,3,4,1,2,0,0,250.0,train,2,H+
512.400150299,5,1000,1,1,5,3,4,1,2,0,0,250.0,train,5,H+
624.366998672,0,1000,4,1,5,3,4,1,2,0,0,250.0,train,0,H+
1568.43209267,3,1000,0,1,5,3,4,1,2,0,0,250.0,train,3,H+
832.332849503,0,1000,4,1,5,3,4,1,2,0,0,250.0,train,0,H+
432.392120361,5,1000,1,1,5,3,4,1,2,0,0,250.0,train,5,H+
800.096988678,2,1000,5,1,5,3,4,1,2,0,0,250.0,train,2,H+
1072.53599167,3,1000,0,1,5,3,4,1,2,0,0,250.0,train,3,H+
687.793016434,0,1000,4,1,5,3,4,1,2,0,0,250.0,train,0,H+
496.953010559,0,1000,4,1,5,3,4,1,2,0,0,250.0,train,0,H+
944.85616684,3,1000,0,1,5,3,4,1,2,0,0,250.0,train,3,H+
640.26093483,3,1000,0,1,5,3,4,1,2,0,0,250.0,train,3,H+
912.385940552,2,1000,5,1,5,3,4,1,2,0,0,250.0,train,2,H+
560.337781906,4,1000,3,1,5,3,4,1,2,0,0,250.0,train,4,H+
592.385053635,3,1000,0,1,5,3,4,1,2,0,0,250.0,train,3,H+
512.377977371,5,1000,1,1,5,3,4,1,2,0,0,250.0,train,5,H+
656.29696846,1,1000,2,1,5,3,4,1,2,0,0,250.0,train,1,H+
528.31196785,5,1000,1,1,5,3,4,1,2,0,0,250.0,train,5,H+
544.260025024,1,1000,2,1,5,3,4,1,2,0,0,250.0,train,1,H+
528.095006943,0,1000,4,1,5,3,4,1,2,0,0,250.0,train,0,H+
416.246175766,0,1000,4,1,5,3,4,1,2,0,0,250.0,train,0,H+
639.927148819,4,1000,3,1,5,3,4,1,2,0,0,250.0,train,4,H+
576.163053513,0,1000,4,1,5,3,4,1,2,0,0,250.0,train,0,H+
657.12594986,4,1000,3,1,5,3,4,1,2,0,0,250.0,train,4,H+
559.93103981,5,1000,1,1,5,3,4,1,2,0,0,250.0,train,5,H+
944.844007492,2,1000,5,1,5,3,4,1,2,0,0,250.0,train,2,H+
544.923067093,0,1000,4,1,5,3,4,1,2,0,0,250.0,train,0,H+
832.816839218,2,1000,5,1,5,3,4,1,2,0,0,250.0,train,2,H+
768.934965134,4,1000,3,1,5,3,4,1,2,0,0,250.0,train,4,H+
656.800985336,2,1000,5,1,5,3,4,1,2,0,0,250.0,train,2,H+
847.759008408,4,1000,3,1,5,3,4,1,2,0,0,250.0,train,4,H+
704.09488678,1,1000,2,1,5,3,4,1,2,0,0,250.0,train,1,H+
831.915140152,4,1000,3,1,5,3,4,1,2,0,0,250.0,train,4,H+
576.080083847,1,1000,2,1,5,3,4,1,2,0,0,250.0,train,1,H+
1520.15399933,3,1000,0,0,5,3,4,1,2,0,0,250.0,train,2,H+
592.209815979,1,1000,2,1,5,3,4,1,2,0,0,250.0,train,1,H+
512.203931808,5,1000,1,1,5,3,4,1,2,0,0,250.0,train,5,H+
432.248830795,5,1000,1,1,5,3,4,1,2,0,0,250.0,train,5,H+
896.871805191,2,1000,5,1,5,3,4,1,2,0,0,250.0,train,2,H+
2399.87802505,3,1000,0,1,5,3,4,1,2,0,0,250.0,train,3,H+
527.520895004,5,1000,1,1,5,3,4,1,2,0,0,250.0,train,5,H+
688.508987427,2,1000,5,1,5,3,4,1,2,0,0,250.0,train,2,H+
640.470981598,2,1000,5,1,5,3,4,1,2,0,0,250.0,train,2,H+
784.316062927,4,1000,3,0,5,3,4,1,2,0,0,250.0,train,5,H+
560.495138168,5,1000,1,1,5,3,4,1,2,0,0,250.0,train,5,H+
528.357028961,5,1000,1,1,5,3,4,1,2,0,0,250.0,train,5,H+
688.513994217,4,1000,3,1,5,3,4,1,2,0,0,250.0,train,4,H+
560.436964035,5,1000,1,1,5,3,4,1,2,0,0,250.0,train,5,H+
800.493955612,3,1000,0,1,5,3,4,1,2,0,0,250.0,train,3,H+
784.391880035,4,1000,3,1,5,3,4,1,2,0,0,250.0,train,4,H+
832.463026047,3,1000,0,1,5,3,4,1,2,0,0,250.0,train,3,H+
544.004917145,3,1000,0,1,5,3,4,1,2,0,0,250.0,train,3,H+
560.446977615,0,1000,4,1,5,3,4,1,2,0,0,250.0,train,0,H+
576.752901077,0,1000,4,1,5,3,4,1,2,0,0,250.0,train,0,H+
896.369934082,3,1000,0,1,5,3,4,1,2,0,0,250.0,train,3,H+
576.334953308,1,1000,2,1,5,3,4,1,2,0,0,250.0,train,1,H+
720.445156097,4,1000,3,1,5,3,4,1,2,0,0,250.0,train,4,H+
1040.33613205,2,1000,5,1,5,3,4,1,2,0,0,250.0,train,2,H+
704.42700386,4,1000,3,1,5,3,4,1,2,0,0,250.0,train,4,H+
480.458021164,5,1000,1,1,5,3,4,1,2,0,0,250.0,train,5,H+
800.258874893,2,1000,5,1,5,3,4,1,2,0,0,250.0,train,2,H+
528.287172318,1,1000,2,1,5,3,4,1,2,0,0,250.0,train,1,H+
592.787981033,2,1000,5,1,5,3,4,1,2,0,0,250.0,train,2,H+
768.957138062,3,1000,0,1,5,3,4,1,2,0,0,250.0,train,3,H+
1328.08995247,4,1000,3,1,5,3,4,1,2,0,0,250.0,train,4,H+
544.430971146,1,1000,2,1,5,3,4,1,2,0,0,250.0,train,1,H+
192.333936691,2,1000,5,0,5,3,4,1,2,0,0,250.0,train,1,H+
752.444028854,3,1000,0,1,5,3,4,1,2,0,0,250.0,train,3,H+
608.362913132,4,1000,3,1,5,3,4,1,2,0,0,250.0,train,4,H+
1184.47709084,2,1000,5,1,5,3,4,1,2,0,0,250.0,train,2,H+
464.850902557,2,1000,5,1,5,3,4,1,2,0,0,250.0,train,2,H+
528.417110443,1,1000,2,1,5,3,4,1,2,0,0,250.0,train,1,H+
592.02003479,2,1000,5,1,5,3,4,1,2,0,0,250.0,train,2,H+
528.35392952,0,1000,4,1,5,3,4,1,2,0,0,250.0,train,0,H+
768.780946732,4,1000,3,1,5,3,4,1,2,0,0,250.0,train,4,H+
672.147989273,3,1000,0,1,5,3,4,1,2,0,0,250.0,train,3,H+
672.350168228,2,1000,5,1,5,3,4,1,2,0,0,250.0,train,2,H+
512.377977371,5,1000,1,1,5,3,4,1,2,0,0,250.0,train,5,H+
624.346017838,4,1000,3,0,5,3,4,1,2,0,0,250.0,train,3,H+
608.366012573,0,1000,4,1,5,3,4,1,2,0,0,250.0,train,0,H+
592.388153076,1,1000,2,1,5,3,4,1,2,0,0,250.0,train,1,H+
816.389799118,3,1000,0,1,5,3,4,1,2,0,0,250.0,train,3,H+
592.29516983,3,1000,0,1,5,3,4,1,2,0,0,250.0,train,3,H+
593.122005463,3,1000,0,1,5,3,4,1,2,0,0,250.0,train,3,H+
496.340036392,5,1000,1,1,5,3,4,1,2,0,0,250.0,train,5,H+
1424.46398735,2,1000,5,1,5,3,4,1,2,0,0,250.0,train,2,H+
736.382961273,4,1000,3,1,5,3,4,1,2,0,0,250.0,train,4,H+
896.819114685,2,1000,5,1,5,3,4,1,2,0,0,250.0,train,2,H+
768.431901932,4,1000,3,1,5,3,4,1,2,0,0,250.0,train,4,H+
560.439825058,1,1000,2,1,5,3,4,1,2,0,0,250.0,train,1,H+
608.475923538,2,1000,5,1,5,3,4,1,2,0,0,250.0,train,2,H+
720.477104187,4,1000,3,1,5,3,4,1,2,0,0,250.0,train,4,H+
592.478990555,4,1000,3,1,5,3,4,1,2,0,0,250.0,train,4,H+
544.489145279,0,1000,4,1,5,3,4,1,2,0,0,250.0,train,0,H+
528.335094452,1,1000,2,1,5,3,4,1,2,0,0,250.0,train,1,H+
784.471988678,3,1000,0,1,5,3,4,1,2,0,0,250.0,train,3,H+
640.421152115,2,1000,5,1,5,3,4,1,2,0,0,250.0,train,2,H+
752.451896667,4,1000,3,1,5,3,4,1,2,0,0,250.0,train,4,H+
656.048059464,4,1000,3,1,5,3,4,1,2,0,0,250.0,train,4,H+
736.337900162,2,1000,5,1,5,3,4,1,2,0,0,250.0,train,2,H+
576.365947723,1,1000,2,1,5,3,4,1,2,0,0,250.0,train,1,H+
784.360170364,4,1000,3,1,5,3,4,1,2,0,0,250.0,train,4,H+
544.481039047,1,1000,2,1,5,3,4,1,2,0,0,250.0,train,1,H+
544.403076172,0,1000,4,1,5,3,4,1,2,0,0,250.0,train,0,H+
512.328863144,1,1000,2,1,5,3,4,1,2,0,0,250.0,train,1,H+
560.470104218,4,1000,3,1,5,3,4,1,2,0,0,250.0,train,4,H+
592.524051666,4,1000,3,1,5,3,4,1,2,0,0,250.0,train,4,H+
512.429952621,0,1000,4,1,5,3,4,1,2,0,0,250.0,train,0,H+
512.359142303,1,1000,2,1,5,3,4,1,2,0,0,250.0,train,1,H+
544.479131699,4,1000,3,1,5,3,4,1,2,0,0,250.0,train,4,H+
752.29382515,3,1000,0,1,5,3,4,1,2,0,0,250.0,train,3,H+
528.429031372,1,1000,2,1,5,3,4,1,2,0,0,250.0,train,1,H+
544.694900513,5,1000,1,1,5,3,4,1,2,0,0,250.0,train,5,H+
496.328115463,1,1000,2,1,5,3,4,1,2,0,0,250.0,train,1,H+
848.347187042,4,1000,3,1,5,3,4,1,2,0,0,250.0,train,4,H+
608.456134796,3,1000,0,1,5,3,4,1,2,0,0,250.0,train,3,H+
576.508998871,0,1000,4,0,5,3,4,1,2,0,0,250.0,train,1,H+
512.408971786,5,1000,1,1,5,3,4,1,2,0,0,250.0,train,5,H+
368.473052979,5,1000,1,1,5,3,4,1,2,0,0,250.0,train,5,H+
736.273050308,4,1000,3,1,5,3,4,1,2,0,0,250.0,train,4,H+
672.512054443,3,1000,0,1,5,3,4,1,2,0,0,250.0,train,3,H+
912.389993668,2,1000,5,1,5,3,4,1,2,0,0,250.0,train,2,H+
496.412038803,5,1000,1,1,5,3,4,1,2,0,0,250.0,train,5,H+
512.444972992,1,1000,2,1,5,3,4,1,2,0,0,250.0,train,1,H+
640.464067459,3,1000,0,1,5,3,4,1,2,0,0,250.0,train,3,H+
800.529003143,2,1000,5,1,5,3,4,1,2,0,0,250.0,train,2,H+
544.412136078,1,1000,2,1,5,3,4,1,2,0,0,250.0,train,1,H+
624.840021133,0,1000,4,1,5,3,4,1,2,0,0,250.0,train,0,H+
720.391988754,4,1000,3,1,5,3,4,1,2,0,0,250.0,train,4,H+
544.713973999,0,1000,4,1,5,3,4,1,2,0,0,250.0,train,0,H+
752.501010895,3,1000,0,1,5,3,4,1,2,0,0,250.0,train,3,H+
656.591892242,1,1000,2,1,5,3,4,1,2,0,0,250.0,train,1,H+
672.148942947,0,1000,4,1,5,3,4,1,2,0,0,250.0,train,0,H+
592.523097992,0,1000,4,1,5,3,4,1,2,0,0,250.0,train,0,H+
784.491062164,2,1000,5,1,5,3,4,1,2,0,0,250.0,train,2,H+
608.399152756,3,1000,0,1,5,3,4,1,2,0,0,250.0,train,3,H+
688.303947449,4,1000,3,1,5,3,4,1,2,0,0,250.0,train,4,H+
559.943199158,3,1000,0,1,5,3,4,1,2,0,0,250.0,train,3,H+
815.908908844,4,1000,3,1,5,3,4,1,2,0,0,250.0,train,4,H+
528.892040253,5,1000,1,1,5,3,4,1,2,0,0,250.0,train,5,H+
576.880931854,4,1000,3,1,5,3,4,1,2,0,0,250.0,train,4,H+
640.794038773,4,1000,3,1,5,3,4,1,2,0,0,250.0,train,4,H+
607.975959778,1,1000,2,1,5,3,4,1,2,0,0,250.0,train,1,H+
944.073915482,2,1000,5,1,5,3,4,1,2,0,0,250.0,train,2,H+
608.156919479,2,1000,5,1,5,3,4,1,2,0,0,250.0,train,2,H+
624.278068542,0,1000,4,1,5,3,4,1,2,0,0,250.0,train,0,H+
2240.12494087,3,1000,0,1,5,3,4,1,2,0,0,250.0,test,3,H+
752.336978912,4,1000,3,1,5,3,4,1,2,0,0,250.0,test,4,H+
560.415029526,0,1000,4,1,5,3,4,1,2,0,0,250.0,test,0,H+
544.472932816,1,1000,2,1,5,3,4,1,2,0,0,250.0,test,1,H+
432.494878769,1,1000,2,1,5,3,4,1,2,0,0,250.0,test,1,H+
464.385986328,1,1000,2,1,5,3,4,1,2,0,0,250.0,test,1,H+
480.43680191,5,1000,1,1,5,3,4,1,2,0,0,250.0,test,5,H+
736.467838287,4,1000,3,1,5,3,4,1,2,0,0,250.0,test,4,H+
1104.40397263,3,1000,0,1,5,3,4,1,2,0,0,250.0,test,3,H+
592.274904251,0,1000,4,1,5,3,4,1,2,0,0,250.0,test,0,H+
528.439998627,1,1000,2,1,5,3,4,1,2,0,0,250.0,test,1,H+
640.412092209,0,1000,4,1,5,3,4,1,2,0,0,250.0,test,0,H+
512.386083603,5,1000,1,1,5,3,4,1,2,0,0,250.0,test,5,H+
608.355045319,3,1000,0,1,5,3,4,1,2,0,0,250.0,test,3,H+
544.298171997,3,1000,0,1,5,3,4,1,2,0,0,250.0,test,3,H+
544.437885284,0,1000,4,1,5,3,4,1,2,0,0,250.0,test,0,H+
528.297901154,1,1000,2,1,5,3,4,1,2,0,0,250.0,test,1,H+
512.346029282,1,1000,2,1,5,3,4,1,2,0,0,250.0,test,1,H+
416.3210392,1,1000,2,1,5,3,4,1,2,0,0,250.0,test,1,H+
752.177000046,2,1000,5,1,5,3,4,1,2,0,0,250.0,test,2,H+
736.820936203,4,1000,3,1,5,3,4,1,2,0,0,250.0,test,4,H+
511.782884598,1,1000,2,1,5,3,4,1,2,0,0,250.0,test,1,H+
448.232889175,1,1000,2,1,5,3,4,1,2,0,0,250.0,test,1,H+
720.457077026,3,1000,0,1,5,3,4,1,2,0,0,250.0,test,3,H+
544.475078583,0,1000,4,1,5,3,4,1,2,0,0,250.0,test,0,H+
512.486934662,5,1000,1,1,5,3,4,1,2,0,0,250.0,test,5,H+
832.376003265,4,1000,3,1,5,3,4,1,2,0,0,250.0,test,4,H+
576.380968094,3,1000,0,1,5,3,4,1,2,0,0,250.0,test,3,H+
512.376070023,4,1000,3,1,5,3,4,1,2,0,0,250.0,test,4,H+
640.455007553,3,1000,0,1,5,3,4,1,2,0,0,250.0,test,3,H+
672.378063202,4,1000,3,1,5,3,4,1,2,0,0,250.0,test,4,H+
544.303894043,3,1000,0,1,5,3,4,1,2,0,0,250.0,test,3,H+
512.847900391,3,1000,0,1,5,3,4,1,2,0,0,250.0,test,3,H+
512.326955795,4,1000,3,1,5,3,4,1,2,0,0,250.0,test,4,H+
544.743061066,1,1000,2,1,5,3,4,1,2,0,0,250.0,test,1,H+
496.393918991,5,1000,1,1,5,3,4,1,2,0,0,250.0,test,5,H+
912.51206398,2,1000,5,1,5,3,4,1,2,0,0,250.0,test,2,H+
576.263904572,1,1000,2,1,5,3,4,1,2,0,0,250.0,test,1,H+
640.364170074,2,1000,5,1,5,3,4,1,2,0,0,250.0,test,2,H+
528.381824493,5,1000,1,1,5,3,4,1,2,0,0,250.0,test,5,H+
528.445005417,1,1000,2,1,5,3,4,1,2,0,0,250.0,test,1,H+
656.399965286,4,1000,3,1,5,3,4,1,2,0,0,250.0,test,4,H+
560.23311615,0,1000,4,1,5,3,4,1,2,0,0,250.0,test,0,H+
560.279130936,0,1000,4,1,5,3,4,1,2,0,0,250.0,test,0,H+
592.293977737,1,1000,2,1,5,3,4,1,2,0,0,250.0,test,1,H+
624.341011047,4,1000,3,1,5,3,4,1,2,0,0,250.0,test,4,H+
496.345043182,5,1000,1,1,5,3,4,1,2,0,0,250.0,test,5,H+
512.428998947,0,1000,4,1,5,3,4,1,2,0,0,250.0,test,0,H+
1008.48603249,4,1000,3,1,5,3,4,1,2,0,0,250.0,test,4,H+
784.326076508,2,1000,5,1,5,3,4,1,2,0,0,250.0,test,2,H+
495.939970016,5,1000,1,1,5,3,4,1,2,0,0,250.0,test,5,H+
640.67697525,3,1000,0,1,5,3,4,1,2,0,0,250.0,test,3,H+
512.820005417,5,1000,1,1,5,3,4,1,2,0,0,250.0,test,5,H+
496.304035187,5,1000,1,1,5,3,4,1,2,0,0,250.0,test,5,H+
880.391836166,4,1000,3,1,5,3,4,1,2,0,0,250.0,test,4,H+
784.422874451,3,1000,0,1,5,3,4,1,2,0,0,250.0,test,3,H+
608.327865601,4,1000,3,1,5,3,4,1,2,0,0,250.0,test,4,H+
576.380968094,0,1000,4,1,5,3,4,1,2,0,0,250.0,test,0,H+
496.404886246,5,1000,1,1,5,3,4,1,2,0,0,250.0,test,5,H+
688.379049301,1,1000,2,1,5,3,4,1,2,0,0,250.0,test,1,H+
880.492925644,3,1000,0,1,5,3,4,1,2,0,0,250.0,test,3,H+
752.47502327,3,1000,0,1,5,3,4,1,2,0,0,250.0,test,3,H+
720.557928085,4,1000,3,1,5,3,4,1,2,0,0,250.0,test,4,H+
864.518165588,3,1000,0,1,5,3,4,1,2,0,0,250.0,test,3,H+
592.677116394,0,1000,4,1,5,3,4,1,2,0,0,250.0,test,0,H+
512.307882309,0,1000,4,1,5,3,4,1,2,0,0,250.0,test,0,H+
544.400930405,5,1000,1,1,5,3,4,1,2,0,0,250.0,test,5,H+
896.825790405,2,1000,5,1,5,3,4,1,2,0,0,250.0,test,2,H+
672.733068466,0,1000,4,1,5,3,4,1,2,0,0,250.0,test,0,H+
800.48084259,4,1000,3,1,5,3,4,1,2,0,0,250.0,test,4,H+
736.46402359,2,1000,5,1,5,3,4,1,2,0,0,250.0,test,2,H+
480.351924896,5,1000,1,1,5,3,4,1,2,0,0,250.0,test,5,H+
480.390071869,5,1000,1,1,5,3,4,1,2,0,0,250.0,test,5,H+
544.367074966,0,1000,4,1,5,3,4,1,2,0,0,250.0,test,0,H+
704.324007034,2,1000,5,1,5,3,4,1,2,0,0,250.0,test,2,H+
528.317928314,0,1000,4,1,5,3,4,1,2,0,0,250.0,test,0,H+
544.229984283,1,1000,2,1,5,3,4,1,2,0,0,250.0,test,1,H+
512.325048447,5,1000,1,1,5,3,4,1,2,0,0,250.0,test,5,H+
848.502159119,3,1000,0,1,5,3,4,1,2,0,0,250.0,test,3,H+
544.39496994,0,1000,4,1,5,3,4,1,2,0,0,250.0,test,0,H+
768.488168716,2,1000,5,1,5,3,4,1,2,0,0,250.0,test,2,H+
608.384132385,0,1000,4,1,5,3,4,1,2,0,0,250.0,test,0,H+
544.294118881,0,1000,4,1,5,3,4,1,2,0,0,250.0,test,0,H+
928.469896317,3,1000,0,1,5,3,4,1,2,0,0,250.0,test,3,H+
671.866178513,2,1000,5,1,5,3,4,1,2,0,0,250.0,test,2,H+
752.50005722,3,1000,0,1,5,3,4,1,2,0,0,250.0,test,3,H+
544.498205185,1,1000,2,1,5,3,4,1,2,0,0,250.0,test,1,H+
480.254173279,5,1000,1,1,5,3,4,1,2,0,0,250.0,test,5,H+
640.393972397,4,1000,3,1,5,3,4,1,2,0,0,250.0,test,4,H+
624.466896057,4,1000,3,1,5,3,4,1,2,0,0,250.0,test,4,H+
560.359954834,0,1000,4,1,5,3,4,1,2,0,0,250.0,test,0,H+
560.435056686,4,1000,3,1,5,3,4,1,2,0,0,250.0,test,4,H+
592.433929443,0,1000,4,1,5,3,4,1,2,0,0,250.0,test,0,H+
656.496047974,3,1000,0,1,5,3,4,1,2,0,0,250.0,test,3,H+
496.406793594,5,1000,1,1,5,3,4,1,2,0,0,250.0,test,5,H+
512.477874756,0,1000,4,1,5,3,4,1,2,0,0,250.0,test,0,H+
512.457847595,0,1000,4,1,5,3,4,1,2,0,0,250.0,test,0,H+
736.49096489,3,1000,0,1,5,3,4,1,2,0,0,250.0,test,3,H+
576.419115067,3,1000,0,1,5,3,4,1,2,0,0,250.0,test,3,H+
576.371192932,0,1000,4,1,5,3,4,1,2,0,0,250.0,test,0,H+
624.482154846,3,1000,0,1,5,3,4,1,2,0,0,250.0,test,3,H+
496.315002441,0,1000,4,1,5,3,4,1,2,0,0,250.0,test,0,H+
944.54908371,2,1000,5,1,5,3,4,1,2,0,0,250.0,test,2,H+
640.482902527,1,1000,2,1,5,3,4,1,2,0,0,250.0,test,1,H+
640.460014343,0,1000,4,1,5,3,4,1,2,0,0,250.0,test,0,H+
576.421976089,1,1000,2,1,5,3,4,1,2,0,0,250.0,test,1,H+
576.956987381,2,1000,5,1,5,3,4,1,2,0,0,250.0,test,2,H+
560.800075531,3,1000,0,1,5,3,4,1,2,0,0,250.0,test,3,H+
528.856039047,1,1000,2,1,5,3,4,1,2,0,0,250.0,test,1,H+
880.421876907,0,1000,4,0,5,3,4,1,2,0,0,250.0,test,1,H+
608.319044113,5,1000,1,1,5,3,4,1,2,0,0,250.0,test,5,H+
656.325101852,4,1000,3,1,5,3,4,1,2,0,0,250.0,test,4,H+
752.357006073,3,1000,0,1,5,3,4,1,2,0,0,250.0,test,3,H+
688.346147537,1,1000,2,1,5,3,4,1,2,0,0,250.0,test,1,H+
607.860088348,3,1000,0,1,5,3,4,1,2,0,0,250.0,test,3,H+
608.245134354,4,1000,3,1,5,3,4,1,2,0,0,250.0,test,4,H+
607.889175415,1,1000,2,1,5,3,4,1,2,0,0,250.0,test,1,H+
624.875068665,3,1000,0,1,5,3,4,1,2,0,0,250.0,test,3,H+
752.002954483,5,1000,1,1,5,3,4,1,2,0,0,250.0,test,5,H+
559.906005859,4,1000,3,1,5,3,4,1,2,0,0,250.0,test,4,H+
752.447128296,0,1000,4,1,5,3,4,1,2,0,0,250.0,test,0,H+
592.366933823,4,1000,3,1,5,3,4,1,2,0,0,250.0,test,4,H+
576.315879822,0,1000,4,1,5,3,4,1,2,0,0,250.0,test,0,H+
544.445037842,1,1000,2,1,5,3,4,1,2,0,0,250.0,test,1,H+
608.127117157,0,1000,4,1,5,3,4,1,2,0,0,250.0,test,0,H+
800.885915756,2,1000,5,1,5,3,4,1,2,0,0,250.0,test,2,H+
608.865022659,1,1000,2,1,5,3,4,1,2,0,0,250.0,test,1,H+
736.02104187,2,1000,5,1,5,3,4,1,2,0,0,250.0,test,2,H+
560.775995255,5,1000,1,1,5,3,4,1,2,0,0,250.0,test,5,H+
608.163833618,1,1000,2,1,5,3,4,1,2,0,0,250.0,test,1,H+
496.798992157,1,1000,2,1,5,3,4,1,2,0,0,250.0,test,1,H+
495.46790123,1,1000,2,1,5,3,4,1,2,0,0,250.0,test,1,H+
447.811841965,1,1000,2,1,5,3,4,1,2,0,0,250.0,test,1,H+
736.061811447,3,1000,0,1,5,3,4,1,2,0,0,250.0,test,3,H+
736.809015274,4,1000,3,1,5,3,4,1,2,0,0,250.0,test,4,H+
624.827861786,0,1000,4,1,5,3,4,1,2,0,0,250.0,test,0,H+
800.884008408,3,1000,0,1,5,3,4,1,2,0,0,250.0,test,3,H+
528.759002686,5,1000,1,1,5,3,4,1,2,0,0,250.0,test,5,H+
607.969999313,0,1000,4,1,5,3,4,1,2,0,0,250.0,test,0,H+
720.171928406,2,1000,5,1,5,3,4,1,2,0,0,250.0,test,2,H+
607.978820801,2,1000,5,1,5,3,4,1,2,0,0,250.0,test,2,H+
656.83889389,4,1000,3,1,5,3,4,1,2,0,0,250.0,test,4,H+
608.289957047,4,1000,3,1,5,3,4,1,2,0,0,250.0,test,4,H+
656.851053238,3,1000,0,1,5,3,4,1,2,0,0,250.0,test,3,H+
543.792009354,1,1000,2,0,5,3,4,1,2,0,0,250.0,test,0,H+
992.924928665,3,1000,0,1,5,3,4,1,2,0,0,250.0,test,3,H+
624.285936356,4,1000,3,1,5,3,4,1,2,0,0,250.0,test,4,H+
528.434038162,4,1000,3,1,5,3,4,1,2,0,0,250.0,test,4,H+
672.489881516,2,1000,5,1,5,3,4,1,2,0,0,250.0,test,2,H+
576.480150223,0,1000,4,1,5,3,4,1,2,0,0,250.0,test,0,H+
608.384132385,2,1000,5,0,5,3,4,1,2,0,0,250.0,test,1,H+
464.337825775,2,1000,5,1,5,3,4,1,2,0,0,250.0,test,2,H+
528.482913971,2,1000,5,1,5,3,4,1,2,0,0,250.0,test,2,H+
592.425107956,5,1000,1,1,5,3,4,1,2,0,0,250.0,test,5,H+
592.259883881,0,1000,4,1,5,3,4,1,2,0,0,250.0,test,0,H+
560.492992401,2,1000,5,1,5,3,4,1,2,0,0,250.0,test,2,H+
464.365005493,2,1000,5,1,5,3,4,1,2,0,0,250.0,test,2,H+
816.349029541,4,1000,3,1,5,3,4,1,2,0,0,250.0,test,4,H+
560.361146927,2,1000,5,1,5,3,4,1,2,0,0,250.0,test,2,H+
528.450012207,2,1000,5,1,5,3,4,1,2,0,0,250.0,test,2,H+
528.404951096,5,1000,1,1,5,3,4,1,2,0,0,250.0,test,5,H+
544.330120087,2,1000,5,1,5,3,4,1,2,0,0,250.0,test,2,H+
592.417001724,0,1000,4,1,5,3,4,1,2,0,0,250.0,test,0,H+
768.327951431,3,1000,0,1,5,3,4,1,2,0,0,250.0,test,3,H+
464.356899261,2,1000,5,1,5,3,4,1,2,0,0,250.0,test,2,H+
575.87313652,0,1000,4,1,5,3,4,1,2,0,0,250.0,test,0,H+
672.46222496,4,1000,3,1,5,3,4,1,2,0,0,250.0,test,4,H+
592.38910675,4,1000,3,1,5,3,4,1,2,0,0,250.0,test,4,H+
576.386928558,3,1000,0,1,5,3,4,1,2,0,0,250.0,test,3,H+
528.429031372,2,1000,5,1,5,3,4,1,2,0,0,250.0,test,2,H+
528.000116348,1,1000,2,1,5,3,4,1,2,0,0,250.0,test,1,H+
608.9220047,4,1000,3,1,5,3,4,1,2,0,0,250.0,test,4,H+
512.041807175,5,1000,1,1,5,3,4,1,2,0,0,250.0,test,5,H+
575.881958008,0,1000,4,1,5,3,4,1,2,0,0,250.0,test,0,H+
687.944173813,4,1000,3,1,5,3,4,1,2,0,0,250.0,test,4,H+
560.809135437,1,1000,2,1,5,3,4,1,2,0,0,250.0,test,1,H+
672.379970551,3,1000,0,1,5,3,4,1,2,0,0,250.0,test,3,H+
528.75995636,5,1000,1,1,5,3,4,1,2,0,0,250.0,test,5,H+
688.808917999,4,1000,3,1,5,3,4,1,2,0,0,250.0,test,4,H+
656.78191185,4,1000,3,1,5,3,4,1,2,0,0,250.0,test,4,H+
656.798124313,3,1000,0,1,5,3,4,1,2,0,0,250.0,test,3,H+
511.885881424,5,1000,1,1,5,3,4,1,2,0,0,250.0,test,5,H+
608.716964722,0,1000,4,1,5,3,4,1,2,0,0,250.0,test,0,H+
543.439865112,5,1000,1,1,5,3,4,1,2,0,0,250.0,test,5,H+
592.808008194,1,1000,2,1,5,3,4,1,2,0,0,250.0,test,1,H+
559.477806091,2,1000,5,1,5,3,4,1,2,0,0,250.0,test,2,H+
544.790029526,1,1000,2,1,5,3,4,1,2,0,0,250.0,test,1,H+
496.201992035,5,1000,1,1,5,3,4,1,2,0,0,250.0,test,5,H+
576.823949814,0,1000,4,1,5,3,4,1,2,0,0,250.0,test,0,H+
592.241048813,2,1000,5,1,5,3,4,1,2,0,0,250.0,test,2,H+
704.833984375,3,1000,0,1,5,3,4,1,2,0,0,250.0,test,3,H+
528.570890427,3,1000,0,1,5,3,4,1,2,0,0,250.0,test,3,H+
560.786008835,2,1000,5,1,5,3,4,1,2,0,0,250.0,test,2,H+
800.720930099,4,1000,3,1,5,3,4,1,2,0,0,250.0,test,4,H+
544.86489296,1,1000,2,1,5,3,4,1,2,0,0,250.0,test,1,H+
495.975017548,5,1000,1,1,5,3,4,1,2,0,0,250.0,test,5,H+
512.871026993,5,1000,1,1,5,3,4,1,2,0,0,250.0,test,5,H+
944.453001022,4,1000,3,1,5,3,4,1,2,0,0,250.0,test,4,H+
512.012004852,3,1000,0,1,5,3,4,1,2,0,0,250.0,test,3,H+
591.644048691,1,1000,2,1,5,3,4,1,2,0,0,250.0,test,1,H+
655.982017517,3,1000,0,1,5,3,4,1,2,0,0,250.0,test,3,H+
608.343839645,2,1000,5,1,5,3,4,1,2,0,0,250.0,test,2,H+
608.666181564,5,1000,1,1,5,3,4,1,2,0,0,250.0,test,5,H+
415.544986725,5,1000,1,1,5,3,4,1,2,0,0,250.0,test,5,H+
592.845916748,0,1000,4,1,5,3,4,1,2,0,0,250.0,test,0,H+
672.775030136,3,1000,0,1,5,3,4,1,2,0,0,250.0,test,3,H+
576.008081436,0,1000,4,1,5,3,4,1,2,0,0,250.0,test,0,H+
592.448949814,1,1000,2,1,5,3,4,1,2,0,0,250.0,test,1,H+
576.318979263,3,1000,0,1,5,3,4,1,2,0,0,250.0,test,3,H+
671.82302475,0,1000,4,1,5,3,4,1,2,0,0,250.0,test,0,H+
800.875902176,5,1000,1,1,5,3,4,1,2,0,0,250.0,test,5,H+
624.263048172,3,1000,0,1,5,3,4,1,2,0,0,250.0,test,3,H+
1344.76208687,2,1000,5,0,5,3,4,1,2,0,0,250.0,test,1,H+
608.274936676,1,1000,2,1,5,3,4,1,2,0,0,250.0,test,1,H+
608.641147614,1,1000,2,1,5,3,4,1,2,0,0,250.0,test,1,H+
543.850898743,1,1000,2,1,5,3,4,1,2,0,0,250.0,test,1,H+
559.659004211,1,1000,2,1,5,3,4,1,2,0,0,250.0,test,1,H+
416.787862778,1,1000,2,1,5,3,4,1,2,0,0,250.0,test,1,H+
608.577013016,3,1000,0,1,5,3,4,1,2,0,0,250.0,test,3,H+
528.831958771,5,1000,1,1,5,3,4,1,2,0,0,250.0,test,5,H+
736.824035645,2,1000,5,1,5,3,4,1,2,0,0,250.0,test,2,H+
815.687894821,4,1000,3,1,5,3,4,1,2,0,0,250.0,test,4,H+
1407.52005577,1,1000,2,1,5,3,4,1,2,0,0,250.0,test,1,H+
928.23600769,4,1000,3,1,5,3,4,1,2,0,0,250.0,test,4,H+
512.825965881,5,1000,1,1,5,3,4,1,2,0,0,250.0,test,5,H+
768.445014954,2,1000,5,1,5,3,4,1,2,0,0,250.0,test,2,H+
591.733217239,4,1000,3,1,5,3,4,1,2,0,0,250.0,test,4,H+
655.990123749,0,1000,4,1,5,3,4,1,2,0,0,250.0,test,0,H+
704.861879349,4,1000,3,1,5,3,4,1,2,0,0,250.0,test,4,H+
704.2760849,1,1000,2,1,5,3,4,1,2,0,0,250.0,test,1,H+
608.000993729,2,1000,5,1,5,3,4,1,2,0,0,250.0,test,2,H+
688.162088394,3,1000,0,1,5,3,4,1,2,0,0,250.0,test,3,H+
624.849081039,3,1000,0,1,5,3,4,1,2,0,0,250.0,test,3,H+
592.993974686,0,1000,4,1,5,3,4,1,2,0,0,250.0,test,0,H+
592.795133591,0,1000,4,1,5,3,4,1,2,0,0,250.0,test,0,H+
624.794006348,2,1000,5,1,5,3,4,1,2,0,0,250.0,test,2,H+
1120.38397789,3,1000,0,1,5,3,4,1,2,0,0,250.0,test,3,H+
656.109809875,3,1000,0,1,5,3,4,1,2,0,0,250.0,test,3,H+
639.873027802,2,1000,5,1,5,3,4,1,2,0,0,250.0,test,2,H+
591.315031052,1,1000,2,1,5,3,4,1,2,0,0,250.0,test,1,H+
655.810117722,0,1000,4,1,5,3,4,1,2,0,0,250.0,test,0,H+
1376.35207176,2,1000,5,1,5,3,4,1,2,0,0,250.0,test,2,H+
656.378984451,4,1000,3,1,5,3,4,1,2,0,0,250.0,test,4,H+
528.892040253,1,1000,2,1,5,3,4,1,2,0,0,250.0,test,1,H+
640.829086304,2,1000,5,1,5,3,4,1,2,0,0,250.0,test,2,H+
447.87311554,2,1000,5,1,5,3,4,1,2,0,0,250.0,test,2,H+
543.86806488,5,1000,1,1,5,3,4,1,2,0,0,250.0,test,5,H+
592.853069305,4,1000,3,1,5,3,4,1,2,0,0,250.0,test,4,H+
623.857021332,2,1000,5,1,5,3,4,1,2,0,0,250.0,test,2,H+
591.856002808,4,1000,3,1,5,3,4,1,2,0,0,250.0,test,4,H+
