RT,correct_response,ms-prestimblank,curstim,correct,SRmap_1,SRmap_0,SRmap_3,SRmap_2,SRmap_5,SRmap_4,ms-precue,ntrials,type,response,condition
5150.77996254,5,1000,0,1,1,5,0,2,3,4,0,250.0,train,5,M
848.156929016,2,1000,2,1,1,5,0,2,3,4,0,250.0,train,2,M
592.236042023,5,1000,0,1,1,5,0,2,3,4,0,250.0,train,5,M
463.055849075,0,1000,3,1,1,5,0,2,3,4,0,250.0,train,0,M
608.66689682,3,1000,5,0,1,5,0,2,3,4,0,250.0,train,2,M
528.188943863,0,1000,3,1,1,5,0,2,3,4,0,250.0,train,0,M
512.130022049,5,1000,0,1,1,5,0,2,3,4,0,250.0,train,5,M
608.198165894,4,1000,4,1,1,5,0,2,3,4,0,250.0,train,4,M
448.701858521,0,1000,3,1,1,5,0,2,3,4,0,250.0,train,0,M
464.205026627,0,1000,3,1,1,5,0,2,3,4,0,250.0,train,0,M
912.32419014,3,1000,5,1,1,5,0,2,3,4,0,250.0,train,3,M
464.312076569,0,1000,3,1,1,5,0,2,3,4,0,250.0,train,0,M
416.263818741,0,1000,3,1,1,5,0,2,3,4,0,250.0,train,0,M
688.560962677,5,1000,0,1,1,5,0,2,3,4,0,250.0,train,5,M
480.796813965,0,1000,3,1,1,5,0,2,3,4,0,250.0,train,0,M
800.38189888,3,1000,5,1,1,5,0,2,3,4,0,250.0,train,3,M
736.190080643,4,1000,4,1,1,5,0,2,3,4,0,250.0,train,4,M
560.534954071,4,1000,4,1,1,5,0,2,3,4,0,250.0,train,4,M
448.23718071,5,1000,0,1,1,5,0,2,3,4,0,250.0,train,5,M
560.375928879,3,1000,5,0,1,5,0,2,3,4,0,250.0,train,5,M
912.272930145,1,1000,1,1,1,5,0,2,3,4,0,250.0,train,1,M
560.387134552,5,1000,0,1,1,5,0,2,3,4,0,250.0,train,5,M
496.526002884,5,1000,0,1,1,5,0,2,3,4,0,250.0,train,5,M
1024.33395386,3,1000,5,1,1,5,0,2,3,4,0,250.0,train,3,M
480.850934982,0,1000,3,1,1,5,0,2,3,4,0,250.0,train,0,M
448.426008224,0,1000,3,1,1,5,0,2,3,4,0,250.0,train,0,M
464.354038239,5,1000,0,1,1,5,0,2,3,4,0,250.0,train,5,M
592.555999756,1,1000,1,1,1,5,0,2,3,4,0,250.0,train,1,M
416.401863098,5,1000,0,1,1,5,0,2,3,4,0,250.0,train,5,M
752.348899841,2,1000,2,1,1,5,0,2,3,4,0,250.0,train,2,M
416.385173798,5,1000,0,1,1,5,0,2,3,4,0,250.0,train,5,M
384.402990341,5,1000,0,1,1,5,0,2,3,4,0,250.0,train,5,M
416.396856308,4,1000,4,0,1,5,0,2,3,4,0,250.0,train,5,M
464.313030243,4,1000,4,1,1,5,0,2,3,4,0,250.0,train,4,M
848.284006119,1,1000,1,1,1,5,0,2,3,4,0,250.0,train,1,M
336.782932281,0,1000,3,1,1,5,0,2,3,4,0,250.0,train,0,M
400.29001236,0,1000,3,1,1,5,0,2,3,4,0,250.0,train,0,M
672.341108322,3,1000,5,1,1,5,0,2,3,4,0,250.0,train,3,M
528.520107269,2,1000,2,1,1,5,0,2,3,4,0,250.0,train,2,M
417.100191116,1,1000,1,1,1,5,0,2,3,4,0,250.0,train,1,M
400.757074356,5,1000,0,1,1,5,0,2,3,4,0,250.0,train,5,M
384.770154953,4,1000,4,1,1,5,0,2,3,4,0,250.0,train,4,M
575.50406456,1,1000,1,1,1,5,0,2,3,4,0,250.0,train,1,M
368.278026581,2,1000,2,0,1,5,0,2,3,4,0,250.0,train,0,M
528.189182281,1,1000,1,1,1,5,0,2,3,4,0,250.0,train,1,M
511.435985565,5,1000,0,1,1,5,0,2,3,4,0,250.0,train,5,M
624.356031418,2,1000,2,1,1,5,0,2,3,4,0,250.0,train,2,M
512.692928314,1,1000,1,1,1,5,0,2,3,4,0,250.0,train,1,M
464.199066162,2,1000,2,0,1,5,0,2,3,4,0,250.0,train,1,M
576.240062714,3,1000,5,1,1,5,0,2,3,4,0,250.0,train,3,M
480.064153671,3,1000,5,1,1,5,0,2,3,4,0,250.0,train,3,M
480.190038681,1,1000,1,1,1,5,0,2,3,4,0,250.0,train,1,M
431.619882584,5,1000,0,1,1,5,0,2,3,4,0,250.0,train,5,M
383.764028549,5,1000,0,1,1,5,0,2,3,4,0,250.0,train,5,M
447.885036469,0,1000,3,1,1,5,0,2,3,4,0,250.0,train,0,M
399.438142776,2,1000,2,1,1,5,0,2,3,4,0,250.0,train,2,M
431.82516098,4,1000,4,0,1,5,0,2,3,4,0,250.0,train,5,M
672.060012817,3,1000,5,1,1,5,0,2,3,4,0,250.0,train,3,M
512.270927429,2,1000,2,1,1,5,0,2,3,4,0,250.0,train,2,M
591.693162918,2,1000,2,1,1,5,0,2,3,4,0,250.0,train,2,M
463.593959808,5,1000,0,1,1,5,0,2,3,4,0,250.0,train,5,M
416.033029556,5,1000,0,1,1,5,0,2,3,4,0,250.0,train,5,M
480.734109879,1,1000,1,0,1,5,0,2,3,4,0,250.0,train,0,M
575.550079346,5,1000,0,1,1,5,0,2,3,4,0,250.0,train,5,M
480.237960815,1,1000,1,1,1,5,0,2,3,4,0,250.0,train,1,M
464.095115662,1,1000,1,1,1,5,0,2,3,4,0,250.0,train,1,M
528.126001358,3,1000,5,0,1,5,0,2,3,4,0,250.0,train,4,M
608.081102371,3,1000,5,1,1,5,0,2,3,4,0,250.0,train,3,M
480.334043503,0,1000,3,1,1,5,0,2,3,4,0,250.0,train,0,M
464.173078537,0,1000,3,1,1,5,0,2,3,4,0,250.0,train,0,M
736.186981201,4,1000,4,1,1,5,0,2,3,4,0,250.0,train,4,M
448.013782501,0,1000,3,1,1,5,0,2,3,4,0,250.0,train,0,M
464.141845703,0,1000,3,1,1,5,0,2,3,4,0,250.0,train,0,M
928.702116013,3,1000,5,1,1,5,0,2,3,4,0,250.0,train,3,M
896.764039993,5,1000,0,1,1,5,0,2,3,4,0,250.0,train,5,M
464.815139771,5,1000,0,1,1,5,0,2,3,4,0,250.0,train,5,M
528.367042542,1,1000,1,1,1,5,0,2,3,4,0,250.0,train,1,M
575.29592514,5,1000,0,1,1,5,0,2,3,4,0,250.0,train,5,M
464.12396431,1,1000,1,1,1,5,0,2,3,4,0,250.0,train,1,M
656.08382225,5,1000,0,1,1,5,0,2,3,4,0,250.0,train,5,M
448.533058167,0,1000,3,1,1,5,0,2,3,4,0,250.0,train,0,M
352.093935013,0,1000,3,1,1,5,0,2,3,4,0,250.0,train,0,M
816.071987152,4,1000,4,1,1,5,0,2,3,4,0,250.0,train,4,M
415.614128113,0,1000,3,1,1,5,0,2,3,4,0,250.0,train,0,M
512.247085571,5,1000,0,1,1,5,0,2,3,4,0,250.0,train,5,M
511.685848236,3,1000,5,1,1,5,0,2,3,4,0,250.0,train,3,M
416.174888611,1,1000,1,1,1,5,0,2,3,4,0,250.0,train,1,M
431.880950928,1,1000,1,1,1,5,0,2,3,4,0,250.0,train,1,M
511.82103157,5,1000,0,1,1,5,0,2,3,4,0,250.0,train,5,M
544.188022614,1,1000,1,1,1,5,0,2,3,4,0,250.0,train,1,M
400.890111923,1,1000,1,1,1,5,0,2,3,4,0,250.0,train,1,M
512.187957764,2,1000,2,1,1,5,0,2,3,4,0,250.0,train,2,M
448.497056961,1,1000,1,1,1,5,0,2,3,4,0,250.0,train,1,M
448.532104492,4,1000,4,1,1,5,0,2,3,4,0,250.0,train,4,M
432.784080505,2,1000,2,1,1,5,0,2,3,4,0,250.0,train,2,M
480.221033096,5,1000,0,1,1,5,0,2,3,4,0,250.0,train,5,M
432.718038559,1,1000,1,1,1,5,0,2,3,4,0,250.0,train,1,M
416.306018829,0,1000,3,1,1,5,0,2,3,4,0,250.0,train,0,M
352.212905884,1,1000,1,1,1,5,0,2,3,4,0,250.0,train,1,M
624.165058136,5,1000,0,1,1,5,0,2,3,4,0,250.0,train,5,M
448.532104492,0,1000,3,1,1,5,0,2,3,4,0,250.0,train,0,M
512.360811234,4,1000,4,1,1,5,0,2,3,4,0,250.0,train,4,M
496.403932571,2,1000,2,1,1,5,0,2,3,4,0,250.0,train,2,M
432.27314949,1,1000,1,1,1,5,0,2,3,4,0,250.0,train,1,M
448.530197144,1,1000,1,1,1,5,0,2,3,4,0,250.0,train,1,M
464.434146881,4,1000,4,1,1,5,0,2,3,4,0,250.0,train,4,M
624.387025833,3,1000,5,1,1,5,0,2,3,4,0,250.0,train,3,M
480.483055115,5,1000,0,1,1,5,0,2,3,4,0,250.0,train,5,M
432.394981384,0,1000,3,1,1,5,0,2,3,4,0,250.0,train,0,M
432.880878448,2,1000,2,1,1,5,0,2,3,4,0,250.0,train,2,M
384.51385498,1,1000,1,1,1,5,0,2,3,4,0,250.0,train,1,M
448.307991028,0,1000,3,1,1,5,0,2,3,4,0,250.0,train,0,M
592.428207397,3,1000,5,1,1,5,0,2,3,4,0,250.0,train,3,M
448.464870453,1,1000,1,1,1,5,0,2,3,4,0,250.0,train,1,M
448.580026627,3,1000,5,1,1,5,0,2,3,4,0,250.0,train,3,M
384.452819824,5,1000,0,1,1,5,0,2,3,4,0,250.0,train,5,M
448.570966721,4,1000,4,1,1,5,0,2,3,4,0,250.0,train,4,M
496.501922607,5,1000,0,1,1,5,0,2,3,4,0,250.0,train,5,M
432.343006134,5,1000,0,1,1,5,0,2,3,4,0,250.0,train,5,M
400.485038757,1,1000,1,1,1,5,0,2,3,4,0,250.0,train,1,M
320.419073105,0,1000,3,1,1,5,0,2,3,4,0,250.0,train,0,M
464.848995209,2,1000,2,1,1,5,0,2,3,4,0,250.0,train,2,M
496.454000473,3,1000,5,1,1,5,0,2,3,4,0,250.0,train,3,M
352.380037308,3,1000,5,0,1,5,0,2,3,4,0,250.0,train,2,M
448.722839355,1,1000,1,1,1,5,0,2,3,4,0,250.0,train,1,M
512.340068817,2,1000,2,1,1,5,0,2,3,4,0,250.0,train,2,M
400.447130203,5,1000,0,1,1,5,0,2,3,4,0,250.0,train,5,M
384.31096077,2,1000,2,1,1,5,0,2,3,4,0,250.0,train,2,M
480.355978012,5,1000,0,1,1,5,0,2,3,4,0,250.0,train,5,M
464.500188828,3,1000,5,1,1,5,0,2,3,4,0,250.0,train,3,M
528.409004211,4,1000,4,1,1,5,0,2,3,4,0,250.0,train,4,M
608.393192291,3,1000,5,1,1,5,0,2,3,4,0,250.0,train,3,M
448.241949081,5,1000,0,1,1,5,0,2,3,4,0,250.0,train,5,M
400.209903717,3,1000,5,1,1,5,0,2,3,4,0,250.0,train,3,M
527.555942535,1,1000,1,1,1,5,0,2,3,4,0,250.0,train,1,M
431.319952011,2,1000,2,1,1,5,0,2,3,4,0,250.0,train,2,M
400.764942169,1,1000,1,1,1,5,0,2,3,4,0,250.0,train,1,M
400.677919388,1,1000,1,1,1,5,0,2,3,4,0,250.0,train,1,M
480.031967163,1,1000,1,1,1,5,0,2,3,4,0,250.0,train,1,M
432.219982147,5,1000,0,1,1,5,0,2,3,4,0,250.0,train,5,M
384.1381073,2,1000,2,0,1,5,0,2,3,4,0,250.0,train,3,M
591.634988785,3,1000,5,1,1,5,0,2,3,4,0,250.0,train,3,M
368.815898895,2,1000,2,1,1,5,0,2,3,4,0,250.0,train,2,M
608.48402977,3,1000,5,1,1,5,0,2,3,4,0,250.0,train,3,M
464.426040649,2,1000,2,1,1,5,0,2,3,4,0,250.0,train,2,M
480.270862579,1,1000,1,1,1,5,0,2,3,4,0,250.0,train,1,M
480.346918106,3,1000,5,1,1,5,0,2,3,4,0,250.0,train,3,M
384.364843369,5,1000,0,1,1,5,0,2,3,4,0,250.0,train,5,M
448.90499115,4,1000,4,1,1,5,0,2,3,4,0,250.0,train,4,M
528.352022171,4,1000,4,1,1,5,0,2,3,4,0,250.0,train,4,M
352.372169495,3,1000,5,1,1,5,0,2,3,4,0,250.0,train,3,M
528.569936752,4,1000,4,1,1,5,0,2,3,4,0,250.0,train,4,M
512.398958206,0,1000,3,1,1,5,0,2,3,4,0,250.0,train,0,M
496.320962906,4,1000,4,1,1,5,0,2,3,4,0,250.0,train,4,M
432.78002739,1,1000,1,1,1,5,0,2,3,4,0,250.0,train,1,M
448.407173157,0,1000,3,0,1,5,0,2,3,4,0,250.0,train,1,M
512.257099152,5,1000,0,1,1,5,0,2,3,4,0,250.0,train,5,M
448.439121246,5,1000,0,1,1,5,0,2,3,4,0,250.0,train,5,M
416.420936584,4,1000,4,1,1,5,0,2,3,4,0,250.0,train,4,M
576.539993286,5,1000,0,1,1,5,0,2,3,4,0,250.0,train,5,M
512.356996536,3,1000,5,1,1,5,0,2,3,4,0,250.0,train,3,M
480.381011963,4,1000,4,1,1,5,0,2,3,4,0,250.0,train,4,M
480.465888977,4,1000,4,1,1,5,0,2,3,4,0,250.0,train,4,M
464.504003525,5,1000,0,1,1,5,0,2,3,4,0,250.0,train,5,M
576.469898224,4,1000,4,1,1,5,0,2,3,4,0,250.0,train,4,M
432.428836823,5,1000,0,1,1,5,0,2,3,4,0,250.0,train,5,M
560.277938843,3,1000,5,1,1,5,0,2,3,4,0,250.0,train,3,M
463.948011398,5,1000,0,0,1,5,0,2,3,4,0,250.0,train,4,M
496.829986572,3,1000,5,1,1,5,0,2,3,4,0,250.0,train,3,M
352.413892746,4,1000,4,1,1,5,0,2,3,4,0,250.0,train,4,M
495.895147324,0,1000,3,1,1,5,0,2,3,4,0,250.0,train,0,M
544.271945953,3,1000,5,1,1,5,0,2,3,4,0,250.0,train,3,M
384.341001511,5,1000,0,1,1,5,0,2,3,4,0,250.0,train,5,M
416.238069534,0,1000,3,1,1,5,0,2,3,4,0,250.0,train,0,M
496.334791183,3,1000,5,1,1,5,0,2,3,4,0,250.0,train,3,M
576.42698288,5,1000,0,1,1,5,0,2,3,4,0,250.0,train,5,M
480.395078659,4,1000,4,1,1,5,0,2,3,4,0,250.0,train,4,M
400.227069855,0,1000,3,1,1,5,0,2,3,4,0,250.0,train,0,M
576.335906982,3,1000,5,1,1,5,0,2,3,4,0,250.0,train,3,M
448.240995407,5,1000,0,1,1,5,0,2,3,4,0,250.0,train,5,M
480.257034302,5,1000,0,1,1,5,0,2,3,4,0,250.0,train,5,M
431.632995605,0,1000,3,1,1,5,0,2,3,4,0,250.0,train,0,M
464.370965958,1,1000,1,1,1,5,0,2,3,4,0,250.0,train,1,M
400.162935257,0,1000,3,1,1,5,0,2,3,4,0,250.0,train,0,M
528.242111206,3,1000,5,1,1,5,0,2,3,4,0,250.0,train,3,M
416.76902771,2,1000,2,1,1,5,0,2,3,4,0,250.0,train,2,M
496.795892715,3,1000,5,1,1,5,0,2,3,4,0,250.0,train,3,M
431.828022003,2,1000,2,1,1,5,0,2,3,4,0,250.0,train,2,M
448.667049408,3,1000,5,1,1,5,0,2,3,4,0,250.0,train,3,M
447.640180588,5,1000,0,1,1,5,0,2,3,4,0,250.0,train,5,M
448.752164841,5,1000,0,1,1,5,0,2,3,4,0,250.0,train,5,M
319.615125656,3,1000,5,1,1,5,0,2,3,4,0,250.0,train,3,M
416.146993637,0,1000,3,1,1,5,0,2,3,4,0,250.0,train,0,M
495.234012604,3,1000,5,1,1,5,0,2,3,4,0,250.0,train,3,M
431.981086731,1,1000,1,1,1,5,0,2,3,4,0,250.0,train,1,M
400.215864182,5,1000,0,1,1,5,0,2,3,4,0,250.0,train,5,M
400.737047195,2,1000,2,1,1,5,0,2,3,4,0,250.0,train,2,M
320.748090744,5,1000,0,1,1,5,0,2,3,4,0,250.0,train,5,M
368.758916855,0,1000,3,1,1,5,0,2,3,4,0,250.0,train,0,M
352.723121643,3,1000,5,1,1,5,0,2,3,4,0,250.0,train,3,M
368.804931641,2,1000,2,1,1,5,0,2,3,4,0,250.0,train,2,M
416.700839996,0,1000,3,1,1,5,0,2,3,4,0,250.0,train,0,M
432.662963867,0,1000,3,1,1,5,0,2,3,4,0,250.0,train,0,M
479.981899261,4,1000,4,0,1,5,0,2,3,4,0,250.0,train,5,M
480.289936066,1,1000,1,1,1,5,0,2,3,4,0,250.0,train,1,M
480.373859406,4,1000,4,1,1,5,0,2,3,4,0,250.0,train,4,M
448.357820511,1,1000,1,1,1,5,0,2,3,4,0,250.0,train,1,M
528.262138367,5,1000,0,0,1,5,0,2,3,4,0,250.0,train,4,M
480.098009109,4,1000,4,1,1,5,0,2,3,4,0,250.0,train,4,M
495.918989182,2,1000,2,1,1,5,0,2,3,4,0,250.0,train,2,M
432.720899582,3,1000,5,1,1,5,0,2,3,4,0,250.0,train,3,M
543.623924255,4,1000,4,1,1,5,0,2,3,4,0,250.0,train,4,M
432.261943817,1,1000,1,1,1,5,0,2,3,4,0,250.0,train,1,M
512.501955032,5,1000,0,1,1,5,0,2,3,4,0,250.0,train,5,M
416.45693779,0,1000,3,1,1,5,0,2,3,4,0,250.0,train,0,M
720.411062241,4,1000,4,1,1,5,0,2,3,4,0,250.0,train,4,M
480.454921722,5,1000,0,1,1,5,0,2,3,4,0,250.0,train,5,M
416.340827942,1,1000,1,1,1,5,0,2,3,4,0,250.0,train,1,M
448.427915573,5,1000,0,1,1,5,0,2,3,4,0,250.0,train,5,M
432.217121124,3,1000,5,1,1,5,0,2,3,4,0,250.0,train,3,M
464.385032654,4,1000,4,1,1,5,0,2,3,4,0,250.0,train,4,M
448.100090027,5,1000,0,1,1,5,0,2,3,4,0,250.0,train,5,M
431.324958801,4,1000,4,0,1,5,0,2,3,4,0,250.0,train,5,M
448.680877686,3,1000,5,1,1,5,0,2,3,4,0,250.0,train,3,M
496.106863022,3,1000,5,1,1,5,0,2,3,4,0,250.0,train,3,M
480.86810112,1,1000,1,1,1,5,0,2,3,4,0,250.0,train,1,M
479.973077774,3,1000,5,1,1,5,0,2,3,4,0,250.0,train,3,M
447.710990906,3,1000,5,1,1,5,0,2,3,4,0,250.0,train,3,M
384.320020676,3,1000,5,1,1,5,0,2,3,4,0,250.0,train,3,M
351.46689415,4,1000,4,1,1,5,0,2,3,4,0,250.0,train,4,M
400.288105011,0,1000,3,1,1,5,0,2,3,4,0,250.0,train,0,M
399.766921997,0,1000,3,1,1,5,0,2,3,4,0,250.0,train,0,M
416.338920593,2,1000,2,1,1,5,0,2,3,4,0,250.0,train,2,M
432.289838791,2,1000,2,1,1,5,0,2,3,4,0,250.0,train,2,M
448.446989059,5,1000,0,0,1,5,0,2,3,4,0,250.0,train,4,M
464.276075363,1,1000,1,1,1,5,0,2,3,4,0,250.0,train,1,M
433.441877365,1,1000,1,1,1,5,0,2,3,4,0,250.0,train,1,M
512.341022491,1,1000,1,1,1,5,0,2,3,4,0,250.0,train,1,M
336.570978165,1,1000,1,1,1,5,0,2,3,4,0,250.0,train,1,M
528.37395668,5,1000,0,1,1,5,0,2,3,4,0,250.0,train,5,M
496.825933456,0,1000,3,1,1,5,0,2,3,4,0,250.0,train,0,M
368.448019028,0,1000,3,1,1,5,0,2,3,4,0,250.0,train,0,M
368.819952011,0,1000,3,1,1,5,0,2,3,4,0,250.0,train,0,M
512.426137924,5,1000,0,1,1,5,0,2,3,4,0,250.0,train,5,M
432.718992233,3,1000,5,1,1,5,0,2,3,4,0,250.0,train,3,M
384.444952011,1,1000,1,1,1,5,0,2,3,4,0,250.0,train,1,M
416.805028915,0,1000,3,1,1,5,0,2,3,4,0,250.0,train,0,M
512.693166733,3,1000,5,1,1,5,0,2,3,4,0,250.0,train,3,M
367.249965668,3,1000,5,1,1,5,0,2,3,4,0,250.0,train,3,M
384.462118149,3,1000,5,1,1,5,0,2,3,4,0,250.0,train,3,M
4896.34299278,4,1000,4,0,1,5,0,2,3,4,0,250.0,test,3,M
1664.13283348,4,1000,4,1,1,5,0,2,3,4,0,250.0,test,4,M
688.331842422,5,1000,0,1,1,5,0,2,3,4,0,250.0,test,5,M
544.825077057,2,1000,2,1,1,5,0,2,3,4,0,250.0,test,2,M
800.436019897,3,1000,5,1,1,5,0,2,3,4,0,250.0,test,3,M
528.445005417,4,1000,4,0,1,5,0,2,3,4,0,250.0,test,5,M
800.359010696,5,1000,0,1,1,5,0,2,3,4,0,250.0,test,5,M
880.317926407,3,1000,5,1,1,5,0,2,3,4,0,250.0,test,3,M
591.876983643,5,1000,0,1,1,5,0,2,3,4,0,250.0,test,5,M
769.376993179,2,1000,2,1,1,5,0,2,3,4,0,250.0,test,2,M
368.1640625,0,1000,3,1,1,5,0,2,3,4,0,250.0,test,0,M
304.388046265,3,1000,5,1,1,5,0,2,3,4,0,250.0,test,3,M
752.413988113,2,1000,2,1,1,5,0,2,3,4,0,250.0,test,2,M
528.506994247,2,1000,2,1,1,5,0,2,3,4,0,250.0,test,2,M
448.486089706,3,1000,5,1,1,5,0,2,3,4,0,250.0,test,3,M
384.289979935,3,1000,5,1,1,5,0,2,3,4,0,250.0,test,3,M
480.374097824,3,1000,5,1,1,5,0,2,3,4,0,250.0,test,3,M
640.459060669,1,1000,1,1,1,5,0,2,3,4,0,250.0,test,1,M
560.429096222,5,1000,0,1,1,5,0,2,3,4,0,250.0,test,5,M
608.550071716,1,1000,1,1,1,5,0,2,3,4,0,250.0,test,1,M
592.306137085,0,1000,3,1,1,5,0,2,3,4,0,250.0,test,0,M
496.429920197,3,1000,5,1,1,5,0,2,3,4,0,250.0,test,3,M
368.439912796,0,1000,3,0,1,5,0,2,3,4,0,250.0,test,3,M
496.335029602,2,1000,2,0,1,5,0,2,3,4,0,250.0,test,1,M
560.342073441,0,1000,3,1,1,5,0,2,3,4,0,250.0,test,0,M
495.981931686,0,1000,3,1,1,5,0,2,3,4,0,250.0,test,0,M
768.388986588,2,1000,2,1,1,5,0,2,3,4,0,250.0,test,2,M
592.383861542,5,1000,0,1,1,5,0,2,3,4,0,250.0,test,5,M
624.359846115,1,1000,1,1,1,5,0,2,3,4,0,250.0,test,1,M
544.305086136,1,1000,1,1,1,5,0,2,3,4,0,250.0,test,1,M
416.386842728,2,1000,2,1,1,5,0,2,3,4,0,250.0,test,2,M
559.818983078,1,1000,1,1,1,5,0,2,3,4,0,250.0,test,1,M
607.923030853,5,1000,0,1,1,5,0,2,3,4,0,250.0,test,5,M
687.804937363,4,1000,4,1,1,5,0,2,3,4,0,250.0,test,4,M
479.947090149,0,1000,3,1,1,5,0,2,3,4,0,250.0,test,0,M
1455.77311516,4,1000,4,1,1,5,0,2,3,4,0,250.0,test,4,M
560.252189636,0,1000,3,1,1,5,0,2,3,4,0,250.0,test,0,M
800.356864929,5,1000,0,1,1,5,0,2,3,4,0,250.0,test,5,M
704.751968384,3,1000,5,1,1,5,0,2,3,4,0,250.0,test,3,M
592.350006104,0,1000,3,1,1,5,0,2,3,4,0,250.0,test,0,M
527.843952179,4,1000,4,1,1,5,0,2,3,4,0,250.0,test,4,M
528.330087662,3,1000,5,1,1,5,0,2,3,4,0,250.0,test,3,M
593.371152878,3,1000,5,1,1,5,0,2,3,4,0,250.0,test,3,M
592.348098755,2,1000,2,1,1,5,0,2,3,4,0,250.0,test,2,M
928.465127945,3,1000,5,1,1,5,0,2,3,4,0,250.0,test,3,M
512.434959412,0,1000,3,1,1,5,0,2,3,4,0,250.0,test,0,M
912.436962128,4,1000,4,1,1,5,0,2,3,4,0,250.0,test,4,M
544.471025467,4,1000,4,1,1,5,0,2,3,4,0,250.0,test,4,M
640.402078629,2,1000,2,1,1,5,0,2,3,4,0,250.0,test,2,M
608.467102051,1,1000,1,1,1,5,0,2,3,4,0,250.0,test,1,M
528.371095657,1,1000,1,1,1,5,0,2,3,4,0,250.0,test,1,M
576.345920563,5,1000,0,1,1,5,0,2,3,4,0,250.0,test,5,M
544.318914413,1,1000,1,1,1,5,0,2,3,4,0,250.0,test,1,M
624.448060989,4,1000,4,1,1,5,0,2,3,4,0,250.0,test,4,M
528.432846069,0,1000,3,1,1,5,0,2,3,4,0,250.0,test,0,M
624.36413765,1,1000,1,1,1,5,0,2,3,4,0,250.0,test,1,M
2496.22607231,2,1000,2,1,1,5,0,2,3,4,0,250.0,test,2,M
432.3990345,2,1000,2,1,1,5,0,2,3,4,0,250.0,test,2,M
528.032064438,2,1000,2,1,1,5,0,2,3,4,0,250.0,test,2,M
512.23897934,0,1000,3,1,1,5,0,2,3,4,0,250.0,test,0,M
1008.01706314,5,1000,0,0,1,5,0,2,3,4,0,250.0,test,4,M
559.679985046,0,1000,3,1,1,5,0,2,3,4,0,250.0,test,0,M
624.311923981,3,1000,5,1,1,5,0,2,3,4,0,250.0,test,3,M
544.003009796,0,1000,3,1,1,5,0,2,3,4,0,250.0,test,0,M
479.804992676,0,1000,3,1,1,5,0,2,3,4,0,250.0,test,0,M
1344.35200691,4,1000,4,1,1,5,0,2,3,4,0,250.0,test,4,M
400.446891785,4,1000,4,1,1,5,0,2,3,4,0,250.0,test,4,M
480.411052704,0,1000,3,1,1,5,0,2,3,4,0,250.0,test,0,M
608.203172684,2,1000,2,1,1,5,0,2,3,4,0,250.0,test,2,M
320.062160492,3,1000,5,1,1,5,0,2,3,4,0,250.0,test,3,M
511.842012405,0,1000,3,1,1,5,0,2,3,4,0,250.0,test,0,M
559.942007065,4,1000,4,1,1,5,0,2,3,4,0,250.0,test,4,M
528.215169907,4,1000,4,1,1,5,0,2,3,4,0,250.0,test,4,M
544.290065765,5,1000,0,1,1,5,0,2,3,4,0,250.0,test,5,M
496.245145798,0,1000,3,1,1,5,0,2,3,4,0,250.0,test,0,M
656.324148178,3,1000,5,1,1,5,0,2,3,4,0,250.0,test,3,M
320.685148239,3,1000,5,1,1,5,0,2,3,4,0,250.0,test,3,M
544.466972351,1,1000,1,1,1,5,0,2,3,4,0,250.0,test,1,M
479.907989502,2,1000,2,1,1,5,0,2,3,4,0,250.0,test,2,M
1792.39702225,4,1000,4,1,1,5,0,2,3,4,0,250.0,test,4,M
1168.32399368,0,1000,3,1,1,5,0,2,3,4,0,250.0,test,0,M
576.45201683,5,1000,0,1,1,5,0,2,3,4,0,250.0,test,5,M
496.459960938,0,1000,3,1,1,5,0,2,3,4,0,250.0,test,0,M
528.470993042,1,1000,1,1,1,5,0,2,3,4,0,250.0,test,1,M
960.402011871,4,1000,4,1,1,5,0,2,3,4,0,250.0,test,4,M
336.332082748,5,1000,0,1,1,5,0,2,3,4,0,250.0,test,5,M
720.409154892,0,1000,3,1,1,5,0,2,3,4,0,250.0,test,0,M
544.471025467,1,1000,1,1,1,5,0,2,3,4,0,250.0,test,1,M
608.406066895,5,1000,0,1,1,5,0,2,3,4,0,250.0,test,5,M
672.379016876,4,1000,4,1,1,5,0,2,3,4,0,250.0,test,4,M
864.388942719,2,1000,2,1,1,5,0,2,3,4,0,250.0,test,2,M
608.482837677,1,1000,1,1,1,5,0,2,3,4,0,250.0,test,1,M
320.319890976,0,1000,3,0,1,5,0,2,3,4,0,250.0,test,3,M
1424.22795296,2,1000,2,1,1,5,0,2,3,4,0,250.0,test,2,M
352.349042892,1,1000,1,1,1,5,0,2,3,4,0,250.0,test,1,M
271.854877472,0,1000,3,1,1,5,0,2,3,4,0,250.0,test,0,M
496.411085129,5,1000,0,1,1,5,0,2,3,4,0,250.0,test,5,M
480.715990067,3,1000,5,1,1,5,0,2,3,4,0,250.0,test,3,M
592.395067215,4,1000,4,1,1,5,0,2,3,4,0,250.0,test,4,M
399.85704422,4,1000,4,0,1,5,0,2,3,4,0,250.0,test,3,M
592.214107513,1,1000,1,1,1,5,0,2,3,4,0,250.0,test,1,M
512.467861176,0,1000,3,1,1,5,0,2,3,4,0,250.0,test,0,M
464.293003082,3,1000,5,1,1,5,0,2,3,4,0,250.0,test,3,M
352.365016937,3,1000,5,1,1,5,0,2,3,4,0,250.0,test,3,M
512.276887894,1,1000,1,1,1,5,0,2,3,4,0,250.0,test,1,M
448.448181152,1,1000,1,1,1,5,0,2,3,4,0,250.0,test,1,M
592.495918274,5,1000,0,1,1,5,0,2,3,4,0,250.0,test,5,M
608.147144318,2,1000,2,0,1,5,0,2,3,4,0,250.0,test,1,M
512.0408535,0,1000,3,1,1,5,0,2,3,4,0,250.0,test,0,M
512.198925018,3,1000,5,1,1,5,0,2,3,4,0,250.0,test,3,M
544.193983078,2,1000,2,1,1,5,0,2,3,4,0,250.0,test,2,M
575.737953186,5,1000,0,1,1,5,0,2,3,4,0,250.0,test,5,M
496.348142624,3,1000,5,1,1,5,0,2,3,4,0,250.0,test,3,M
575.386047363,2,1000,2,0,1,5,0,2,3,4,0,250.0,test,1,M
688.672065735,2,1000,2,1,1,5,0,2,3,4,0,250.0,test,2,M
432.251930237,0,1000,3,1,1,5,0,2,3,4,0,250.0,test,0,M
592.200994492,3,1000,5,1,1,5,0,2,3,4,0,250.0,test,3,M
592.388868332,0,1000,3,1,1,5,0,2,3,4,0,250.0,test,0,M
528.743982315,5,1000,0,1,1,5,0,2,3,4,0,250.0,test,5,M
688.540935516,2,1000,2,1,1,5,0,2,3,4,0,250.0,test,2,M
512.33792305,3,1000,5,1,1,5,0,2,3,4,0,250.0,test,3,M
544.277906418,1,1000,1,1,1,5,0,2,3,4,0,250.0,test,1,M
400.294065475,0,1000,3,0,1,5,0,2,3,4,0,250.0,test,3,M
528.610944748,1,1000,1,1,1,5,0,2,3,4,0,250.0,test,1,M
704.315185547,4,1000,4,1,1,5,0,2,3,4,0,250.0,test,4,M
624.694108963,1,1000,1,1,1,5,0,2,3,4,0,250.0,test,1,M
544.348955154,4,1000,4,1,1,5,0,2,3,4,0,250.0,test,4,M
479.835987091,3,1000,5,1,1,5,0,2,3,4,0,250.0,test,3,M
528.311014175,1,1000,1,1,1,5,0,2,3,4,0,250.0,test,1,M
543.796062469,1,1000,1,1,1,5,0,2,3,4,0,250.0,test,1,M
992.437839508,0,1000,3,1,1,5,0,2,3,4,0,250.0,test,0,M
688.275814056,5,1000,0,1,1,5,0,2,3,4,0,250.0,test,5,M
496.379137039,3,1000,5,1,1,5,0,2,3,4,0,250.0,test,3,M
576.164960861,0,1000,3,1,1,5,0,2,3,4,0,250.0,test,0,M
528.437137604,5,1000,0,1,1,5,0,2,3,4,0,250.0,test,5,M
464.438915253,3,1000,5,1,1,5,0,2,3,4,0,250.0,test,3,M
368.303060532,3,1000,5,1,1,5,0,2,3,4,0,250.0,test,3,M
544.365882874,5,1000,0,1,1,5,0,2,3,4,0,250.0,test,5,M
640.386819839,0,1000,3,1,1,5,0,2,3,4,0,250.0,test,0,M
608.510017395,5,1000,0,1,1,5,0,2,3,4,0,250.0,test,5,M
608.701944351,2,1000,2,0,1,5,0,2,3,4,0,250.0,test,1,M
528.280973434,2,1000,2,1,1,5,0,2,3,4,0,250.0,test,2,M
784.349918365,4,1000,4,1,1,5,0,2,3,4,0,250.0,test,4,M
383.858919144,4,1000,4,1,1,5,0,2,3,4,0,250.0,test,4,M
560.415029526,1,1000,1,1,1,5,0,2,3,4,0,250.0,test,1,M
608.355045319,4,1000,4,1,1,5,0,2,3,4,0,250.0,test,4,M
512.490987778,5,1000,0,1,1,5,0,2,3,4,0,250.0,test,5,M
528.487920761,0,1000,3,1,1,5,0,2,3,4,0,250.0,test,0,M
848.410129547,2,1000,2,1,1,5,0,2,3,4,0,250.0,test,2,M
496.490001678,1,1000,1,1,1,5,0,2,3,4,0,250.0,test,1,M
480.307817459,1,1000,1,1,1,5,0,2,3,4,0,250.0,test,1,M
512.274980545,0,1000,3,1,1,5,0,2,3,4,0,250.0,test,0,M
1152.32110023,4,1000,4,1,1,5,0,2,3,4,0,250.0,test,4,M
640.328884125,3,1000,5,1,1,5,0,2,3,4,0,250.0,test,3,M
592.704057693,5,1000,0,1,1,5,0,2,3,4,0,250.0,test,5,M
608.306884766,2,1000,2,0,1,5,0,2,3,4,0,250.0,test,1,M
528.248786926,5,1000,0,1,1,5,0,2,3,4,0,250.0,test,5,M
848.368883133,2,1000,2,1,1,5,0,2,3,4,0,250.0,test,2,M
416.459083557,5,1000,0,0,1,5,0,2,3,4,0,250.0,test,1,M
464.220046997,3,1000,5,1,1,5,0,2,3,4,0,250.0,test,3,M
511.975049973,0,1000,3,1,1,5,0,2,3,4,0,250.0,test,0,M
527.648925781,5,1000,0,1,1,5,0,2,3,4,0,250.0,test,5,M
527.670145035,0,1000,3,1,1,5,0,2,3,4,0,250.0,test,0,M
576.240062714,5,1000,0,1,1,5,0,2,3,4,0,250.0,test,5,M
528.271913528,4,1000,4,1,1,5,0,2,3,4,0,250.0,test,4,M
560.467004776,4,1000,4,1,1,5,0,2,3,4,0,250.0,test,4,M
608.387947083,3,1000,5,0,1,5,0,2,3,4,0,250.0,test,2,M
1184.23509598,2,1000,2,1,1,5,0,2,3,4,0,250.0,test,2,M
576.308965683,4,1000,4,1,1,5,0,2,3,4,0,250.0,test,4,M
704.379796982,4,1000,4,1,1,5,0,2,3,4,0,250.0,test,4,M
592.376947403,5,1000,0,1,1,5,0,2,3,4,0,250.0,test,5,M
1264.33110237,2,1000,2,1,1,5,0,2,3,4,0,250.0,test,2,M
495.736122131,0,1000,3,1,1,5,0,2,3,4,0,250.0,test,0,M
607.754945755,2,1000,2,0,1,5,0,2,3,4,0,250.0,test,1,M
608.757972717,4,1000,4,1,1,5,0,2,3,4,0,250.0,test,4,M
735.65196991,2,1000,2,1,1,5,0,2,3,4,0,250.0,test,2,M
544.276952744,1,1000,1,1,1,5,0,2,3,4,0,250.0,test,1,M
688.543081284,1,1000,1,1,1,5,0,2,3,4,0,250.0,test,1,M
1856.72903061,0,1000,3,1,1,5,0,2,3,4,0,250.0,test,0,M
655.889987946,2,1000,2,0,1,5,0,2,3,4,0,250.0,test,1,M
543.772935867,1,1000,1,1,1,5,0,2,3,4,0,250.0,test,1,M
591.74990654,3,1000,5,1,1,5,0,2,3,4,0,250.0,test,3,M
448.447942734,3,1000,5,1,1,5,0,2,3,4,0,250.0,test,3,M
592.664003372,0,1000,3,1,1,5,0,2,3,4,0,250.0,test,0,M
640.276908875,5,1000,0,1,1,5,0,2,3,4,0,250.0,test,5,M
719.905138016,2,1000,2,1,1,5,0,2,3,4,0,250.0,test,2,M
528.005838394,1,1000,1,1,1,5,0,2,3,4,0,250.0,test,1,M
655.752182007,0,1000,3,1,1,5,0,2,3,4,0,250.0,test,0,M
688.394069672,5,1000,0,1,1,5,0,2,3,4,0,250.0,test,5,M
417.257070541,4,1000,4,1,1,5,0,2,3,4,0,250.0,test,4,M
576.312065125,2,1000,2,0,1,5,0,2,3,4,0,250.0,test,1,M
560.621023178,3,1000,5,1,1,5,0,2,3,4,0,250.0,test,3,M
607.9621315,4,1000,4,1,1,5,0,2,3,4,0,250.0,test,4,M
496.074914932,5,1000,0,1,1,5,0,2,3,4,0,250.0,test,5,M
831.655979156,2,1000,2,1,1,5,0,2,3,4,0,250.0,test,2,M
544.19708252,3,1000,5,1,1,5,0,2,3,4,0,250.0,test,3,M
511.756181717,5,1000,0,1,1,5,0,2,3,4,0,250.0,test,5,M
464.661836624,3,1000,5,1,1,5,0,2,3,4,0,250.0,test,3,M
543.876886368,5,1000,0,1,1,5,0,2,3,4,0,250.0,test,5,M
1232.43498802,0,1000,3,1,1,5,0,2,3,4,0,250.0,test,0,M
768.352985382,2,1000,2,1,1,5,0,2,3,4,0,250.0,test,2,M
512.218952179,2,1000,2,1,1,5,0,2,3,4,0,250.0,test,2,M
432.384967804,1,1000,1,1,1,5,0,2,3,4,0,250.0,test,1,M
543.982028961,5,1000,0,1,1,5,0,2,3,4,0,250.0,test,5,M
608.292102814,0,1000,3,1,1,5,0,2,3,4,0,250.0,test,0,M
576.242923737,5,1000,0,1,1,5,0,2,3,4,0,250.0,test,5,M
432.376146317,5,1000,0,1,1,5,0,2,3,4,0,250.0,test,5,M
480.371952057,4,1000,4,1,1,5,0,2,3,4,0,250.0,test,4,M
384.427785873,4,1000,4,1,1,5,0,2,3,4,0,250.0,test,4,M
496.356964111,0,1000,3,1,1,5,0,2,3,4,0,250.0,test,0,M
560.302972794,1,1000,1,1,1,5,0,2,3,4,0,250.0,test,1,M
511.925935745,3,1000,5,1,1,5,0,2,3,4,0,250.0,test,3,M
704.36000824,5,1000,0,0,1,5,0,2,3,4,0,250.0,test,4,M
592.29183197,4,1000,4,1,1,5,0,2,3,4,0,250.0,test,4,M
431.859970093,4,1000,4,1,1,5,0,2,3,4,0,250.0,test,4,M
864.46595192,3,1000,5,1,1,5,0,2,3,4,0,250.0,test,3,M
288.39302063,3,1000,5,1,1,5,0,2,3,4,0,250.0,test,3,M
320.396900177,3,1000,5,1,1,5,0,2,3,4,0,250.0,test,3,M
512.677907944,5,1000,0,1,1,5,0,2,3,4,0,250.0,test,5,M
528.287887573,0,1000,3,1,1,5,0,2,3,4,0,250.0,test,0,M
896.436929703,2,1000,2,1,1,5,0,2,3,4,0,250.0,test,2,M
480.34119606,0,1000,3,1,1,5,0,2,3,4,0,250.0,test,0,M
496.486902237,1,1000,1,1,1,5,0,2,3,4,0,250.0,test,1,M
784.48009491,5,1000,0,0,1,5,0,2,3,4,0,250.0,test,4,M
544.361829758,3,1000,5,1,1,5,0,2,3,4,0,250.0,test,3,M
432.443857193,3,1000,5,1,1,5,0,2,3,4,0,250.0,test,3,M
512.262105942,5,1000,0,1,1,5,0,2,3,4,0,250.0,test,5,M
624.387025833,3,1000,5,1,1,5,0,2,3,4,0,250.0,test,3,M
464.403867722,3,1000,5,1,1,5,0,2,3,4,0,250.0,test,3,M
528.418064117,1,1000,1,1,1,5,0,2,3,4,0,250.0,test,1,M
672.481060028,4,1000,4,1,1,5,0,2,3,4,0,250.0,test,4,M
560.364961624,5,1000,0,1,1,5,0,2,3,4,0,250.0,test,5,M
560.453891754,1,1000,1,1,1,5,0,2,3,4,0,250.0,test,1,M
320.39809227,0,1000,3,1,1,5,0,2,3,4,0,250.0,test,0,M
608.436107635,4,1000,4,1,1,5,0,2,3,4,0,250.0,test,4,M
512.051105499,0,1000,3,1,1,5,0,2,3,4,0,250.0,test,0,M
560.343027115,0,1000,3,1,1,5,0,2,3,4,0,250.0,test,0,M
512.45880127,4,1000,4,1,1,5,0,2,3,4,0,250.0,test,4,M
592.354059219,3,1000,5,1,1,5,0,2,3,4,0,250.0,test,3,M
464.237928391,3,1000,5,1,1,5,0,2,3,4,0,250.0,test,3,M
912.310123444,0,1000,3,1,1,5,0,2,3,4,0,250.0,test,0,M
560.441017151,3,1000,5,1,1,5,0,2,3,4,0,250.0,test,3,M
464.434862137,4,1000,4,1,1,5,0,2,3,4,0,250.0,test,4,M
624.376773834,1,1000,1,1,1,5,0,2,3,4,0,250.0,test,1,M
400.390863419,2,1000,2,1,1,5,0,2,3,4,0,250.0,test,2,M
688.425064087,5,1000,0,1,1,5,0,2,3,4,0,250.0,test,5,M
528.628826141,5,1000,0,1,1,5,0,2,3,4,0,250.0,test,5,M
576.887130737,3,1000,5,1,1,5,0,2,3,4,0,250.0,test,3,M
800.410032272,2,1000,2,1,1,5,0,2,3,4,0,250.0,test,2,M
544.296979904,0,1000,3,1,1,5,0,2,3,4,0,250.0,test,0,M
