RT,correct_response,ms-prestimblank,curstim,correct,SRmap_1,SRmap_0,SRmap_3,SRmap_2,SRmap_5,SRmap_4,ms-precue,ntrials,type,response,condition
3305.945158,3,1000,2,1,0,1,5,3,4,2,0,250.0,train,3,H+
1563.77387047,4,1000,5,1,0,1,5,3,4,2,0,250.0,train,4,H+
1898.38290215,2,1000,4,1,0,1,5,3,4,2,0,250.0,train,2,H+
1226.34792328,2,1000,4,1,0,1,5,3,4,2,0,250.0,train,2,H+
939.903974533,2,1000,4,1,0,1,5,3,4,2,0,250.0,train,2,H+
698.175907135,3,1000,2,1,0,1,5,3,4,2,0,250.0,train,3,H+
1306.34403229,0,1000,1,1,0,1,5,3,4,2,0,250.0,train,0,H+
619.881868362,4,1000,5,1,0,1,5,3,4,2,0,250.0,train,4,H+
876.549005508,5,1000,3,1,0,1,5,3,4,2,0,250.0,train,5,H+
1162.31799126,1,1000,0,1,0,1,5,3,4,2,0,250.0,train,1,H+
1547.05405235,0,1000,1,1,0,1,5,3,4,2,0,250.0,train,0,H+
826.303005219,5,1000,3,1,0,1,5,3,4,2,0,250.0,train,5,H+
794.248104095,0,1000,1,1,0,1,5,3,4,2,0,250.0,train,0,H+
1050.33016205,2,1000,4,1,0,1,5,3,4,2,0,250.0,train,2,H+
746.347904205,5,1000,3,1,0,1,5,3,4,2,0,250.0,train,5,H+
1066.37907028,1,1000,0,1,0,1,5,3,4,2,0,250.0,train,1,H+
586.213827133,0,1000,1,1,0,1,5,3,4,2,0,250.0,train,0,H+
714.357852936,4,1000,5,1,0,1,5,3,4,2,0,250.0,train,4,H+
410.196065903,1,1000,0,1,0,1,5,3,4,2,0,250.0,train,1,H+
554.156064987,1,1000,0,1,0,1,5,3,4,2,0,250.0,train,1,H+
842.303991318,5,1000,3,1,0,1,5,3,4,2,0,250.0,train,5,H+
474.187135696,4,1000,5,1,0,1,5,3,4,2,0,250.0,train,4,H+
1098.38104248,2,1000,4,1,0,1,5,3,4,2,0,250.0,train,2,H+
554.337024689,5,1000,3,1,0,1,5,3,4,2,0,250.0,train,5,H+
826.354980469,2,1000,4,1,0,1,5,3,4,2,0,250.0,train,2,H+
570.296049118,4,1000,5,1,0,1,5,3,4,2,0,250.0,train,4,H+
362.215995789,5,1000,3,0,0,1,5,3,4,2,0,250.0,train,4,H+
762.210130692,1,1000,0,1,0,1,5,3,4,2,0,250.0,train,1,H+
762.392997742,3,1000,2,1,0,1,5,3,4,2,0,250.0,train,3,H+
763.779163361,4,1000,5,1,0,1,5,3,4,2,0,250.0,train,4,H+
747.696876526,1,1000,0,1,0,1,5,3,4,2,0,250.0,train,1,H+
794.332027435,4,1000,5,1,0,1,5,3,4,2,0,250.0,train,4,H+
522.333860397,5,1000,3,1,0,1,5,3,4,2,0,250.0,train,5,H+
539.937973022,1,1000,0,1,0,1,5,3,4,2,0,250.0,train,1,H+
651.895999908,5,1000,3,0,0,1,5,3,4,2,0,250.0,train,4,H+
666.290998459,4,1000,5,1,0,1,5,3,4,2,0,250.0,train,4,H+
539.855003357,4,1000,5,1,0,1,5,3,4,2,0,250.0,train,4,H+
794.350147247,0,1000,1,1,0,1,5,3,4,2,0,250.0,train,0,H+
522.303104401,0,1000,1,1,0,1,5,3,4,2,0,250.0,train,0,H+
618.290901184,4,1000,5,1,0,1,5,3,4,2,0,250.0,train,4,H+
618.30997467,2,1000,4,1,0,1,5,3,4,2,0,250.0,train,2,H+
506.281137466,0,1000,1,1,0,1,5,3,4,2,0,250.0,train,0,H+
666.317939758,5,1000,3,1,0,1,5,3,4,2,0,250.0,train,5,H+
507.936000824,0,1000,1,1,0,1,5,3,4,2,0,250.0,train,0,H+
522.237062454,4,1000,5,1,0,1,5,3,4,2,0,250.0,train,4,H+
682.307958603,5,1000,3,1,0,1,5,3,4,2,0,250.0,train,5,H+
538.188934326,0,1000,1,1,0,1,5,3,4,2,0,250.0,train,0,H+
633.003950119,2,1000,4,1,0,1,5,3,4,2,0,250.0,train,2,H+
490.247964859,0,1000,1,1,0,1,5,3,4,2,0,250.0,train,0,H+
586.318016052,4,1000,5,1,0,1,5,3,4,2,0,250.0,train,4,H+
587.924003601,0,1000,1,1,0,1,5,3,4,2,0,250.0,train,0,H+
714.266061783,4,1000,5,1,0,1,5,3,4,2,0,250.0,train,4,H+
554.357051849,3,1000,2,1,0,1,5,3,4,2,0,250.0,train,3,H+
586.402893066,0,1000,1,1,0,1,5,3,4,2,0,250.0,train,0,H+
650.341033936,5,1000,3,0,0,1,5,3,4,2,0,250.0,train,4,H+
682.302951813,5,1000,3,1,0,1,5,3,4,2,0,250.0,train,5,H+
699.954986572,2,1000,4,1,0,1,5,3,4,2,0,250.0,train,2,H+
491.925001144,3,1000,2,1,0,1,5,3,4,2,0,250.0,train,3,H+
602.423191071,3,1000,2,1,0,1,5,3,4,2,0,250.0,train,3,H+
602.385044098,0,1000,1,1,0,1,5,3,4,2,0,250.0,train,0,H+
506.321907043,2,1000,4,1,0,1,5,3,4,2,0,250.0,train,2,H+
683.969020844,5,1000,3,1,0,1,5,3,4,2,0,250.0,train,5,H+
810.393095016,5,1000,3,1,0,1,5,3,4,2,0,250.0,train,5,H+
699.849843979,5,1000,3,1,0,1,5,3,4,2,0,250.0,train,5,H+
618.287086487,2,1000,4,1,0,1,5,3,4,2,0,250.0,train,2,H+
634.371042252,1,1000,0,1,0,1,5,3,4,2,0,250.0,train,1,H+
666.323900223,4,1000,5,0,0,1,5,3,4,2,0,250.0,train,5,H+
651.216030121,1,1000,0,1,0,1,5,3,4,2,0,250.0,train,1,H+
522.32503891,3,1000,2,1,0,1,5,3,4,2,0,250.0,train,3,H+
474.279880524,0,1000,1,1,0,1,5,3,4,2,0,250.0,train,0,H+
651.706933975,5,1000,3,1,0,1,5,3,4,2,0,250.0,train,5,H+
1051.94997787,1,1000,0,1,0,1,5,3,4,2,0,250.0,train,1,H+
570.196866989,1,1000,0,1,0,1,5,3,4,2,0,250.0,train,1,H+
714.312076569,1,1000,0,1,0,1,5,3,4,2,0,250.0,train,1,H+
603.127002716,2,1000,4,1,0,1,5,3,4,2,0,250.0,train,2,H+
923.963069916,2,1000,4,1,0,1,5,3,4,2,0,250.0,train,2,H+
571.936845779,0,1000,1,1,0,1,5,3,4,2,0,250.0,train,0,H+
827.962875366,3,1000,2,1,0,1,5,3,4,2,0,250.0,train,3,H+
554.389953613,3,1000,2,1,0,1,5,3,4,2,0,250.0,train,3,H+
426.356077194,2,1000,4,1,0,1,5,3,4,2,0,250.0,train,2,H+
794.353961945,3,1000,2,1,0,1,5,3,4,2,0,250.0,train,3,H+
858.255147934,4,1000,5,1,0,1,5,3,4,2,0,250.0,train,4,H+
587.898015976,1,1000,0,1,0,1,5,3,4,2,0,250.0,train,1,H+
394.35005188,0,1000,1,1,0,1,5,3,4,2,0,250.0,train,0,H+
746.068000793,3,1000,2,1,0,1,5,3,4,2,0,250.0,train,3,H+
731.56785965,5,1000,3,1,0,1,5,3,4,2,0,250.0,train,5,H+
698.333024979,1,1000,0,1,0,1,5,3,4,2,0,250.0,train,1,H+
650.304079056,4,1000,5,1,0,1,5,3,4,2,0,250.0,train,4,H+
362.217903137,3,1000,2,1,0,1,5,3,4,2,0,250.0,train,3,H+
618.374824524,1,1000,0,1,0,1,5,3,4,2,0,250.0,train,1,H+
603.857040405,0,1000,1,1,0,1,5,3,4,2,0,250.0,train,0,H+
554.285049438,1,1000,0,1,0,1,5,3,4,2,0,250.0,train,1,H+
554.280042648,0,1000,1,1,0,1,5,3,4,2,0,250.0,train,0,H+
634.291887283,2,1000,4,1,0,1,5,3,4,2,0,250.0,train,2,H+
1114.43281174,1,1000,0,1,0,1,5,3,4,2,0,250.0,train,1,H+
570.361852646,0,1000,1,1,0,1,5,3,4,2,0,250.0,train,0,H+
602.342844009,1,1000,0,1,0,1,5,3,4,2,0,250.0,train,1,H+
570.317983627,1,1000,0,1,0,1,5,3,4,2,0,250.0,train,1,H+
539.515972137,1,1000,0,1,0,1,5,3,4,2,0,250.0,train,1,H+
491.752147675,0,1000,1,1,0,1,5,3,4,2,0,250.0,train,0,H+
362.274885178,4,1000,5,1,0,1,5,3,4,2,0,250.0,train,4,H+
618.28994751,5,1000,3,1,0,1,5,3,4,2,0,250.0,train,5,H+
619.966030121,5,1000,3,1,0,1,5,3,4,2,0,250.0,train,5,H+
506.3560009,1,1000,0,1,0,1,5,3,4,2,0,250.0,train,1,H+
698.366880417,2,1000,4,1,0,1,5,3,4,2,0,250.0,train,2,H+
906.368970871,4,1000,5,1,0,1,5,3,4,2,0,250.0,train,4,H+
746.2849617,0,1000,1,1,0,1,5,3,4,2,0,250.0,train,0,H+
1051.86700821,1,1000,0,1,0,1,5,3,4,2,0,250.0,train,1,H+
554.306983948,1,1000,0,1,0,1,5,3,4,2,0,250.0,train,1,H+
618.455171585,2,1000,4,1,0,1,5,3,4,2,0,250.0,train,2,H+
650.363922119,2,1000,4,1,0,1,5,3,4,2,0,250.0,train,2,H+
395.076036453,3,1000,2,1,0,1,5,3,4,2,0,250.0,train,3,H+
475.8040905,4,1000,5,1,0,1,5,3,4,2,0,250.0,train,4,H+
571.10786438,0,1000,1,1,0,1,5,3,4,2,0,250.0,train,0,H+
634.307861328,5,1000,3,1,0,1,5,3,4,2,0,250.0,train,5,H+
395.725011826,2,1000,4,1,0,1,5,3,4,2,0,250.0,train,2,H+
538.228988647,1,1000,0,1,0,1,5,3,4,2,0,250.0,train,1,H+
683.844089508,1,1000,0,1,0,1,5,3,4,2,0,250.0,train,1,H+
634.342908859,5,1000,3,1,0,1,5,3,4,2,0,250.0,train,5,H+
587.922811508,0,1000,1,1,0,1,5,3,4,2,0,250.0,train,0,H+
538.118839264,1,1000,0,1,0,1,5,3,4,2,0,250.0,train,1,H+
410.270929337,5,1000,3,1,0,1,5,3,4,2,0,250.0,train,5,H+
331.112861633,4,1000,5,1,0,1,5,3,4,2,0,250.0,train,4,H+
523.816108704,4,1000,5,1,0,1,5,3,4,2,0,250.0,train,4,H+
586.378097534,2,1000,4,1,0,1,5,3,4,2,0,250.0,train,2,H+
443.85099411,3,1000,2,0,0,1,5,3,4,2,0,250.0,train,0,H+
651.877880096,2,1000,4,1,0,1,5,3,4,2,0,250.0,train,2,H+
619.167089462,1,1000,0,1,0,1,5,3,4,2,0,250.0,train,1,H+
427.552938461,3,1000,2,1,0,1,5,3,4,2,0,250.0,train,3,H+
730.091094971,4,1000,5,1,0,1,5,3,4,2,0,250.0,train,4,H+
618.282079697,2,1000,4,1,0,1,5,3,4,2,0,250.0,train,2,H+
618.222951889,3,1000,2,1,0,1,5,3,4,2,0,250.0,train,3,H+
682.385921478,1,1000,0,1,0,1,5,3,4,2,0,250.0,train,1,H+
683.895111084,4,1000,5,1,0,1,5,3,4,2,0,250.0,train,4,H+
827.929973602,1,1000,0,1,0,1,5,3,4,2,0,250.0,train,1,H+
778.321027756,2,1000,4,1,0,1,5,3,4,2,0,250.0,train,2,H+
410.193920135,3,1000,2,1,0,1,5,3,4,2,0,250.0,train,3,H+
586.278915405,3,1000,2,1,0,1,5,3,4,2,0,250.0,train,3,H+
618.227958679,3,1000,2,1,0,1,5,3,4,2,0,250.0,train,3,H+
970.304965973,1,1000,0,1,0,1,5,3,4,2,0,250.0,train,1,H+
554.18586731,3,1000,2,1,0,1,5,3,4,2,0,250.0,train,3,H+
746.300935745,5,1000,3,1,0,1,5,3,4,2,0,250.0,train,5,H+
426.112174988,5,1000,3,1,0,1,5,3,4,2,0,250.0,train,5,H+
315.680980682,4,1000,5,1,0,1,5,3,4,2,0,250.0,train,4,H+
378.180027008,4,1000,5,1,0,1,5,3,4,2,0,250.0,train,4,H+
474.312782288,5,1000,3,1,0,1,5,3,4,2,0,250.0,train,5,H+
538.231134415,5,1000,3,1,0,1,5,3,4,2,0,250.0,train,5,H+
315.721035004,4,1000,5,1,0,1,5,3,4,2,0,250.0,train,4,H+
539.851903915,2,1000,4,1,0,1,5,3,4,2,0,250.0,train,2,H+
555.166006088,5,1000,3,1,0,1,5,3,4,2,0,250.0,train,5,H+
346.319198608,1,1000,0,0,0,1,5,3,4,2,0,250.0,train,4,H+
362.26606369,1,1000,0,1,0,1,5,3,4,2,0,250.0,train,1,H+
571.821928024,5,1000,3,1,0,1,5,3,4,2,0,250.0,train,5,H+
506.303071976,5,1000,3,1,0,1,5,3,4,2,0,250.0,train,5,H+
682.413101196,5,1000,3,1,0,1,5,3,4,2,0,250.0,train,5,H+
442.342996597,5,1000,3,1,0,1,5,3,4,2,0,250.0,train,5,H+
650.976896286,3,1000,2,1,0,1,5,3,4,2,0,250.0,train,3,H+
585.852861404,4,1000,5,1,0,1,5,3,4,2,0,250.0,train,4,H+
570.235967636,2,1000,4,1,0,1,5,3,4,2,0,250.0,train,2,H+
586.294174194,2,1000,4,1,0,1,5,3,4,2,0,250.0,train,2,H+
282.255172729,4,1000,5,1,0,1,5,3,4,2,0,250.0,train,4,H+
298.329114914,4,1000,5,1,0,1,5,3,4,2,0,250.0,train,4,H+
667.860031128,3,1000,2,1,0,1,5,3,4,2,0,250.0,train,3,H+
649.996995926,1,1000,0,1,0,1,5,3,4,2,0,250.0,train,1,H+
458.1990242,4,1000,5,1,0,1,5,3,4,2,0,250.0,train,4,H+
667.18006134,2,1000,4,1,0,1,5,3,4,2,0,250.0,train,2,H+
379.848003387,5,1000,3,1,0,1,5,3,4,2,0,250.0,train,5,H+
378.213882446,0,1000,1,1,0,1,5,3,4,2,0,250.0,train,0,H+
682.262182236,3,1000,2,1,0,1,5,3,4,2,0,250.0,train,3,H+
362.267971039,1,1000,0,1,0,1,5,3,4,2,0,250.0,train,1,H+
794.261932373,3,1000,2,1,0,1,5,3,4,2,0,250.0,train,3,H+
698.292016983,1,1000,0,1,0,1,5,3,4,2,0,250.0,train,1,H+
539.749860764,1,1000,0,1,0,1,5,3,4,2,0,250.0,train,1,H+
442.273139954,1,1000,0,1,0,1,5,3,4,2,0,250.0,train,1,H+
346.204996109,1,1000,0,1,0,1,5,3,4,2,0,250.0,train,1,H+
684.591054916,3,1000,2,1,0,1,5,3,4,2,0,250.0,train,3,H+
347.910881042,4,1000,5,1,0,1,5,3,4,2,0,250.0,train,4,H+
634.271144867,3,1000,2,1,0,1,5,3,4,2,0,250.0,train,3,H+
474.364995956,3,1000,2,1,0,1,5,3,4,2,0,250.0,train,3,H+
539.8478508,1,1000,0,1,0,1,5,3,4,2,0,250.0,train,1,H+
699.856042862,0,1000,1,1,0,1,5,3,4,2,0,250.0,train,0,H+
602.313995361,0,1000,1,1,0,1,5,3,4,2,0,250.0,train,0,H+
330.244064331,4,1000,5,1,0,1,5,3,4,2,0,250.0,train,4,H+
602.316141129,2,1000,4,1,0,1,5,3,4,2,0,250.0,train,2,H+
363.700151443,5,1000,3,1,0,1,5,3,4,2,0,250.0,train,5,H+
475.835800171,1,1000,0,1,0,1,5,3,4,2,0,250.0,train,1,H+
442.207098007,5,1000,3,1,0,1,5,3,4,2,0,250.0,train,5,H+
554.245948792,2,1000,4,1,0,1,5,3,4,2,0,250.0,train,2,H+
794.271945953,3,1000,2,1,0,1,5,3,4,2,0,250.0,train,3,H+
410.310983658,5,1000,3,1,0,1,5,3,4,2,0,250.0,train,5,H+
569.995164871,1,1000,0,1,0,1,5,3,4,2,0,250.0,train,1,H+
507.077932358,5,1000,3,1,0,1,5,3,4,2,0,250.0,train,5,H+
506.191968918,0,1000,1,1,0,1,5,3,4,2,0,250.0,train,0,H+
491.876125336,4,1000,5,1,0,1,5,3,4,2,0,250.0,train,4,H+
554.255962372,1,1000,0,1,0,1,5,3,4,2,0,250.0,train,1,H+
442.264080048,5,1000,3,1,0,1,5,3,4,2,0,250.0,train,5,H+
459.854125977,1,1000,0,1,0,1,5,3,4,2,0,250.0,train,1,H+
410.278081894,5,1000,3,1,0,1,5,3,4,2,0,250.0,train,5,H+
537.782907486,5,1000,3,1,0,1,5,3,4,2,0,250.0,train,5,H+
506.2520504,3,1000,2,0,0,1,5,3,4,2,0,250.0,train,0,H+
635.894060135,1,1000,0,1,0,1,5,3,4,2,0,250.0,train,1,H+
314.23997879,4,1000,5,1,0,1,5,3,4,2,0,250.0,train,4,H+
682.219982147,0,1000,1,1,0,1,5,3,4,2,0,250.0,train,0,H+
586.326122284,1,1000,0,1,0,1,5,3,4,2,0,250.0,train,1,H+
618.225097656,3,1000,2,1,0,1,5,3,4,2,0,250.0,train,3,H+
395.104885101,5,1000,3,1,0,1,5,3,4,2,0,250.0,train,5,H+
476.725816727,1,1000,0,1,0,1,5,3,4,2,0,250.0,train,1,H+
506.354093552,0,1000,1,1,0,1,5,3,4,2,0,250.0,train,0,H+
570.210933685,3,1000,2,1,0,1,5,3,4,2,0,250.0,train,3,H+
587.932109833,2,1000,4,1,0,1,5,3,4,2,0,250.0,train,2,H+
490.298986435,0,1000,1,1,0,1,5,3,4,2,0,250.0,train,0,H+
538.245916367,1,1000,0,1,0,1,5,3,4,2,0,250.0,train,1,H+
475.158929825,1,1000,0,1,0,1,5,3,4,2,0,250.0,train,1,H+
314.203977585,4,1000,5,1,0,1,5,3,4,2,0,250.0,train,4,H+
475.123882294,1,1000,0,1,0,1,5,3,4,2,0,250.0,train,1,H+
331.780910492,5,1000,3,1,0,1,5,3,4,2,0,250.0,train,5,H+
587.126970291,3,1000,2,1,0,1,5,3,4,2,0,250.0,train,3,H+
426.191091537,4,1000,5,1,0,1,5,3,4,2,0,250.0,train,4,H+
522.265911102,5,1000,3,1,0,1,5,3,4,2,0,250.0,train,5,H+
522.294044495,0,1000,1,1,0,1,5,3,4,2,0,250.0,train,0,H+
475.857973099,4,1000,5,1,0,1,5,3,4,2,0,250.0,train,4,H+
347.831964493,4,1000,5,1,0,1,5,3,4,2,0,250.0,train,4,H+
299.844026566,4,1000,5,1,0,1,5,3,4,2,0,250.0,train,4,H+
523.843050003,0,1000,1,1,0,1,5,3,4,2,0,250.0,train,0,H+
426.248073578,0,1000,1,1,0,1,5,3,4,2,0,250.0,train,0,H+
555.840969086,2,1000,4,1,0,1,5,3,4,2,0,250.0,train,2,H+
474.305152893,4,1000,5,0,0,1,5,3,4,2,0,250.0,train,3,H+
602.322816849,5,1000,3,1,0,1,5,3,4,2,0,250.0,train,5,H+
330.270051956,4,1000,5,1,0,1,5,3,4,2,0,250.0,train,4,H+
394.284009933,4,1000,5,1,0,1,5,3,4,2,0,250.0,train,4,H+
298.232078552,4,1000,5,1,0,1,5,3,4,2,0,250.0,train,4,H+
490.284919739,2,1000,4,1,0,1,5,3,4,2,0,250.0,train,2,H+
555.57513237,3,1000,2,1,0,1,5,3,4,2,0,250.0,train,3,H+
410.280942917,3,1000,2,1,0,1,5,3,4,2,0,250.0,train,3,H+
378.247022629,2,1000,4,1,0,1,5,3,4,2,0,250.0,train,2,H+
602.298021317,5,1000,3,1,0,1,5,3,4,2,0,250.0,train,5,H+
490.231990814,0,1000,1,1,0,1,5,3,4,2,0,250.0,train,0,H+
314.107179642,4,1000,5,1,0,1,5,3,4,2,0,250.0,train,4,H+
395.874977112,4,1000,5,1,0,1,5,3,4,2,0,250.0,train,4,H+
459.91396904,4,1000,5,1,0,1,5,3,4,2,0,250.0,train,4,H+
539.146900177,2,1000,4,1,0,1,5,3,4,2,0,250.0,train,2,H+
314.294815063,4,1000,5,1,0,1,5,3,4,2,0,250.0,train,4,H+
522.051095963,2,1000,4,1,0,1,5,3,4,2,0,250.0,train,2,H+
506.278038025,2,1000,4,1,0,1,5,3,4,2,0,250.0,train,2,H+
539.099216461,1,1000,0,1,0,1,5,3,4,2,0,250.0,train,1,H+
570.767879486,5,1000,3,1,0,1,5,3,4,2,0,250.0,train,5,H+
314.14103508,4,1000,5,1,0,1,5,3,4,2,0,250.0,train,4,H+
507.951021194,0,1000,1,1,0,1,5,3,4,2,0,250.0,train,0,H+
554.241895676,2,1000,4,1,0,1,5,3,4,2,0,250.0,train,2,H+
539.824008942,1,1000,0,1,0,1,5,3,4,2,0,250.0,train,1,H+
650.235891342,3,1000,2,1,0,1,5,3,4,2,0,250.0,test,3,H+
603.866100311,0,1000,1,1,0,1,5,3,4,2,0,250.0,test,0,H+
506.381988525,0,1000,1,1,0,1,5,3,4,2,0,250.0,test,0,H+
347.861766815,4,1000,5,1,0,1,5,3,4,2,0,250.0,test,4,H+
714.30683136,1,1000,0,1,0,1,5,3,4,2,0,250.0,test,1,H+
568.969964981,5,1000,3,1,0,1,5,3,4,2,0,250.0,test,5,H+
346.219062805,4,1000,5,1,0,1,5,3,4,2,0,250.0,test,4,H+
490.150928497,0,1000,1,1,0,1,5,3,4,2,0,250.0,test,0,H+
618.358850479,5,1000,3,1,0,1,5,3,4,2,0,250.0,test,5,H+
602.264881134,1,1000,0,1,0,1,5,3,4,2,0,250.0,test,1,H+
602.319002151,3,1000,2,1,0,1,5,3,4,2,0,250.0,test,3,H+
490.403175354,1,1000,0,1,0,1,5,3,4,2,0,250.0,test,1,H+
362.251996994,2,1000,4,1,0,1,5,3,4,2,0,250.0,test,2,H+
474.34091568,0,1000,1,1,0,1,5,3,4,2,0,250.0,test,0,H+
618.285894394,3,1000,2,1,0,1,5,3,4,2,0,250.0,test,3,H+
538.418054581,1,1000,0,1,0,1,5,3,4,2,0,250.0,test,1,H+
569.052219391,3,1000,2,1,0,1,5,3,4,2,0,250.0,test,3,H+
587.914943695,2,1000,4,1,0,1,5,3,4,2,0,250.0,test,2,H+
504.956007004,1,1000,0,1,0,1,5,3,4,2,0,250.0,test,1,H+
571.191072464,0,1000,1,1,0,1,5,3,4,2,0,250.0,test,0,H+
826.077222824,5,1000,3,1,0,1,5,3,4,2,0,250.0,test,5,H+
522.316932678,2,1000,4,0,0,1,5,3,4,2,0,250.0,test,3,H+
666.425943375,0,1000,1,1,0,1,5,3,4,2,0,250.0,test,0,H+
554.207801819,2,1000,4,1,0,1,5,3,4,2,0,250.0,test,2,H+
538.998126984,3,1000,2,1,0,1,5,3,4,2,0,250.0,test,3,H+
587.87894249,2,1000,4,1,0,1,5,3,4,2,0,250.0,test,2,H+
443.050146103,1,1000,0,1,0,1,5,3,4,2,0,250.0,test,1,H+
602.292776108,3,1000,2,1,0,1,5,3,4,2,0,250.0,test,3,H+
555.128097534,3,1000,2,1,0,1,5,3,4,2,0,250.0,test,3,H+
362.235069275,4,1000,5,1,0,1,5,3,4,2,0,250.0,test,4,H+
411.132097244,5,1000,3,1,0,1,5,3,4,2,0,250.0,test,5,H+
491.89209938,5,1000,3,1,0,1,5,3,4,2,0,250.0,test,5,H+
523.108005524,0,1000,1,1,0,1,5,3,4,2,0,250.0,test,0,H+
474.281072617,2,1000,4,1,0,1,5,3,4,2,0,250.0,test,2,H+
330.980062485,1,1000,0,1,0,1,5,3,4,2,0,250.0,test,1,H+
330.29794693,4,1000,5,1,0,1,5,3,4,2,0,250.0,test,4,H+
394.262075424,5,1000,3,1,0,1,5,3,4,2,0,250.0,test,5,H+
490.285873413,1,1000,0,1,0,1,5,3,4,2,0,250.0,test,1,H+
474.35092926,0,1000,1,1,0,1,5,3,4,2,0,250.0,test,0,H+
491.92404747,1,1000,0,1,0,1,5,3,4,2,0,250.0,test,1,H+
363.101005554,5,1000,3,1,0,1,5,3,4,2,0,250.0,test,5,H+
458.279132843,1,1000,0,1,0,1,5,3,4,2,0,250.0,test,1,H+
539.144992828,5,1000,3,1,0,1,5,3,4,2,0,250.0,test,5,H+
328.972101212,4,1000,5,1,0,1,5,3,4,2,0,250.0,test,4,H+
427.165985107,5,1000,3,1,0,1,5,3,4,2,0,250.0,test,5,H+
474.249124527,1,1000,0,1,0,1,5,3,4,2,0,250.0,test,1,H+
555.195093155,1,1000,0,1,0,1,5,3,4,2,0,250.0,test,1,H+
395.909070969,2,1000,4,1,0,1,5,3,4,2,0,250.0,test,2,H+
379.088163376,0,1000,1,1,0,1,5,3,4,2,0,250.0,test,0,H+
523.900985718,1,1000,0,1,0,1,5,3,4,2,0,250.0,test,1,H+
603.830099106,3,1000,2,1,0,1,5,3,4,2,0,250.0,test,3,H+
522.311925888,1,1000,0,1,0,1,5,3,4,2,0,250.0,test,1,H+
378.274202347,4,1000,5,1,0,1,5,3,4,2,0,250.0,test,4,H+
490.381002426,4,1000,5,1,0,1,5,3,4,2,0,250.0,test,4,H+
602.335929871,1,1000,0,1,0,1,5,3,4,2,0,250.0,test,1,H+
522.34005928,5,1000,3,1,0,1,5,3,4,2,0,250.0,test,5,H+
490.288972855,0,1000,1,1,0,1,5,3,4,2,0,250.0,test,0,H+
571.910858154,5,1000,3,1,0,1,5,3,4,2,0,250.0,test,5,H+
602.297067642,1,1000,0,1,0,1,5,3,4,2,0,250.0,test,1,H+
603.839159012,3,1000,2,1,0,1,5,3,4,2,0,250.0,test,3,H+
538.276195526,0,1000,1,1,0,1,5,3,4,2,0,250.0,test,0,H+
682.336091995,4,1000,5,1,0,1,5,3,4,2,0,250.0,test,4,H+
522.284030914,1,1000,0,1,0,1,5,3,4,2,0,250.0,test,1,H+
315.875053406,4,1000,5,1,0,1,5,3,4,2,0,250.0,test,4,H+
362.270832062,4,1000,5,1,0,1,5,3,4,2,0,250.0,test,4,H+
474.152088165,0,1000,1,1,0,1,5,3,4,2,0,250.0,test,0,H+
538.310050964,3,1000,2,1,0,1,5,3,4,2,0,250.0,test,3,H+
458.368062973,3,1000,2,1,0,1,5,3,4,2,0,250.0,test,3,H+
570.176124573,5,1000,3,1,0,1,5,3,4,2,0,250.0,test,5,H+
298.298835754,4,1000,5,1,0,1,5,3,4,2,0,250.0,test,4,H+
298.223018646,4,1000,5,1,0,1,5,3,4,2,0,250.0,test,4,H+
314.250946045,1,1000,0,0,0,1,5,3,4,2,0,250.0,test,4,H+
522.292852402,5,1000,3,1,0,1,5,3,4,2,0,250.0,test,5,H+
474.200963974,0,1000,1,1,0,1,5,3,4,2,0,250.0,test,0,H+
570.287942886,2,1000,4,1,0,1,5,3,4,2,0,250.0,test,2,H+
523.88882637,3,1000,2,1,0,1,5,3,4,2,0,250.0,test,3,H+
395.805835724,4,1000,5,1,0,1,5,3,4,2,0,250.0,test,4,H+
522.269964218,2,1000,4,1,0,1,5,3,4,2,0,250.0,test,2,H+
842.339992523,2,1000,4,1,0,1,5,3,4,2,0,250.0,test,2,H+
634.377002716,5,1000,3,1,0,1,5,3,4,2,0,250.0,test,5,H+
570.30415535,3,1000,2,1,0,1,5,3,4,2,0,250.0,test,3,H+
458.270072937,3,1000,2,1,0,1,5,3,4,2,0,250.0,test,3,H+
298.243045807,4,1000,5,1,0,1,5,3,4,2,0,250.0,test,4,H+
602.287054062,5,1000,3,1,0,1,5,3,4,2,0,250.0,test,5,H+
522.264003754,0,1000,1,1,0,1,5,3,4,2,0,250.0,test,0,H+
427.698135376,0,1000,1,1,0,1,5,3,4,2,0,250.0,test,0,H+
523.746013641,5,1000,3,1,0,1,5,3,4,2,0,250.0,test,5,H+
618.263959885,2,1000,4,1,0,1,5,3,4,2,0,250.0,test,2,H+
458.232164383,3,1000,2,0,0,1,5,3,4,2,0,250.0,test,2,H+
474.314928055,0,1000,1,1,0,1,5,3,4,2,0,250.0,test,0,H+
554.088115692,5,1000,3,1,0,1,5,3,4,2,0,250.0,test,5,H+
586.269140244,2,1000,4,1,0,1,5,3,4,2,0,250.0,test,2,H+
282.248973846,4,1000,5,1,0,1,5,3,4,2,0,250.0,test,4,H+
394.120931625,5,1000,3,1,0,1,5,3,4,2,0,250.0,test,5,H+
506.361961365,0,1000,1,1,0,1,5,3,4,2,0,250.0,test,0,H+
554.322957993,3,1000,2,1,0,1,5,3,4,2,0,250.0,test,3,H+
490.282058716,5,1000,3,1,0,1,5,3,4,2,0,250.0,test,5,H+
571.873903275,2,1000,4,1,0,1,5,3,4,2,0,250.0,test,2,H+
571.659088135,0,1000,1,1,0,1,5,3,4,2,0,250.0,test,0,H+
682.326078415,3,1000,2,1,0,1,5,3,4,2,0,250.0,test,3,H+
570.192098618,2,1000,4,1,0,1,5,3,4,2,0,250.0,test,2,H+
634.397983551,3,1000,2,1,0,1,5,3,4,2,0,250.0,test,3,H+
554.266214371,2,1000,4,1,0,1,5,3,4,2,0,250.0,test,2,H+
554.369926453,5,1000,3,1,0,1,5,3,4,2,0,250.0,test,5,H+
442.297935486,3,1000,2,1,0,1,5,3,4,2,0,250.0,test,3,H+
378.312110901,3,1000,2,1,0,1,5,3,4,2,0,250.0,test,3,H+
554.2948246,2,1000,4,1,0,1,5,3,4,2,0,250.0,test,2,H+
442.250013351,5,1000,3,1,0,1,5,3,4,2,0,250.0,test,5,H+
266.278028488,4,1000,5,1,0,1,5,3,4,2,0,250.0,test,4,H+
667.955160141,1,1000,0,1,0,1,5,3,4,2,0,250.0,test,1,H+
379.608869553,4,1000,5,1,0,1,5,3,4,2,0,250.0,test,4,H+
682.324886322,2,1000,4,1,0,1,5,3,4,2,0,250.0,test,2,H+
650.283098221,1,1000,0,1,0,1,5,3,4,2,0,250.0,test,1,H+
298.341035843,4,1000,5,1,0,1,5,3,4,2,0,250.0,test,4,H+
571.883916855,1,1000,0,1,0,1,5,3,4,2,0,250.0,test,1,H+
362.137079239,3,1000,2,1,0,1,5,3,4,2,0,250.0,test,3,H+
587.880849838,0,1000,1,1,0,1,5,3,4,2,0,250.0,test,0,H+
698.184013367,2,1000,4,1,0,1,5,3,4,2,0,250.0,test,2,H+
426.290035248,5,1000,3,1,0,1,5,3,4,2,0,250.0,test,5,H+
585.994005203,2,1000,4,1,0,1,5,3,4,2,0,250.0,test,2,H+
442.253112793,5,1000,3,1,0,1,5,3,4,2,0,250.0,test,5,H+
523.149013519,0,1000,1,1,0,1,5,3,4,2,0,250.0,test,0,H+
538.290023804,2,1000,4,1,0,1,5,3,4,2,0,250.0,test,2,H+
523.133039474,1,1000,0,1,0,1,5,3,4,2,0,250.0,test,1,H+
299.818992615,4,1000,5,1,0,1,5,3,4,2,0,250.0,test,4,H+
603.109121323,1,1000,0,1,0,1,5,3,4,2,0,250.0,test,1,H+
491.950035095,5,1000,3,1,0,1,5,3,4,2,0,250.0,test,5,H+
347.12600708,4,1000,5,1,0,1,5,3,4,2,0,250.0,test,4,H+
506.228923798,2,1000,4,1,0,1,5,3,4,2,0,250.0,test,2,H+
619.166851044,3,1000,2,1,0,1,5,3,4,2,0,250.0,test,3,H+
314.31889534,4,1000,5,1,0,1,5,3,4,2,0,250.0,test,4,H+
587.127923965,3,1000,2,1,0,1,5,3,4,2,0,250.0,test,3,H+
555.894136429,1,1000,0,1,0,1,5,3,4,2,0,250.0,test,1,H+
602.191209793,5,1000,3,1,0,1,5,3,4,2,0,250.0,test,5,H+
570.276975632,0,1000,1,1,0,1,5,3,4,2,0,250.0,test,0,H+
378.36098671,1,1000,0,1,0,1,5,3,4,2,0,250.0,test,1,H+
618.376016617,2,1000,4,1,0,1,5,3,4,2,0,250.0,test,2,H+
570.199966431,2,1000,4,1,0,1,5,3,4,2,0,250.0,test,2,H+
394.324064255,2,1000,4,1,0,1,5,3,4,2,0,250.0,test,2,H+
554.437875748,0,1000,1,1,0,1,5,3,4,2,0,250.0,test,0,H+
507.861852646,2,1000,4,1,0,1,5,3,4,2,0,250.0,test,2,H+
523.880004883,1,1000,0,0,0,1,5,3,4,2,0,250.0,test,4,H+
472.958087921,1,1000,0,1,0,1,5,3,4,2,0,250.0,test,1,H+
458.339929581,1,1000,0,1,0,1,5,3,4,2,0,250.0,test,1,H+
331.809997559,4,1000,5,1,0,1,5,3,4,2,0,250.0,test,4,H+
331.103801727,1,1000,0,1,0,1,5,3,4,2,0,250.0,test,1,H+
587.882041931,3,1000,2,1,0,1,5,3,4,2,0,250.0,test,3,H+
602.288007736,3,1000,2,1,0,1,5,3,4,2,0,250.0,test,3,H+
539.896011353,0,1000,1,1,0,1,5,3,4,2,0,250.0,test,0,H+
330.291986465,5,1000,3,1,0,1,5,3,4,2,0,250.0,test,5,H+
506.350040436,3,1000,2,1,0,1,5,3,4,2,0,250.0,test,3,H+
554.374933243,1,1000,0,1,0,1,5,3,4,2,0,250.0,test,1,H+
570.335149765,1,1000,0,1,0,1,5,3,4,2,0,250.0,test,1,H+
394.339084625,4,1000,5,1,0,1,5,3,4,2,0,250.0,test,4,H+
312.824964523,5,1000,3,1,0,1,5,3,4,2,0,250.0,test,5,H+
538.297891617,1,1000,0,1,0,1,5,3,4,2,0,250.0,test,1,H+
363.785028458,1,1000,0,0,0,1,5,3,4,2,0,250.0,test,4,H+
587.928056717,3,1000,2,1,0,1,5,3,4,2,0,250.0,test,3,H+
491.626024246,5,1000,3,1,0,1,5,3,4,2,0,250.0,test,5,H+
474.272966385,5,1000,3,1,0,1,5,3,4,2,0,250.0,test,5,H+
522.289037704,1,1000,0,1,0,1,5,3,4,2,0,250.0,test,1,H+
587.88394928,1,1000,0,1,0,1,5,3,4,2,0,250.0,test,1,H+
683.103084564,2,1000,4,1,0,1,5,3,4,2,0,250.0,test,2,H+
363.820075989,3,1000,2,1,0,1,5,3,4,2,0,250.0,test,3,H+
538.119077682,5,1000,3,1,0,1,5,3,4,2,0,250.0,test,5,H+
586.194038391,1,1000,0,1,0,1,5,3,4,2,0,250.0,test,1,H+
379.118919373,4,1000,5,1,0,1,5,3,4,2,0,250.0,test,4,H+
618.312120438,2,1000,4,1,0,1,5,3,4,2,0,250.0,test,2,H+
539.172172546,1,1000,0,1,0,1,5,3,4,2,0,250.0,test,1,H+
571.930885315,0,1000,1,1,0,1,5,3,4,2,0,250.0,test,0,H+
538.368940353,1,1000,0,1,0,1,5,3,4,2,0,250.0,test,1,H+
378.268957138,1,1000,0,1,0,1,5,3,4,2,0,250.0,test,1,H+
699.871063232,3,1000,2,1,0,1,5,3,4,2,0,250.0,test,3,H+
410.223960876,5,1000,3,1,0,1,5,3,4,2,0,250.0,test,5,H+
666.26906395,3,1000,2,1,0,1,5,3,4,2,0,250.0,test,3,H+
650.35700798,0,1000,1,1,0,1,5,3,4,2,0,250.0,test,0,H+
538.17987442,3,1000,2,1,0,1,5,3,4,2,0,250.0,test,3,H+
394.315004349,5,1000,3,1,0,1,5,3,4,2,0,250.0,test,5,H+
442.132949829,1,1000,0,1,0,1,5,3,4,2,0,250.0,test,1,H+
602.264165878,2,1000,4,1,0,1,5,3,4,2,0,250.0,test,2,H+
443.93491745,5,1000,3,1,0,1,5,3,4,2,0,250.0,test,5,H+
490.308046341,1,1000,0,1,0,1,5,3,4,2,0,250.0,test,1,H+
410.181045532,1,1000,0,1,0,1,5,3,4,2,0,250.0,test,1,H+
619.769096375,3,1000,2,1,0,1,5,3,4,2,0,250.0,test,3,H+
458.249092102,1,1000,0,1,0,1,5,3,4,2,0,250.0,test,1,H+
666.310071945,2,1000,4,1,0,1,5,3,4,2,0,250.0,test,2,H+
362.223863602,0,1000,1,1,0,1,5,3,4,2,0,250.0,test,0,H+
586.338043213,2,1000,4,1,0,1,5,3,4,2,0,250.0,test,2,H+
412.139177322,5,1000,3,1,0,1,5,3,4,2,0,250.0,test,5,H+
555.906057358,3,1000,2,1,0,1,5,3,4,2,0,250.0,test,3,H+
523.915052414,1,1000,0,1,0,1,5,3,4,2,0,250.0,test,1,H+
555.806159973,5,1000,3,1,0,1,5,3,4,2,0,250.0,test,5,H+
475.654840469,3,1000,2,1,0,1,5,3,4,2,0,250.0,test,3,H+
552.931070328,1,1000,0,1,0,1,5,3,4,2,0,250.0,test,1,H+
314.163208008,4,1000,5,1,0,1,5,3,4,2,0,250.0,test,4,H+
586.300134659,5,1000,3,1,0,1,5,3,4,2,0,250.0,test,5,H+
362.193822861,4,1000,5,1,0,1,5,3,4,2,0,250.0,test,4,H+
362.34998703,4,1000,5,1,0,1,5,3,4,2,0,250.0,test,4,H+
458.274841309,5,1000,3,1,0,1,5,3,4,2,0,250.0,test,5,H+
459.144830704,5,1000,3,1,0,1,5,3,4,2,0,250.0,test,5,H+
427.649974823,5,1000,3,1,0,1,5,3,4,2,0,250.0,test,5,H+
603.753805161,2,1000,4,1,0,1,5,3,4,2,0,250.0,test,2,H+
634.245157242,3,1000,2,1,0,1,5,3,4,2,0,250.0,test,3,H+
666.172027588,4,1000,5,0,0,1,5,3,4,2,0,250.0,test,3,H+
346.210002899,4,1000,5,1,0,1,5,3,4,2,0,250.0,test,4,H+
619.942903519,1,1000,0,1,0,1,5,3,4,2,0,250.0,test,1,H+
362.370967865,4,1000,5,1,0,1,5,3,4,2,0,250.0,test,4,H+
378.299951553,1,1000,0,0,0,1,5,3,4,2,0,250.0,test,5,H+
362.380027771,5,1000,3,1,0,1,5,3,4,2,0,250.0,test,5,H+
506.25705719,4,1000,5,1,0,1,5,3,4,2,0,250.0,test,4,H+
650.305986404,2,1000,4,1,0,1,5,3,4,2,0,250.0,test,2,H+
634.28902626,3,1000,2,1,0,1,5,3,4,2,0,250.0,test,3,H+
491.019964218,3,1000,2,1,0,1,5,3,4,2,0,250.0,test,3,H+
827.855825424,1,1000,0,1,0,1,5,3,4,2,0,250.0,test,1,H+
538.363933563,2,1000,4,1,0,1,5,3,4,2,0,250.0,test,2,H+
474.277973175,4,1000,5,1,0,1,5,3,4,2,0,250.0,test,4,H+
618.416070938,5,1000,3,1,0,1,5,3,4,2,0,250.0,test,5,H+
553.010940552,3,1000,2,1,0,1,5,3,4,2,0,250.0,test,3,H+
523.144006729,1,1000,0,1,0,1,5,3,4,2,0,250.0,test,1,H+
571.842908859,2,1000,4,1,0,1,5,3,4,2,0,250.0,test,2,H+
538.239002228,2,1000,4,1,0,1,5,3,4,2,0,250.0,test,2,H+
602.181911469,4,1000,5,1,0,1,5,3,4,2,0,250.0,test,4,H+
586.327075958,2,1000,4,1,0,1,5,3,4,2,0,250.0,test,2,H+
475.908041,4,1000,5,1,0,1,5,3,4,2,0,250.0,test,4,H+
618.850946426,5,1000,3,1,0,1,5,3,4,2,0,250.0,test,5,H+
650.284051895,5,1000,3,1,0,1,5,3,4,2,0,250.0,test,5,H+
555.094957352,3,1000,2,1,0,1,5,3,4,2,0,250.0,test,3,H+
346.871137619,4,1000,5,1,0,1,5,3,4,2,0,250.0,test,4,H+
491.145849228,3,1000,2,1,0,1,5,3,4,2,0,250.0,test,3,H+
554.294109344,3,1000,2,1,0,1,5,3,4,2,0,250.0,test,3,H+
554.337978363,5,1000,3,1,0,1,5,3,4,2,0,250.0,test,5,H+
474.248886108,4,1000,5,1,0,1,5,3,4,2,0,250.0,test,4,H+
684.506893158,2,1000,4,1,0,1,5,3,4,2,0,250.0,test,2,H+
346.354007721,1,1000,0,1,0,1,5,3,4,2,0,250.0,test,1,H+
603.847980499,3,1000,2,1,0,1,5,3,4,2,0,250.0,test,3,H+
602.308988571,2,1000,4,1,0,1,5,3,4,2,0,250.0,test,2,H+
778.384208679,2,1000,4,1,0,1,5,3,4,2,0,250.0,test,2,H+
490.229845047,4,1000,5,1,0,1,5,3,4,2,0,250.0,test,4,H+
522.415161133,1,1000,0,1,0,1,5,3,4,2,0,250.0,test,1,H+
394.175052643,1,1000,0,1,0,1,5,3,4,2,0,250.0,test,1,H+
506.105899811,0,1000,1,1,0,1,5,3,4,2,0,250.0,test,0,H+
362.293958664,2,1000,4,1,0,1,5,3,4,2,0,250.0,test,2,H+
827.163219452,5,1000,3,1,0,1,5,3,4,2,0,250.0,test,5,H+
506.263017654,0,1000,1,1,0,1,5,3,4,2,0,250.0,test,0,H+
586.283922195,3,1000,2,1,0,1,5,3,4,2,0,250.0,test,3,H+
555.830001831,1,1000,0,1,0,1,5,3,4,2,0,250.0,test,1,H+
522.085905075,4,1000,5,1,0,1,5,3,4,2,0,250.0,test,4,H+
491.093873978,3,1000,2,1,0,1,5,3,4,2,0,250.0,test,3,H+
410.20989418,5,1000,3,1,0,1,5,3,4,2,0,250.0,test,5,H+
539.186000824,2,1000,4,1,0,1,5,3,4,2,0,250.0,test,2,H+
