RT,correct_response,ms-prestimblank,curstim,correct,SRmap_1,SRmap_0,SRmap_3,SRmap_2,SRmap_5,SRmap_4,ms-precue,ntrials,type,response,condition
2073.83489609,1,1000,4,1,4,2,3,5,0,1,0,250.0,train,1,M
666.212081909,5,1000,2,1,4,2,3,5,0,1,0,250.0,train,5,M
746.268987656,2,1000,0,1,4,2,3,5,0,1,0,250.0,train,2,M
746.276855469,4,1000,1,1,4,2,3,5,0,1,0,250.0,train,4,M
778.349876404,1,1000,4,1,4,2,3,5,0,1,0,250.0,train,1,M
731.384992599,5,1000,2,1,4,2,3,5,0,1,0,250.0,train,5,M
650.304079056,0,1000,5,1,4,2,3,5,0,1,0,250.0,train,0,M
810.310840607,3,1000,3,1,4,2,3,5,0,1,0,250.0,train,3,M
634.402990341,1,1000,4,1,4,2,3,5,0,1,0,250.0,train,1,M
698.354005814,3,1000,3,1,4,2,3,5,0,1,0,250.0,train,3,M
602.371931076,0,1000,5,1,4,2,3,5,0,1,0,250.0,train,0,M
874.439001083,4,1000,1,1,4,2,3,5,0,1,0,250.0,train,4,M
603.2371521,2,1000,0,0,4,2,3,5,0,1,0,250.0,train,3,M
539.908885956,0,1000,5,1,4,2,3,5,0,1,0,250.0,train,0,M
795.242786407,4,1000,1,1,4,2,3,5,0,1,0,250.0,train,4,M
571.866989136,5,1000,2,1,4,2,3,5,0,1,0,250.0,train,5,M
698.470830917,4,1000,1,1,4,2,3,5,0,1,0,250.0,train,4,M
634.485960007,2,1000,0,1,4,2,3,5,0,1,0,250.0,train,2,M
698.329925537,5,1000,2,1,4,2,3,5,0,1,0,250.0,train,5,M
762.466907501,2,1000,0,1,4,2,3,5,0,1,0,250.0,train,2,M
603.534936905,4,1000,1,1,4,2,3,5,0,1,0,250.0,train,4,M
553.639888763,4,1000,1,1,4,2,3,5,0,1,0,250.0,train,4,M
506.503820419,5,1000,2,1,4,2,3,5,0,1,0,250.0,train,5,M
474.493026733,4,1000,1,0,4,2,3,5,0,1,0,250.0,train,5,M
442.537069321,4,1000,1,1,4,2,3,5,0,1,0,250.0,train,4,M
634.517908096,0,1000,5,1,4,2,3,5,0,1,0,250.0,train,0,M
506.42490387,0,1000,5,1,4,2,3,5,0,1,0,250.0,train,0,M
490.384101868,5,1000,2,1,4,2,3,5,0,1,0,250.0,train,5,M
651.034116745,4,1000,1,1,4,2,3,5,0,1,0,250.0,train,4,M
810.410022736,4,1000,1,1,4,2,3,5,0,1,0,250.0,train,4,M
667.385101318,3,1000,3,1,4,2,3,5,0,1,0,250.0,train,3,M
730.458021164,2,1000,0,1,4,2,3,5,0,1,0,250.0,train,2,M
554.307222366,0,1000,5,1,4,2,3,5,0,1,0,250.0,train,0,M
890.468120575,1,1000,4,1,4,2,3,5,0,1,0,250.0,train,1,M
666.381120682,1,1000,4,1,4,2,3,5,0,1,0,250.0,train,1,M
602.338075638,1,1000,4,1,4,2,3,5,0,1,0,250.0,train,1,M
635.299921036,4,1000,1,1,4,2,3,5,0,1,0,250.0,train,4,M
698.482990265,5,1000,2,1,4,2,3,5,0,1,0,250.0,train,5,M
1162.47296333,2,1000,0,1,4,2,3,5,0,1,0,250.0,train,2,M
842.360019684,5,1000,2,1,4,2,3,5,0,1,0,250.0,train,5,M
1082.47995377,2,1000,0,1,4,2,3,5,0,1,0,250.0,train,2,M
858.511924744,3,1000,3,1,4,2,3,5,0,1,0,250.0,train,3,M
666.481018066,1,1000,4,1,4,2,3,5,0,1,0,250.0,train,1,M
778.466939926,4,1000,1,1,4,2,3,5,0,1,0,250.0,train,4,M
554.370880127,0,1000,5,1,4,2,3,5,0,1,0,250.0,train,0,M
826.542854309,3,1000,3,1,4,2,3,5,0,1,0,250.0,train,3,M
650.479793549,2,1000,0,1,4,2,3,5,0,1,0,250.0,train,2,M
618.499040604,4,1000,1,1,4,2,3,5,0,1,0,250.0,train,4,M
619.09198761,4,1000,1,1,4,2,3,5,0,1,0,250.0,train,4,M
522.463083267,3,1000,3,1,4,2,3,5,0,1,0,250.0,train,3,M
602.226018906,4,1000,1,0,4,2,3,5,0,1,0,250.0,train,3,M
666.882038116,0,1000,5,1,4,2,3,5,0,1,0,250.0,train,0,M
810.523986816,4,1000,1,1,4,2,3,5,0,1,0,250.0,train,4,M
570.481061935,4,1000,1,1,4,2,3,5,0,1,0,250.0,train,4,M
587.369918823,3,1000,3,1,4,2,3,5,0,1,0,250.0,train,3,M
650.432109833,3,1000,3,1,4,2,3,5,0,1,0,250.0,train,3,M
730.397939682,2,1000,0,1,4,2,3,5,0,1,0,250.0,train,2,M
634.420156479,2,1000,0,1,4,2,3,5,0,1,0,250.0,train,2,M
778.439998627,4,1000,1,0,4,2,3,5,0,1,0,250.0,train,3,M
3099.91288185,1,1000,4,1,4,2,3,5,0,1,0,250.0,train,1,M
826.47895813,3,1000,3,1,4,2,3,5,0,1,0,250.0,train,3,M
602.541923523,4,1000,1,1,4,2,3,5,0,1,0,250.0,train,4,M
523.231983185,4,1000,1,1,4,2,3,5,0,1,0,250.0,train,4,M
618.501901627,3,1000,3,1,4,2,3,5,0,1,0,250.0,train,3,M
699.296951294,2,1000,0,1,4,2,3,5,0,1,0,250.0,train,2,M
602.495908737,0,1000,5,1,4,2,3,5,0,1,0,250.0,train,0,M
571.865081787,1,1000,4,1,4,2,3,5,0,1,0,250.0,train,1,M
715.369939804,1,1000,4,1,4,2,3,5,0,1,0,250.0,train,1,M
490.536212921,1,1000,4,1,4,2,3,5,0,1,0,250.0,train,1,M
506.565093994,0,1000,5,1,4,2,3,5,0,1,0,250.0,train,0,M
650.420188904,1,1000,4,1,4,2,3,5,0,1,0,250.0,train,1,M
666.383981705,5,1000,2,1,4,2,3,5,0,1,0,250.0,train,5,M
698.49896431,2,1000,0,1,4,2,3,5,0,1,0,250.0,train,2,M
666.474103928,3,1000,3,1,4,2,3,5,0,1,0,250.0,train,3,M
619.385004044,1,1000,4,1,4,2,3,5,0,1,0,250.0,train,1,M
1130.48315048,4,1000,1,1,4,2,3,5,0,1,0,250.0,train,4,M
602.458000183,1,1000,4,1,4,2,3,5,0,1,0,250.0,train,1,M
586.333990097,3,1000,3,1,4,2,3,5,0,1,0,250.0,train,3,M
506.422996521,3,1000,3,1,4,2,3,5,0,1,0,250.0,train,3,M
443.212032318,4,1000,1,1,4,2,3,5,0,1,0,250.0,train,4,M
378.378868103,5,1000,2,1,4,2,3,5,0,1,0,250.0,train,5,M
554.352045059,0,1000,5,1,4,2,3,5,0,1,0,250.0,train,0,M
538.36607933,4,1000,1,1,4,2,3,5,0,1,0,250.0,train,4,M
474.43318367,4,1000,1,1,4,2,3,5,0,1,0,250.0,train,4,M
522.481918335,3,1000,3,0,4,2,3,5,0,1,0,250.0,train,4,M
699.867010117,3,1000,3,1,4,2,3,5,0,1,0,250.0,train,3,M
587.512016296,1,1000,4,1,4,2,3,5,0,1,0,250.0,train,1,M
778.537034988,3,1000,3,1,4,2,3,5,0,1,0,250.0,train,3,M
650.449991226,3,1000,3,1,4,2,3,5,0,1,0,250.0,train,3,M
1050.552845,2,1000,0,1,4,2,3,5,0,1,0,250.0,train,2,M
570.401906967,5,1000,2,1,4,2,3,5,0,1,0,250.0,train,5,M
555.997848511,5,1000,2,1,4,2,3,5,0,1,0,250.0,train,5,M
475.260972977,5,1000,2,1,4,2,3,5,0,1,0,250.0,train,5,M
796.016216278,3,1000,3,1,4,2,3,5,0,1,0,250.0,train,3,M
618.474006653,1,1000,4,1,4,2,3,5,0,1,0,250.0,train,1,M
666.50891304,3,1000,3,1,4,2,3,5,0,1,0,250.0,train,3,M
570.4600811,0,1000,5,1,4,2,3,5,0,1,0,250.0,train,0,M
603.286027908,2,1000,0,1,4,2,3,5,0,1,0,250.0,train,2,M
619.985103607,5,1000,2,1,4,2,3,5,0,1,0,250.0,train,5,M
618.52478981,5,1000,2,1,4,2,3,5,0,1,0,250.0,train,5,M
698.481082916,1,1000,4,0,4,2,3,5,0,1,0,250.0,train,0,M
490.521192551,0,1000,5,1,4,2,3,5,0,1,0,250.0,train,0,M
410.526037216,0,1000,5,1,4,2,3,5,0,1,0,250.0,train,0,M
539.78395462,4,1000,1,1,4,2,3,5,0,1,0,250.0,train,4,M
522.404909134,5,1000,2,1,4,2,3,5,0,1,0,250.0,train,5,M
410.387992859,3,1000,3,1,4,2,3,5,0,1,0,250.0,train,3,M
554.373025894,1,1000,4,1,4,2,3,5,0,1,0,250.0,train,1,M
698.426961899,4,1000,1,0,4,2,3,5,0,1,0,250.0,train,5,M
538.385152817,5,1000,2,1,4,2,3,5,0,1,0,250.0,train,5,M
779.406070709,2,1000,0,0,4,2,3,5,0,1,0,250.0,train,3,M
730.350971222,5,1000,2,1,4,2,3,5,0,1,0,250.0,train,5,M
858.387947083,3,1000,3,1,4,2,3,5,0,1,0,250.0,train,3,M
619.277000427,5,1000,2,1,4,2,3,5,0,1,0,250.0,train,5,M
586.33518219,0,1000,5,1,4,2,3,5,0,1,0,250.0,train,0,M
1018.34106445,2,1000,0,1,4,2,3,5,0,1,0,250.0,train,2,M
554.453849792,1,1000,4,1,4,2,3,5,0,1,0,250.0,train,1,M
506.419897079,1,1000,4,1,4,2,3,5,0,1,0,250.0,train,1,M
426.35011673,0,1000,5,1,4,2,3,5,0,1,0,250.0,train,0,M
506.464958191,5,1000,2,1,4,2,3,5,0,1,0,250.0,train,5,M
634.472846985,5,1000,2,1,4,2,3,5,0,1,0,250.0,train,5,M
410.393953323,5,1000,2,1,4,2,3,5,0,1,0,250.0,train,5,M
634.422063828,4,1000,1,1,4,2,3,5,0,1,0,250.0,train,4,M
506.493091583,5,1000,2,1,4,2,3,5,0,1,0,250.0,train,5,M
987.282037735,2,1000,0,1,4,2,3,5,0,1,0,250.0,train,2,M
522.444963455,5,1000,2,1,4,2,3,5,0,1,0,250.0,train,5,M
506.536006927,0,1000,5,1,4,2,3,5,0,1,0,250.0,train,0,M
602.542161942,1,1000,4,1,4,2,3,5,0,1,0,250.0,train,1,M
522.537946701,5,1000,2,1,4,2,3,5,0,1,0,250.0,train,5,M
634.502887726,0,1000,5,1,4,2,3,5,0,1,0,250.0,train,0,M
1050.56405067,3,1000,3,1,4,2,3,5,0,1,0,250.0,train,3,M
522.583961487,5,1000,2,1,4,2,3,5,0,1,0,250.0,train,5,M
841.214895248,3,1000,3,1,4,2,3,5,0,1,0,250.0,train,3,M
666.520833969,4,1000,1,1,4,2,3,5,0,1,0,250.0,train,4,M
778.534889221,2,1000,0,1,4,2,3,5,0,1,0,250.0,train,2,M
635.344028473,1,1000,4,1,4,2,3,5,0,1,0,250.0,train,1,M
554.61192131,5,1000,2,1,4,2,3,5,0,1,0,250.0,train,5,M
554.595947266,5,1000,2,1,4,2,3,5,0,1,0,250.0,train,5,M
794.349193573,4,1000,1,1,4,2,3,5,0,1,0,250.0,train,4,M
762.21704483,3,1000,3,1,4,2,3,5,0,1,0,250.0,train,3,M
586.4610672,0,1000,5,1,4,2,3,5,0,1,0,250.0,train,0,M
1210.41512489,4,1000,1,1,4,2,3,5,0,1,0,250.0,train,4,M
924.216985703,3,1000,3,1,4,2,3,5,0,1,0,250.0,train,3,M
586.3301754,4,1000,1,1,4,2,3,5,0,1,0,250.0,train,4,M
538.390874863,4,1000,1,1,4,2,3,5,0,1,0,250.0,train,4,M
410.418987274,4,1000,1,1,4,2,3,5,0,1,0,250.0,train,4,M
570.240974426,0,1000,5,1,4,2,3,5,0,1,0,250.0,train,0,M
571.861982346,4,1000,1,1,4,2,3,5,0,1,0,250.0,train,4,M
938.50684166,2,1000,0,1,4,2,3,5,0,1,0,250.0,train,2,M
554.365158081,5,1000,2,1,4,2,3,5,0,1,0,250.0,train,5,M
1178.47490311,3,1000,3,1,4,2,3,5,0,1,0,250.0,train,3,M
666.50390625,5,1000,2,1,4,2,3,5,0,1,0,250.0,train,5,M
714.329957962,1,1000,4,1,4,2,3,5,0,1,0,250.0,train,1,M
698.528051376,2,1000,0,0,4,2,3,5,0,1,0,250.0,train,3,M
587.957859039,3,1000,3,1,4,2,3,5,0,1,0,250.0,train,3,M
571.949005127,5,1000,2,1,4,2,3,5,0,1,0,250.0,train,5,M
474.472999573,5,1000,2,1,4,2,3,5,0,1,0,250.0,train,5,M
1068.11404228,5,1000,2,1,4,2,3,5,0,1,0,250.0,train,5,M
779.248952866,5,1000,2,1,4,2,3,5,0,1,0,250.0,train,5,M
875.956058502,5,1000,2,1,4,2,3,5,0,1,0,250.0,train,5,M
699.939966202,3,1000,3,1,4,2,3,5,0,1,0,250.0,train,3,M
459.964036942,3,1000,3,1,4,2,3,5,0,1,0,250.0,train,3,M
490.556955338,5,1000,2,1,4,2,3,5,0,1,0,250.0,train,5,M
634.52911377,4,1000,1,1,4,2,3,5,0,1,0,250.0,train,4,M
730.549097061,1,1000,4,1,4,2,3,5,0,1,0,250.0,train,1,M
891.386985779,2,1000,0,1,4,2,3,5,0,1,0,250.0,train,2,M
618.539094925,0,1000,5,1,4,2,3,5,0,1,0,250.0,train,0,M
698.543071747,3,1000,3,1,4,2,3,5,0,1,0,250.0,train,3,M
666.543006897,1,1000,4,1,4,2,3,5,0,1,0,250.0,train,1,M
682.559013367,1,1000,4,1,4,2,3,5,0,1,0,250.0,train,1,M
762.614011765,2,1000,0,1,4,2,3,5,0,1,0,250.0,train,2,M
714.334011078,2,1000,0,1,4,2,3,5,0,1,0,250.0,train,2,M
683.369159698,5,1000,2,1,4,2,3,5,0,1,0,250.0,train,5,M
810.440063477,4,1000,1,1,4,2,3,5,0,1,0,250.0,train,4,M
714.439868927,2,1000,0,1,4,2,3,5,0,1,0,250.0,train,2,M
634.491920471,1,1000,4,1,4,2,3,5,0,1,0,250.0,train,1,M
602.392911911,2,1000,0,0,4,2,3,5,0,1,0,250.0,train,3,M
650.362968445,4,1000,1,1,4,2,3,5,0,1,0,250.0,train,4,M
682.421922684,3,1000,3,1,4,2,3,5,0,1,0,250.0,train,3,M
474.237918854,0,1000,5,1,4,2,3,5,0,1,0,250.0,train,0,M
634.565114975,3,1000,3,1,4,2,3,5,0,1,0,250.0,train,3,M
858.379125595,4,1000,1,1,4,2,3,5,0,1,0,250.0,train,4,M
666.476011276,3,1000,3,1,4,2,3,5,0,1,0,250.0,train,3,M
650.363922119,1,1000,4,1,4,2,3,5,0,1,0,250.0,train,1,M
731.295108795,2,1000,0,1,4,2,3,5,0,1,0,250.0,train,2,M
586.402893066,4,1000,1,1,4,2,3,5,0,1,0,250.0,train,4,M
634.366989136,2,1000,0,1,4,2,3,5,0,1,0,250.0,train,2,M
699.349880219,2,1000,0,0,4,2,3,5,0,1,0,250.0,train,3,M
490.531921387,0,1000,5,1,4,2,3,5,0,1,0,250.0,train,0,M
938.51184845,2,1000,0,1,4,2,3,5,0,1,0,250.0,train,2,M
618.545770645,2,1000,0,1,4,2,3,5,0,1,0,250.0,train,2,M
714.544057846,3,1000,3,1,4,2,3,5,0,1,0,250.0,train,3,M
586.548089981,5,1000,2,1,4,2,3,5,0,1,0,250.0,train,5,M
730.479955673,0,1000,5,1,4,2,3,5,0,1,0,250.0,train,0,M
554.51798439,0,1000,5,1,4,2,3,5,0,1,0,250.0,train,0,M
586.545944214,5,1000,2,1,4,2,3,5,0,1,0,250.0,train,5,M
876.003026962,3,1000,3,1,4,2,3,5,0,1,0,250.0,train,3,M
586.447954178,1,1000,4,1,4,2,3,5,0,1,0,250.0,train,1,M
555.441856384,5,1000,2,1,4,2,3,5,0,1,0,250.0,train,5,M
506.52718544,0,1000,5,1,4,2,3,5,0,1,0,250.0,train,0,M
522.610187531,1,1000,4,1,4,2,3,5,0,1,0,250.0,train,1,M
714.412927628,2,1000,0,1,4,2,3,5,0,1,0,250.0,train,2,M
698.87304306,2,1000,0,1,4,2,3,5,0,1,0,250.0,train,2,M
458.422899246,2,1000,0,1,4,2,3,5,0,1,0,250.0,train,2,M
635.097026825,4,1000,1,1,4,2,3,5,0,1,0,250.0,train,4,M
490.417003632,2,1000,0,1,4,2,3,5,0,1,0,250.0,train,2,M
649.171113968,3,1000,3,0,4,2,3,5,0,1,0,250.0,train,4,M
730.330944061,2,1000,0,1,4,2,3,5,0,1,0,250.0,train,2,M
538.420200348,0,1000,5,1,4,2,3,5,0,1,0,250.0,train,0,M
523.861885071,1,1000,4,1,4,2,3,5,0,1,0,250.0,train,1,M
875.419139862,3,1000,3,1,4,2,3,5,0,1,0,250.0,train,3,M
538.386106491,1,1000,4,1,4,2,3,5,0,1,0,250.0,train,1,M
490.307092667,1,1000,4,1,4,2,3,5,0,1,0,250.0,train,1,M
586.390972137,3,1000,3,0,4,2,3,5,0,1,0,250.0,train,2,M
586.465120316,0,1000,5,1,4,2,3,5,0,1,0,250.0,train,0,M
634.456157684,3,1000,3,1,4,2,3,5,0,1,0,250.0,train,3,M
778.472900391,2,1000,0,1,4,2,3,5,0,1,0,250.0,train,2,M
650.515079498,2,1000,0,1,4,2,3,5,0,1,0,250.0,train,2,M
428.035020828,2,1000,0,1,4,2,3,5,0,1,0,250.0,train,2,M
586.457014084,0,1000,5,1,4,2,3,5,0,1,0,250.0,train,0,M
571.928024292,2,1000,0,1,4,2,3,5,0,1,0,250.0,train,2,M
554.49795723,1,1000,4,1,4,2,3,5,0,1,0,250.0,train,1,M
826.511144638,4,1000,1,1,4,2,3,5,0,1,0,250.0,train,4,M
619.874954224,1,1000,4,1,4,2,3,5,0,1,0,250.0,train,1,M
634.464979172,2,1000,0,1,4,2,3,5,0,1,0,250.0,train,2,M
538.515090942,1,1000,4,1,4,2,3,5,0,1,0,250.0,train,1,M
810.552835464,4,1000,1,1,4,2,3,5,0,1,0,250.0,train,4,M
986.576080322,3,1000,3,1,4,2,3,5,0,1,0,250.0,train,3,M
507.246017456,3,1000,3,1,4,2,3,5,0,1,0,250.0,train,3,M
506.521940231,0,1000,5,1,4,2,3,5,0,1,0,250.0,train,0,M
698.543071747,2,1000,0,1,4,2,3,5,0,1,0,250.0,train,2,M
698.575973511,3,1000,3,1,4,2,3,5,0,1,0,250.0,train,3,M
634.552001953,5,1000,2,1,4,2,3,5,0,1,0,250.0,train,5,M
474.575042725,5,1000,2,1,4,2,3,5,0,1,0,250.0,train,5,M
778.569936752,4,1000,1,1,4,2,3,5,0,1,0,250.0,train,4,M
555.377960205,3,1000,3,1,4,2,3,5,0,1,0,250.0,train,3,M
938.494920731,2,1000,0,1,4,2,3,5,0,1,0,250.0,train,2,M
570.404052734,5,1000,2,1,4,2,3,5,0,1,0,250.0,train,5,M
826.349020004,3,1000,3,1,4,2,3,5,0,1,0,250.0,train,3,M
682.420969009,2,1000,0,1,4,2,3,5,0,1,0,250.0,train,2,M
810.463905334,1,1000,4,1,4,2,3,5,0,1,0,250.0,train,1,M
506.059169769,1,1000,4,1,4,2,3,5,0,1,0,250.0,train,1,M
586.359977722,0,1000,5,1,4,2,3,5,0,1,0,250.0,train,0,M
490.442037582,0,1000,5,1,4,2,3,5,0,1,0,250.0,train,0,M
716.099023819,2,1000,0,1,4,2,3,5,0,1,0,250.0,train,2,M
474.462032318,5,1000,2,0,4,2,3,5,0,1,0,250.0,train,2,M
490.431785583,0,1000,5,1,4,2,3,5,0,1,0,250.0,train,0,M
762.562990189,4,1000,1,1,4,2,3,5,0,1,0,250.0,train,4,M
587.8469944,1,1000,4,1,4,2,3,5,0,1,0,250.0,train,1,M
587.224006653,2,1000,0,1,4,2,3,5,0,1,0,250.0,train,2,M
634.453058243,4,1000,1,1,4,2,3,5,0,1,0,250.0,train,4,M
65036.4670753,1,1000,4,1,4,2,3,5,0,1,0,250.0,test,1,M
1530.18593788,0,1000,5,1,4,2,3,5,0,1,0,250.0,test,0,M
922.33300209,1,1000,4,1,4,2,3,5,0,1,0,250.0,test,1,M
970.364093781,3,1000,3,1,4,2,3,5,0,1,0,250.0,test,3,M
634.332180023,0,1000,5,1,4,2,3,5,0,1,0,250.0,test,0,M
1034.35182571,4,1000,1,1,4,2,3,5,0,1,0,250.0,test,4,M
522.241830826,5,1000,2,1,4,2,3,5,0,1,0,250.0,test,5,M
1914.27397728,2,1000,0,1,4,2,3,5,0,1,0,250.0,test,2,M
778.308868408,3,1000,3,0,4,2,3,5,0,1,0,250.0,test,4,M
715.16084671,0,1000,5,1,4,2,3,5,0,1,0,250.0,test,0,M
986.426830292,2,1000,0,1,4,2,3,5,0,1,0,250.0,test,2,M
666.306972504,2,1000,0,1,4,2,3,5,0,1,0,250.0,test,2,M
1098.3569622,4,1000,1,1,4,2,3,5,0,1,0,250.0,test,4,M
650.306940079,0,1000,5,1,4,2,3,5,0,1,0,250.0,test,0,M
491.101026535,5,1000,2,1,4,2,3,5,0,1,0,250.0,test,5,M
666.344881058,4,1000,1,1,4,2,3,5,0,1,0,250.0,test,4,M
618.375062943,5,1000,2,1,4,2,3,5,0,1,0,250.0,test,5,M
746.369123459,2,1000,0,0,4,2,3,5,0,1,0,250.0,test,0,M
667.069196701,5,1000,2,1,4,2,3,5,0,1,0,250.0,test,5,M
938.392877579,2,1000,0,1,4,2,3,5,0,1,0,250.0,test,2,M
651.854991913,4,1000,1,1,4,2,3,5,0,1,0,250.0,test,4,M
859.875917435,3,1000,3,1,4,2,3,5,0,1,0,250.0,test,3,M
954.336881638,2,1000,0,1,4,2,3,5,0,1,0,250.0,test,2,M
522.643089294,2,1000,0,1,4,2,3,5,0,1,0,250.0,test,2,M
634.351015091,0,1000,5,1,4,2,3,5,0,1,0,250.0,test,0,M
634.356975555,2,1000,0,1,4,2,3,5,0,1,0,250.0,test,2,M
538.377046585,5,1000,2,1,4,2,3,5,0,1,0,250.0,test,5,M
490.381002426,5,1000,2,1,4,2,3,5,0,1,0,250.0,test,5,M
794.363021851,2,1000,0,1,4,2,3,5,0,1,0,250.0,test,2,M
746.106863022,3,1000,3,1,4,2,3,5,0,1,0,250.0,test,3,M
650.325059891,5,1000,2,1,4,2,3,5,0,1,0,250.0,test,5,M
426.254034042,5,1000,2,1,4,2,3,5,0,1,0,250.0,test,5,M
602.317094803,4,1000,1,1,4,2,3,5,0,1,0,250.0,test,4,M
746.367931366,2,1000,0,1,4,2,3,5,0,1,0,250.0,test,2,M
458.353996277,2,1000,0,1,4,2,3,5,0,1,0,250.0,test,2,M
666.327953339,3,1000,3,1,4,2,3,5,0,1,0,250.0,test,3,M
538.326025009,5,1000,2,1,4,2,3,5,0,1,0,250.0,test,5,M
602.343082428,2,1000,0,1,4,2,3,5,0,1,0,250.0,test,2,M
634.300947189,4,1000,1,1,4,2,3,5,0,1,0,250.0,test,4,M
762.349843979,3,1000,3,1,4,2,3,5,0,1,0,250.0,test,3,M
618.410110474,4,1000,1,1,4,2,3,5,0,1,0,250.0,test,4,M
394.681930542,5,1000,2,1,4,2,3,5,0,1,0,250.0,test,5,M
778.303146362,4,1000,1,1,4,2,3,5,0,1,0,250.0,test,4,M
474.334955215,4,1000,1,0,4,2,3,5,0,1,0,250.0,test,5,M
842.233896255,3,1000,3,1,4,2,3,5,0,1,0,250.0,test,3,M
458.27794075,4,1000,1,1,4,2,3,5,0,1,0,250.0,test,4,M
378.201961517,5,1000,2,0,4,2,3,5,0,1,0,250.0,test,4,M
586.239099503,3,1000,3,1,4,2,3,5,0,1,0,250.0,test,3,M
1098.34194183,1,1000,4,1,4,2,3,5,0,1,0,250.0,test,1,M
602.225065231,5,1000,2,1,4,2,3,5,0,1,0,250.0,test,5,M
1434.34596062,2,1000,0,1,4,2,3,5,0,1,0,250.0,test,2,M
746.345996857,1,1000,4,1,4,2,3,5,0,1,0,250.0,test,1,M
506.35099411,5,1000,2,1,4,2,3,5,0,1,0,250.0,test,5,M
650.288105011,0,1000,5,1,4,2,3,5,0,1,0,250.0,test,0,M
635.818958282,3,1000,3,1,4,2,3,5,0,1,0,250.0,test,3,M
587.863922119,5,1000,2,1,4,2,3,5,0,1,0,250.0,test,5,M
619.755983353,3,1000,3,1,4,2,3,5,0,1,0,250.0,test,3,M
619.813919067,1,1000,4,1,4,2,3,5,0,1,0,250.0,test,1,M
570.39308548,5,1000,2,1,4,2,3,5,0,1,0,250.0,test,5,M
538.311004639,1,1000,4,1,4,2,3,5,0,1,0,250.0,test,1,M
523.708105087,5,1000,2,1,4,2,3,5,0,1,0,250.0,test,5,M
522.284984589,5,1000,2,1,4,2,3,5,0,1,0,250.0,test,5,M
1274.24812317,2,1000,0,1,4,2,3,5,0,1,0,250.0,test,2,M
651.648044586,0,1000,5,1,4,2,3,5,0,1,0,250.0,test,0,M
699.214220047,0,1000,5,1,4,2,3,5,0,1,0,250.0,test,0,M
555.7949543,1,1000,4,1,4,2,3,5,0,1,0,250.0,test,1,M
602.293968201,2,1000,0,1,4,2,3,5,0,1,0,250.0,test,2,M
474.256038666,5,1000,2,1,4,2,3,5,0,1,0,250.0,test,5,M
858.261108398,2,1000,0,0,4,2,3,5,0,1,0,250.0,test,1,M
570.464134216,0,1000,5,1,4,2,3,5,0,1,0,250.0,test,0,M
666.286945343,3,1000,3,1,4,2,3,5,0,1,0,250.0,test,3,M
554.334163666,4,1000,1,1,4,2,3,5,0,1,0,250.0,test,4,M
410.279989243,5,1000,2,1,4,2,3,5,0,1,0,250.0,test,5,M
634.241819382,3,1000,3,1,4,2,3,5,0,1,0,250.0,test,3,M
731.810092926,3,1000,3,1,4,2,3,5,0,1,0,250.0,test,3,M
602.333068848,1,1000,4,1,4,2,3,5,0,1,0,250.0,test,1,M
489.971160889,3,1000,3,1,4,2,3,5,0,1,0,250.0,test,3,M
618.257045746,2,1000,0,1,4,2,3,5,0,1,0,250.0,test,2,M
555.123090744,5,1000,2,1,4,2,3,5,0,1,0,250.0,test,5,M
634.215116501,1,1000,4,1,4,2,3,5,0,1,0,250.0,test,1,M
522.099971771,5,1000,2,1,4,2,3,5,0,1,0,250.0,test,5,M
538.250923157,3,1000,3,1,4,2,3,5,0,1,0,250.0,test,3,M
506.234884262,3,1000,3,1,4,2,3,5,0,1,0,250.0,test,3,M
585.958957672,0,1000,5,1,4,2,3,5,0,1,0,250.0,test,0,M
555.182933807,1,1000,4,1,4,2,3,5,0,1,0,250.0,test,1,M
426.295995712,2,1000,0,1,4,2,3,5,0,1,0,250.0,test,2,M
266.358852386,2,1000,0,0,4,2,3,5,0,1,0,250.0,test,5,M
443.048000336,2,1000,0,1,4,2,3,5,0,1,0,250.0,test,2,M
538.354873657,4,1000,1,1,4,2,3,5,0,1,0,250.0,test,4,M
715.184926987,0,1000,5,1,4,2,3,5,0,1,0,250.0,test,0,M
570.075035095,2,1000,0,1,4,2,3,5,0,1,0,250.0,test,2,M
714.284896851,3,1000,3,1,4,2,3,5,0,1,0,250.0,test,3,M
587.181806564,2,1000,0,1,4,2,3,5,0,1,0,250.0,test,2,M
520.76792717,4,1000,1,1,4,2,3,5,0,1,0,250.0,test,4,M
570.304870605,3,1000,3,1,4,2,3,5,0,1,0,250.0,test,3,M
746.297836304,0,1000,5,1,4,2,3,5,0,1,0,250.0,test,0,M
602.317094803,3,1000,3,1,4,2,3,5,0,1,0,250.0,test,3,M
602.282047272,0,1000,5,1,4,2,3,5,0,1,0,250.0,test,0,M
602.308034897,4,1000,1,1,4,2,3,5,0,1,0,250.0,test,4,M
634.174108505,1,1000,4,1,4,2,3,5,0,1,0,250.0,test,1,M
634.338855743,1,1000,4,1,4,2,3,5,0,1,0,250.0,test,1,M
602.232933044,5,1000,2,1,4,2,3,5,0,1,0,250.0,test,5,M
506.320953369,4,1000,1,1,4,2,3,5,0,1,0,250.0,test,4,M
538.305997849,0,1000,5,1,4,2,3,5,0,1,0,250.0,test,0,M
554.346084595,5,1000,2,1,4,2,3,5,0,1,0,250.0,test,5,M
410.295963287,5,1000,2,1,4,2,3,5,0,1,0,250.0,test,5,M
602.217912674,0,1000,5,1,4,2,3,5,0,1,0,250.0,test,0,M
474.248886108,5,1000,2,1,4,2,3,5,0,1,0,250.0,test,5,M
601.008176804,1,1000,4,1,4,2,3,5,0,1,0,250.0,test,1,M
426.156997681,0,1000,5,1,4,2,3,5,0,1,0,250.0,test,0,M
522.282838821,5,1000,2,1,4,2,3,5,0,1,0,250.0,test,5,M
378.165006638,5,1000,2,1,4,2,3,5,0,1,0,250.0,test,5,M
475.180149078,1,1000,4,1,4,2,3,5,0,1,0,250.0,test,1,M
410.227775574,5,1000,2,1,4,2,3,5,0,1,0,250.0,test,5,M
347.196102142,3,1000,3,0,4,2,3,5,0,1,0,250.0,test,0,M
586.297035217,1,1000,4,1,4,2,3,5,0,1,0,250.0,test,1,M
443.810939789,1,1000,4,1,4,2,3,5,0,1,0,250.0,test,1,M
680.866956711,2,1000,0,1,4,2,3,5,0,1,0,250.0,test,2,M
634.184837341,2,1000,0,1,4,2,3,5,0,1,0,250.0,test,2,M
490.345954895,5,1000,2,1,4,2,3,5,0,1,0,250.0,test,5,M
603.815793991,2,1000,0,1,4,2,3,5,0,1,0,250.0,test,2,M
683.82191658,0,1000,5,1,4,2,3,5,0,1,0,250.0,test,0,M
507.852077484,5,1000,2,1,4,2,3,5,0,1,0,250.0,test,5,M
586.298942566,2,1000,0,1,4,2,3,5,0,1,0,250.0,test,2,M
586.318969727,1,1000,4,1,4,2,3,5,0,1,0,250.0,test,1,M
859.225988388,3,1000,3,1,4,2,3,5,0,1,0,250.0,test,3,M
618.345022202,4,1000,1,1,4,2,3,5,0,1,0,250.0,test,4,M
474.100112915,4,1000,1,1,4,2,3,5,0,1,0,250.0,test,4,M
426.279783249,5,1000,2,0,4,2,3,5,0,1,0,250.0,test,4,M
602.165937424,1,1000,4,1,4,2,3,5,0,1,0,250.0,test,1,M
635.164022446,1,1000,4,1,4,2,3,5,0,1,0,250.0,test,1,M
586.330890656,1,1000,4,1,4,2,3,5,0,1,0,250.0,test,1,M
586.386919022,3,1000,3,1,4,2,3,5,0,1,0,250.0,test,3,M
650.294065475,3,1000,3,1,4,2,3,5,0,1,0,250.0,test,3,M
650.359869003,2,1000,0,1,4,2,3,5,0,1,0,250.0,test,2,M
634.289979935,1,1000,4,1,4,2,3,5,0,1,0,250.0,test,1,M
778.287887573,0,1000,5,1,4,2,3,5,0,1,0,250.0,test,0,M
570.252895355,3,1000,3,1,4,2,3,5,0,1,0,250.0,test,3,M
570.728063583,1,1000,4,1,4,2,3,5,0,1,0,250.0,test,1,M
618.367910385,4,1000,1,1,4,2,3,5,0,1,0,250.0,test,4,M
634.320020676,0,1000,5,1,4,2,3,5,0,1,0,250.0,test,0,M
650.262117386,3,1000,3,1,4,2,3,5,0,1,0,250.0,test,3,M
570.138931274,4,1000,1,1,4,2,3,5,0,1,0,250.0,test,4,M
618.404150009,5,1000,2,1,4,2,3,5,0,1,0,250.0,test,5,M
1098.33288193,1,1000,4,1,4,2,3,5,0,1,0,250.0,test,1,M
554.313182831,5,1000,2,1,4,2,3,5,0,1,0,250.0,test,5,M
634.27400589,1,1000,4,1,4,2,3,5,0,1,0,250.0,test,1,M
602.369070053,0,1000,5,1,4,2,3,5,0,1,0,250.0,test,0,M
475.076198578,4,1000,1,1,4,2,3,5,0,1,0,250.0,test,4,M
618.403911591,5,1000,2,1,4,2,3,5,0,1,0,250.0,test,5,M
730.217933655,1,1000,4,1,4,2,3,5,0,1,0,250.0,test,1,M
586.313009262,5,1000,2,1,4,2,3,5,0,1,0,250.0,test,5,M
842.32711792,2,1000,0,0,4,2,3,5,0,1,0,250.0,test,1,M
523.167848587,5,1000,2,1,4,2,3,5,0,1,0,250.0,test,5,M
522.348880768,5,1000,2,1,4,2,3,5,0,1,0,250.0,test,5,M
587.089061737,4,1000,1,1,4,2,3,5,0,1,0,250.0,test,4,M
490.854024887,5,1000,2,1,4,2,3,5,0,1,0,250.0,test,5,M
666.188955307,1,1000,4,1,4,2,3,5,0,1,0,250.0,test,1,M
778.29003334,2,1000,0,1,4,2,3,5,0,1,0,250.0,test,2,M
554.337024689,4,1000,1,1,4,2,3,5,0,1,0,250.0,test,4,M
570.244073868,4,1000,1,1,4,2,3,5,0,1,0,250.0,test,4,M
586.358070374,5,1000,2,1,4,2,3,5,0,1,0,250.0,test,5,M
634.261846542,3,1000,3,1,4,2,3,5,0,1,0,250.0,test,3,M
874.23992157,2,1000,0,1,4,2,3,5,0,1,0,250.0,test,2,M
586.294174194,5,1000,2,1,4,2,3,5,0,1,0,250.0,test,5,M
490.301847458,5,1000,2,1,4,2,3,5,0,1,0,250.0,test,5,M
1354.25591469,1,1000,4,0,4,2,3,5,0,1,0,250.0,test,2,M
522.228002548,5,1000,2,1,4,2,3,5,0,1,0,250.0,test,5,M
650.339126587,1,1000,4,1,4,2,3,5,0,1,0,250.0,test,1,M
474.327087402,4,1000,1,1,4,2,3,5,0,1,0,250.0,test,4,M
586.377859116,4,1000,1,1,4,2,3,5,0,1,0,250.0,test,4,M
603.86300087,5,1000,2,1,4,2,3,5,0,1,0,250.0,test,5,M
618.345975876,1,1000,4,1,4,2,3,5,0,1,0,250.0,test,1,M
731.810808182,3,1000,3,1,4,2,3,5,0,1,0,250.0,test,3,M
745.021104813,2,1000,0,1,4,2,3,5,0,1,0,250.0,test,2,M
1146.39401436,2,1000,0,1,4,2,3,5,0,1,0,250.0,test,2,M
586.289167404,1,1000,4,1,4,2,3,5,0,1,0,250.0,test,1,M
570.242166519,5,1000,2,1,4,2,3,5,0,1,0,250.0,test,5,M
554.280996323,4,1000,1,1,4,2,3,5,0,1,0,250.0,test,4,M
601.977109909,0,1000,5,1,4,2,3,5,0,1,0,250.0,test,0,M
938.328027725,2,1000,0,1,4,2,3,5,0,1,0,250.0,test,2,M
714.209079742,0,1000,5,1,4,2,3,5,0,1,0,250.0,test,0,M
474.385023117,0,1000,5,1,4,2,3,5,0,1,0,250.0,test,0,M
954.295158386,2,1000,0,1,4,2,3,5,0,1,0,250.0,test,2,M
474.33590889,2,1000,0,1,4,2,3,5,0,1,0,250.0,test,2,M
826.367855072,1,1000,4,1,4,2,3,5,0,1,0,250.0,test,1,M
1146.42095566,3,1000,3,0,4,2,3,5,0,1,0,250.0,test,4,M
954.277992249,2,1000,0,1,4,2,3,5,0,1,0,250.0,test,2,M
762.286901474,1,1000,4,1,4,2,3,5,0,1,0,250.0,test,1,M
698.367118835,0,1000,5,1,4,2,3,5,0,1,0,250.0,test,0,M
602.233171463,4,1000,1,1,4,2,3,5,0,1,0,250.0,test,4,M
586.194038391,4,1000,1,1,4,2,3,5,0,1,0,250.0,test,4,M
618.323802948,2,1000,0,1,4,2,3,5,0,1,0,250.0,test,2,M
586.293935776,0,1000,5,1,4,2,3,5,0,1,0,250.0,test,0,M
523.660898209,4,1000,1,1,4,2,3,5,0,1,0,250.0,test,4,M
842.232942581,2,1000,0,1,4,2,3,5,0,1,0,250.0,test,2,M
650.237798691,1,1000,4,1,4,2,3,5,0,1,0,250.0,test,1,M
634.330034256,4,1000,1,1,4,2,3,5,0,1,0,250.0,test,4,M
523.08511734,4,1000,1,1,4,2,3,5,0,1,0,250.0,test,4,M
778.383016586,3,1000,3,1,4,2,3,5,0,1,0,250.0,test,3,M
698.287963867,3,1000,3,1,4,2,3,5,0,1,0,250.0,test,3,M
571.702957153,5,1000,2,1,4,2,3,5,0,1,0,250.0,test,5,M
619.879007339,4,1000,1,1,4,2,3,5,0,1,0,250.0,test,4,M
571.093082428,5,1000,2,1,4,2,3,5,0,1,0,250.0,test,5,M
475.800991058,3,1000,3,0,4,2,3,5,0,1,0,250.0,test,4,M
699.141025543,1,1000,4,1,4,2,3,5,0,1,0,250.0,test,1,M
730.268955231,1,1000,4,1,4,2,3,5,0,1,0,250.0,test,1,M
666.328907013,0,1000,5,1,4,2,3,5,0,1,0,250.0,test,0,M
1114.3758297,2,1000,0,1,4,2,3,5,0,1,0,250.0,test,2,M
650.315999985,2,1000,0,1,4,2,3,5,0,1,0,250.0,test,2,M
618.262052536,1,1000,4,1,4,2,3,5,0,1,0,250.0,test,1,M
522.34005928,1,1000,4,1,4,2,3,5,0,1,0,250.0,test,1,M
490.239143372,1,1000,4,1,4,2,3,5,0,1,0,250.0,test,1,M
682.183027267,0,1000,5,1,4,2,3,5,0,1,0,250.0,test,0,M
858.316898346,2,1000,0,1,4,2,3,5,0,1,0,250.0,test,2,M
936.987876892,4,1000,1,1,4,2,3,5,0,1,0,250.0,test,4,M
618.211984634,4,1000,1,1,4,2,3,5,0,1,0,250.0,test,4,M
570.36113739,5,1000,2,1,4,2,3,5,0,1,0,250.0,test,5,M
810.194969177,4,1000,1,1,4,2,3,5,0,1,0,250.0,test,4,M
538.24877739,4,1000,1,1,4,2,3,5,0,1,0,250.0,test,4,M
570.531129837,5,1000,2,1,4,2,3,5,0,1,0,250.0,test,5,M
618.776082993,0,1000,5,1,4,2,3,5,0,1,0,250.0,test,0,M
1002.34889984,1,1000,4,1,4,2,3,5,0,1,0,250.0,test,1,M
539.112091064,5,1000,2,1,4,2,3,5,0,1,0,250.0,test,5,M
442.145824432,5,1000,2,1,4,2,3,5,0,1,0,250.0,test,5,M
571.034908295,3,1000,3,0,4,2,3,5,0,1,0,250.0,test,0,M
507.095098495,5,1000,2,1,4,2,3,5,0,1,0,250.0,test,5,M
650.178909302,3,1000,3,1,4,2,3,5,0,1,0,250.0,test,3,M
522.221088409,5,1000,2,1,4,2,3,5,0,1,0,250.0,test,5,M
682.308912277,1,1000,4,1,4,2,3,5,0,1,0,250.0,test,1,M
857.575893402,0,1000,5,1,4,2,3,5,0,1,0,250.0,test,0,M
618.313074112,2,1000,0,0,4,2,3,5,0,1,0,250.0,test,1,M
603.833913803,3,1000,3,1,4,2,3,5,0,1,0,250.0,test,3,M
634.256124496,0,1000,5,1,4,2,3,5,0,1,0,250.0,test,0,M
539.104938507,4,1000,1,0,4,2,3,5,0,1,0,250.0,test,5,M
523.190021515,4,1000,1,1,4,2,3,5,0,1,0,250.0,test,4,M
618.33190918,0,1000,5,1,4,2,3,5,0,1,0,250.0,test,0,M
618.365049362,2,1000,0,0,4,2,3,5,0,1,0,250.0,test,1,M
699.03588295,2,1000,0,1,4,2,3,5,0,1,0,250.0,test,2,M
586.349010468,1,1000,4,1,4,2,3,5,0,1,0,250.0,test,1,M
586.272954941,2,1000,0,1,4,2,3,5,0,1,0,250.0,test,2,M
713.651895523,2,1000,0,1,4,2,3,5,0,1,0,250.0,test,2,M
570.307016373,4,1000,1,1,4,2,3,5,0,1,0,250.0,test,4,M
474.329948425,4,1000,1,1,4,2,3,5,0,1,0,250.0,test,4,M
522.233009338,5,1000,2,1,4,2,3,5,0,1,0,250.0,test,5,M
474.304914474,4,1000,1,0,4,2,3,5,0,1,0,250.0,test,5,M
618.311166763,5,1000,2,1,4,2,3,5,0,1,0,250.0,test,5,M
634.27901268,5,1000,2,1,4,2,3,5,0,1,0,250.0,test,5,M
890.363931656,3,1000,3,1,4,2,3,5,0,1,0,250.0,test,3,M
426.203966141,3,1000,3,1,4,2,3,5,0,1,0,250.0,test,3,M
