RT,correct_response,ms-prestimblank,curstim,correct,SRmap_1,SRmap_0,SRmap_3,SRmap_2,SRmap_5,SRmap_4,ms-precue,ntrials,type,response,condition
3325.96707344,4,600,0,1,3,4,5,0,2,1,400,250.0,train,4,E+
2158.86282921,1,600,4,1,3,4,5,0,2,1,400,250.0,train,1,E+
735.139131546,1,600,4,1,3,4,5,0,2,1,400,250.0,train,1,E+
238.986968994,0,600,2,1,3,4,5,0,2,1,400,250.0,train,0,E+
223.114967346,2,600,5,1,3,4,5,0,2,1,400,250.0,train,2,E+
287.026166916,4,600,0,1,3,4,5,0,2,1,400,250.0,train,4,E+
575.09803772,4,600,0,1,3,4,5,0,2,1,400,250.0,train,4,E+
815.192937851,5,600,3,1,3,4,5,0,2,1,400,250.0,train,5,E+
159.076929092,3,600,1,0,3,4,5,0,2,1,400,250.0,train,1,E+
623.117208481,1,600,4,1,3,4,5,0,2,1,400,250.0,train,1,E+
287.20498085,1,600,4,1,3,4,5,0,2,1,400,250.0,train,1,E+
253.399133682,2,600,5,1,3,4,5,0,2,1,400,250.0,train,2,E+
462.005853653,1,600,4,1,3,4,5,0,2,1,400,250.0,train,1,E+
351.114034653,3,600,1,1,3,4,5,0,2,1,400,250.0,train,3,E+
303.215026855,3,600,1,1,3,4,5,0,2,1,400,250.0,train,3,E+
319.110155106,4,600,0,1,3,4,5,0,2,1,400,250.0,train,4,E+
207.119941711,0,600,2,1,3,4,5,0,2,1,400,250.0,train,0,E+
255.121946335,1,600,4,1,3,4,5,0,2,1,400,250.0,train,1,E+
191.13779068,4,600,0,1,3,4,5,0,2,1,400,250.0,train,4,E+
63.2348060608,5,600,3,1,3,4,5,0,2,1,400,250.0,train,5,E+
351.115942001,2,600,5,1,3,4,5,0,2,1,400,250.0,train,2,E+
143.160820007,2,600,5,1,3,4,5,0,2,1,400,250.0,train,2,E+
223.066091537,5,600,3,1,3,4,5,0,2,1,400,250.0,train,5,E+
591.157197952,3,600,1,1,3,4,5,0,2,1,400,250.0,train,3,E+
94.3329334259,3,600,1,1,3,4,5,0,2,1,400,250.0,train,3,E+
47.2328662872,2,600,5,1,3,4,5,0,2,1,400,250.0,train,2,E+
286.775112152,4,600,0,1,3,4,5,0,2,1,400,250.0,train,4,E+
79.5831680298,2,600,5,1,3,4,5,0,2,1,400,250.0,train,2,E+
126.414060593,5,600,3,1,3,4,5,0,2,1,400,250.0,train,5,E+
207.001924515,5,600,3,1,3,4,5,0,2,1,400,250.0,train,5,E+
63.0750656128,3,600,1,0,3,4,5,0,2,1,400,250.0,train,2,E+
174.994945526,2,600,5,1,3,4,5,0,2,1,400,250.0,train,2,E+
111.730098724,3,600,1,1,3,4,5,0,2,1,400,250.0,train,3,E+
15.1309967041,2,600,5,1,3,4,5,0,2,1,400,250.0,train,2,E+
78.2420635223,3,600,1,1,3,4,5,0,2,1,400,250.0,train,3,E+
110.198974609,4,600,0,1,3,4,5,0,2,1,400,250.0,train,4,E+
111.108064651,3,600,1,1,3,4,5,0,2,1,400,250.0,train,3,E+
79.6899795532,1,600,4,0,3,4,5,0,2,1,400,250.0,train,2,E+
319.071054459,4,600,0,1,3,4,5,0,2,1,400,250.0,train,4,E+
143.356800079,5,600,3,1,3,4,5,0,2,1,400,250.0,train,5,E+
159.014225006,0,600,2,1,3,4,5,0,2,1,400,250.0,train,0,E+
479.166984558,2,600,5,1,3,4,5,0,2,1,400,250.0,train,2,E+
271.131038666,5,600,3,1,3,4,5,0,2,1,400,250.0,train,5,E+
223.009109497,3,600,1,1,3,4,5,0,2,1,400,250.0,train,3,E+
158.373117447,3,600,1,1,3,4,5,0,2,1,400,250.0,train,3,E+
207.545995712,2,600,5,1,3,4,5,0,2,1,400,250.0,train,2,E+
158.786058426,5,600,3,1,3,4,5,0,2,1,400,250.0,train,5,E+
143.606901169,2,600,5,1,3,4,5,0,2,1,400,250.0,train,2,E+
127.547979355,4,600,0,1,3,4,5,0,2,1,400,250.0,train,4,E+
191.565036774,5,600,3,1,3,4,5,0,2,1,400,250.0,train,5,E+
207.499980927,1,600,4,1,3,4,5,0,2,1,400,250.0,train,1,E+
238.204956055,5,600,3,1,3,4,5,0,2,1,400,250.0,train,5,E+
222.395896912,2,600,5,1,3,4,5,0,2,1,400,250.0,train,2,E+
286.543130875,0,600,2,1,3,4,5,0,2,1,400,250.0,train,0,E+
239.373922348,5,600,3,1,3,4,5,0,2,1,400,250.0,train,5,E+
302.227973938,2,600,5,1,3,4,5,0,2,1,400,250.0,train,2,E+
399.580955505,5,600,3,1,3,4,5,0,2,1,400,250.0,train,5,E+
239.570856094,4,600,0,1,3,4,5,0,2,1,400,250.0,train,4,E+
175.559043884,1,600,4,1,3,4,5,0,2,1,400,250.0,train,1,E+
239.02797699,2,600,5,1,3,4,5,0,2,1,400,250.0,train,2,E+
142.203807831,0,600,2,1,3,4,5,0,2,1,400,250.0,train,0,E+
95.7009792328,5,600,3,1,3,4,5,0,2,1,400,250.0,train,5,E+
207.493782043,2,600,5,1,3,4,5,0,2,1,400,250.0,train,2,E+
175.264835358,0,600,2,1,3,4,5,0,2,1,400,250.0,train,0,E+
159.132957458,2,600,5,1,3,4,5,0,2,1,400,250.0,train,2,E+
47.1670627594,2,600,5,1,3,4,5,0,2,1,400,250.0,train,2,E+
175.135135651,1,600,4,1,3,4,5,0,2,1,400,250.0,train,1,E+
0.0319480895996,2,600,5,1,3,4,5,0,2,1,400,250.0,train,2,E+
110.782146454,2,600,5,1,3,4,5,0,2,1,400,250.0,train,2,E+
350.21686554,4,600,0,1,3,4,5,0,2,1,400,250.0,train,4,E+
158.225059509,1,600,4,0,3,4,5,0,2,1,400,250.0,train,2,E+
223.012924194,3,600,1,0,3,4,5,0,2,1,400,250.0,train,4,E+
191.494941711,3,600,1,1,3,4,5,0,2,1,400,250.0,train,3,E+
142.140865326,5,600,3,1,3,4,5,0,2,1,400,250.0,train,5,E+
142.207860947,5,600,3,1,3,4,5,0,2,1,400,250.0,train,5,E+
158.632040024,0,600,2,1,3,4,5,0,2,1,400,250.0,train,0,E+
318.040847778,3,600,1,1,3,4,5,0,2,1,400,250.0,train,3,E+
238.507986069,2,600,5,1,3,4,5,0,2,1,400,250.0,train,2,E+
143.373012543,1,600,4,1,3,4,5,0,2,1,400,250.0,train,1,E+
223.191976547,2,600,5,1,3,4,5,0,2,1,400,250.0,train,2,E+
190.06896019,4,600,0,1,3,4,5,0,2,1,400,250.0,train,4,E+
223.639011383,5,600,3,1,3,4,5,0,2,1,400,250.0,train,5,E+
127.501010895,5,600,3,1,3,4,5,0,2,1,400,250.0,train,5,E+
223.416090012,1,600,4,1,3,4,5,0,2,1,400,250.0,train,1,E+
143.582820892,2,600,5,1,3,4,5,0,2,1,400,250.0,train,2,E+
191.556215286,3,600,1,1,3,4,5,0,2,1,400,250.0,train,3,E+
975.030899048,3,600,1,1,3,4,5,0,2,1,400,250.0,train,3,E+
269.56987381,0,600,2,1,3,4,5,0,2,1,400,250.0,train,0,E+
447.59106636,1,600,4,1,3,4,5,0,2,1,400,250.0,train,1,E+
175.051927567,4,600,0,1,3,4,5,0,2,1,400,250.0,train,4,E+
127.225875854,1,600,4,1,3,4,5,0,2,1,400,250.0,train,1,E+
95.6780910492,4,600,0,1,3,4,5,0,2,1,400,250.0,train,4,E+
191.522836685,3,600,1,1,3,4,5,0,2,1,400,250.0,train,3,E+
191.52712822,1,600,4,1,3,4,5,0,2,1,400,250.0,train,1,E+
175.307035446,3,600,1,0,3,4,5,0,2,1,400,250.0,train,4,E+
111.02604866,4,600,0,1,3,4,5,0,2,1,400,250.0,train,4,E+
127.548933029,5,600,3,1,3,4,5,0,2,1,400,250.0,train,5,E+
207.510948181,1,600,4,1,3,4,5,0,2,1,400,250.0,train,1,E+
191.580057144,2,600,5,1,3,4,5,0,2,1,400,250.0,train,2,E+
239.578008652,1,600,4,1,3,4,5,0,2,1,400,250.0,train,1,E+
143.64695549,1,600,4,1,3,4,5,0,2,1,400,250.0,train,1,E+
95.6470966339,4,600,0,1,3,4,5,0,2,1,400,250.0,train,4,E+
174.022912979,3,600,1,1,3,4,5,0,2,1,400,250.0,train,3,E+
142.814874649,4,600,0,0,3,4,5,0,2,1,400,250.0,train,3,E+
174.329996109,5,600,3,1,3,4,5,0,2,1,400,250.0,train,5,E+
62.8080368042,4,600,0,1,3,4,5,0,2,1,400,250.0,train,4,E+
174.39198494,1,600,4,1,3,4,5,0,2,1,400,250.0,train,1,E+
127.198219299,0,600,2,1,3,4,5,0,2,1,400,250.0,train,0,E+
126.770019531,2,600,5,1,3,4,5,0,2,1,400,250.0,train,2,E+
143.618822098,4,600,0,1,3,4,5,0,2,1,400,250.0,train,4,E+
95.666885376,1,600,4,1,3,4,5,0,2,1,400,250.0,train,1,E+
143.591880798,1,600,4,0,3,4,5,0,2,1,400,250.0,train,0,E+
495.594024658,3,600,1,1,3,4,5,0,2,1,400,250.0,train,3,E+
303.554058075,5,600,3,1,3,4,5,0,2,1,400,250.0,train,5,E+
527.619838715,2,600,5,1,3,4,5,0,2,1,400,250.0,train,2,E+
319.582939148,2,600,5,1,3,4,5,0,2,1,400,250.0,train,2,E+
159.614086151,4,600,0,1,3,4,5,0,2,1,400,250.0,train,4,E+
239.451885223,1,600,4,1,3,4,5,0,2,1,400,250.0,train,1,E+
126.918077469,1,600,4,1,3,4,5,0,2,1,400,250.0,train,1,E+
830.502986908,3,600,1,1,3,4,5,0,2,1,400,250.0,train,3,E+
94.8889255524,2,600,5,0,3,4,5,0,2,1,400,250.0,train,1,E+
527.631044388,1,600,4,0,3,4,5,0,2,1,400,250.0,train,2,E+
109.083890915,1,600,4,1,3,4,5,0,2,1,400,250.0,train,1,E+
159.07907486,2,600,5,1,3,4,5,0,2,1,400,250.0,train,2,E+
175.544023514,3,600,1,1,3,4,5,0,2,1,400,250.0,train,3,E+
46.1649894714,3,600,1,1,3,4,5,0,2,1,400,250.0,train,3,E+
175.037145615,5,600,3,1,3,4,5,0,2,1,400,250.0,train,5,E+
95.5460071564,5,600,3,1,3,4,5,0,2,1,400,250.0,train,5,E+
191.57409668,1,600,4,1,3,4,5,0,2,1,400,250.0,train,1,E+
15.09308815,1,600,4,1,3,4,5,0,2,1,400,250.0,train,1,E+
142.783880234,2,600,5,1,3,4,5,0,2,1,400,250.0,train,2,E+
207.43393898,2,600,5,1,3,4,5,0,2,1,400,250.0,train,2,E+
238.90209198,4,600,0,1,3,4,5,0,2,1,400,250.0,train,4,E+
239.581823349,2,600,5,1,3,4,5,0,2,1,400,250.0,train,2,E+
142.436981201,4,600,0,1,3,4,5,0,2,1,400,250.0,train,4,E+
110.471963882,5,600,3,1,3,4,5,0,2,1,400,250.0,train,5,E+
430.5331707,2,600,5,1,3,4,5,0,2,1,400,250.0,train,2,E+
399.621009827,4,600,0,1,3,4,5,0,2,1,400,250.0,train,4,E+
190.356969833,4,600,0,1,3,4,5,0,2,1,400,250.0,train,4,E+
111.552000046,5,600,3,1,3,4,5,0,2,1,400,250.0,train,5,E+
287.419080734,1,600,4,1,3,4,5,0,2,1,400,250.0,train,1,E+
127.341985703,5,600,3,0,3,4,5,0,2,1,400,250.0,train,4,E+
446.291923523,0,600,2,1,3,4,5,0,2,1,400,250.0,train,0,E+
239.612102509,2,600,5,1,3,4,5,0,2,1,400,250.0,train,2,E+
318.583965302,4,600,0,1,3,4,5,0,2,1,400,250.0,train,4,E+
319.666147232,3,600,1,1,3,4,5,0,2,1,400,250.0,train,3,E+
159.653902054,5,600,3,1,3,4,5,0,2,1,400,250.0,train,5,E+
223.682165146,0,600,2,1,3,4,5,0,2,1,400,250.0,train,0,E+
223.569154739,5,600,3,1,3,4,5,0,2,1,400,250.0,train,5,E+
190.919160843,5,600,3,1,3,4,5,0,2,1,400,250.0,train,5,E+
79.206943512,4,600,0,1,3,4,5,0,2,1,400,250.0,train,4,E+
238.801002502,0,600,2,1,3,4,5,0,2,1,400,250.0,train,0,E+
174.695968628,2,600,5,1,3,4,5,0,2,1,400,250.0,train,2,E+
238.646030426,3,600,1,1,3,4,5,0,2,1,400,250.0,train,3,E+
190.989017487,2,600,5,1,3,4,5,0,2,1,400,250.0,train,2,E+
206.568002701,0,600,2,1,3,4,5,0,2,1,400,250.0,train,0,E+
191.583871841,5,600,3,1,3,4,5,0,2,1,400,250.0,train,5,E+
126.186847687,5,600,3,1,3,4,5,0,2,1,400,250.0,train,5,E+
255.144834518,1,600,4,1,3,4,5,0,2,1,400,250.0,train,1,E+
206.328868866,0,600,2,1,3,4,5,0,2,1,400,250.0,train,0,E+
0.0529289245605,1,600,4,1,3,4,5,0,2,1,400,250.0,train,1,E+
46.4191436768,1,600,4,1,3,4,5,0,2,1,400,250.0,train,1,E+
79.5121192932,1,600,4,1,3,4,5,0,2,1,400,250.0,train,1,E+
175.496101379,4,600,0,1,3,4,5,0,2,1,400,250.0,train,4,E+
63.4880065918,4,600,0,1,3,4,5,0,2,1,400,250.0,train,4,E+
127.529859543,0,600,2,0,3,4,5,0,2,1,400,250.0,train,2,E+
350.88801384,2,600,5,1,3,4,5,0,2,1,400,250.0,train,2,E+
174.276828766,3,600,1,1,3,4,5,0,2,1,400,250.0,train,3,E+
111.637115479,2,600,5,1,3,4,5,0,2,1,400,250.0,train,2,E+
47.5590229034,2,600,5,1,3,4,5,0,2,1,400,250.0,train,2,E+
127.315044403,0,600,2,1,3,4,5,0,2,1,400,250.0,train,0,E+
782.302856445,0,600,2,1,3,4,5,0,2,1,400,250.0,train,0,E+
191.533088684,2,600,5,1,3,4,5,0,2,1,400,250.0,train,2,E+
254.776954651,3,600,1,1,3,4,5,0,2,1,400,250.0,train,3,E+
207.576990128,1,600,4,1,3,4,5,0,2,1,400,250.0,train,1,E+
126.929044724,5,600,3,1,3,4,5,0,2,1,400,250.0,train,5,E+
159.571886063,2,600,5,1,3,4,5,0,2,1,400,250.0,train,2,E+
175.005912781,3,600,1,1,3,4,5,0,2,1,400,250.0,train,3,E+
207.569122314,0,600,2,1,3,4,5,0,2,1,400,250.0,train,0,E+
478.851079941,2,600,5,1,3,4,5,0,2,1,400,250.0,train,2,E+
238.97600174,4,600,0,1,3,4,5,0,2,1,400,250.0,train,4,E+
111.332893372,5,600,3,1,3,4,5,0,2,1,400,250.0,train,5,E+
623.662948608,3,600,1,1,3,4,5,0,2,1,400,250.0,train,3,E+
110.602140427,1,600,4,1,3,4,5,0,2,1,400,250.0,train,1,E+
31.6998958588,2,600,5,1,3,4,5,0,2,1,400,250.0,train,2,E+
815.567970276,1,600,4,1,3,4,5,0,2,1,400,250.0,train,1,E+
111.628055573,5,600,3,1,3,4,5,0,2,1,400,250.0,train,5,E+
191.622018814,4,600,0,1,3,4,5,0,2,1,400,250.0,train,4,E+
431.649923325,2,600,5,1,3,4,5,0,2,1,400,250.0,train,2,E+
287.63794899,1,600,4,1,3,4,5,0,2,1,400,250.0,train,1,E+
111.592054367,2,600,5,1,3,4,5,0,2,1,400,250.0,train,2,E+
126.784086227,4,600,0,1,3,4,5,0,2,1,400,250.0,train,4,E+
319.555997849,3,600,1,1,3,4,5,0,2,1,400,250.0,train,3,E+
142.664909363,5,600,3,1,3,4,5,0,2,1,400,250.0,train,5,E+
174.401044846,4,600,0,1,3,4,5,0,2,1,400,250.0,train,4,E+
126.754045486,1,600,4,1,3,4,5,0,2,1,400,250.0,train,1,E+
207.659959793,4,600,0,1,3,4,5,0,2,1,400,250.0,train,4,E+
159.507036209,3,600,1,1,3,4,5,0,2,1,400,250.0,train,3,E+
159.634113312,1,600,4,1,3,4,5,0,2,1,400,250.0,train,1,E+
143.480062485,3,600,1,1,3,4,5,0,2,1,400,250.0,train,3,E+
335.271835327,0,600,2,0,3,4,5,0,2,1,400,250.0,train,2,E+
206.315994263,5,600,3,1,3,4,5,0,2,1,400,250.0,train,5,E+
511.093854904,3,600,1,1,3,4,5,0,2,1,400,250.0,train,3,E+
63.1699562073,3,600,1,1,3,4,5,0,2,1,400,250.0,train,3,E+
191.112041473,2,600,5,1,3,4,5,0,2,1,400,250.0,train,2,E+
142.756938934,4,600,0,1,3,4,5,0,2,1,400,250.0,train,4,E+
303.653001785,2,600,5,1,3,4,5,0,2,1,400,250.0,train,2,E+
142.853975296,2,600,5,1,3,4,5,0,2,1,400,250.0,train,2,E+
94.6049690247,3,600,1,1,3,4,5,0,2,1,400,250.0,train,3,E+
206.387996674,0,600,2,1,3,4,5,0,2,1,400,250.0,train,0,E+
46.5848445892,1,600,4,1,3,4,5,0,2,1,400,250.0,train,1,E+
46.3519096375,4,600,0,1,3,4,5,0,2,1,400,250.0,train,4,E+
63.6639595032,4,600,0,1,3,4,5,0,2,1,400,250.0,train,4,E+
111.512184143,1,600,4,1,3,4,5,0,2,1,400,250.0,train,1,E+
63.4980201721,2,600,5,1,3,4,5,0,2,1,400,250.0,train,2,E+
142.799139023,3,600,1,1,3,4,5,0,2,1,400,250.0,train,3,E+
143.649101257,1,600,4,1,3,4,5,0,2,1,400,250.0,train,1,E+
111.602067947,0,600,2,1,3,4,5,0,2,1,400,250.0,train,0,E+
79.7350406647,4,600,0,1,3,4,5,0,2,1,400,250.0,train,4,E+
15.5870914459,4,600,0,1,3,4,5,0,2,1,400,250.0,train,4,E+
127.542972565,2,600,5,0,3,4,5,0,2,1,400,250.0,train,1,E+
238.77286911,0,600,2,1,3,4,5,0,2,1,400,250.0,train,0,E+
127.75683403,2,600,5,1,3,4,5,0,2,1,400,250.0,train,2,E+
190.757036209,1,600,4,1,3,4,5,0,2,1,400,250.0,train,1,E+
303.594112396,3,600,1,1,3,4,5,0,2,1,400,250.0,train,3,E+
190.43803215,1,600,4,1,3,4,5,0,2,1,400,250.0,train,1,E+
31.1770439148,3,600,1,1,3,4,5,0,2,1,400,250.0,train,3,E+
111.598014832,0,600,2,1,3,4,5,0,2,1,400,250.0,train,0,E+
30.7328701019,1,600,4,1,3,4,5,0,2,1,400,250.0,train,1,E+
270.646810532,5,600,3,1,3,4,5,0,2,1,400,250.0,train,5,E+
591.579914093,2,600,5,1,3,4,5,0,2,1,400,250.0,train,2,E+
207.629919052,4,600,0,1,3,4,5,0,2,1,400,250.0,train,4,E+
303.676843643,3,600,1,1,3,4,5,0,2,1,400,250.0,train,3,E+
335.690975189,4,600,0,1,3,4,5,0,2,1,400,250.0,train,4,E+
159.684896469,1,600,4,1,3,4,5,0,2,1,400,250.0,train,1,E+
111.516952515,1,600,4,1,3,4,5,0,2,1,400,250.0,train,1,E+
79.6191692352,5,600,3,1,3,4,5,0,2,1,400,250.0,train,5,E+
191.524982452,0,600,2,1,3,4,5,0,2,1,400,250.0,train,0,E+
334.38205719,3,600,1,1,3,4,5,0,2,1,400,250.0,train,3,E+
222.477912903,4,600,0,1,3,4,5,0,2,1,400,250.0,train,4,E+
158.402919769,0,600,2,1,3,4,5,0,2,1,400,250.0,train,0,E+
158.90622139,2,600,5,1,3,4,5,0,2,1,400,250.0,train,2,E+
575.083971024,1,600,4,1,3,4,5,0,2,1,400,250.0,train,1,E+
77.8200626373,1,600,4,1,3,4,5,0,2,1,400,250.0,train,1,E+
63.7578964233,0,600,2,1,3,4,5,0,2,1,400,250.0,train,0,E+
47.523021698,1,600,4,1,3,4,5,0,2,1,400,250.0,train,1,E+
79.1418552399,4,600,0,1,3,4,5,0,2,1,400,250.0,train,4,E+
95.587015152,0,600,2,1,3,4,5,0,2,1,400,250.0,train,0,E+
94.3338871002,5,600,3,1,3,4,5,0,2,1,400,250.0,train,5,E+
45.4938411713,0,600,2,1,3,4,5,0,2,1,400,250.0,train,0,E+
1070.37091255,0,1000,2,1,3,4,5,0,2,1,0,250.0,test,0,E+
479.051113129,1,1000,4,1,3,4,5,0,2,1,0,250.0,test,1,E+
542.97709465,3,1000,1,0,3,4,5,0,2,1,0,250.0,test,4,E+
831.628084183,1,1000,4,1,3,4,5,0,2,1,0,250.0,test,1,E+
429.831981659,1,1000,4,1,3,4,5,0,2,1,0,250.0,test,1,E+
445.936918259,1,1000,4,1,3,4,5,0,2,1,0,250.0,test,1,E+
541.231870651,0,1000,2,1,3,4,5,0,2,1,0,250.0,test,0,E+
558.852910995,2,1000,5,0,3,4,5,0,2,1,0,250.0,test,3,E+
527.015924454,0,1000,2,1,3,4,5,0,2,1,0,250.0,test,0,E+
462.14389801,0,1000,2,1,3,4,5,0,2,1,0,250.0,test,0,E+
703.056097031,4,1000,0,1,3,4,5,0,2,1,0,250.0,test,4,E+
479.465007782,0,1000,2,1,3,4,5,0,2,1,0,250.0,test,0,E+
845.413923264,1,1000,4,1,3,4,5,0,2,1,0,250.0,test,1,E+
574.672937393,0,1000,2,1,3,4,5,0,2,1,0,250.0,test,0,E+
719.449996948,3,1000,1,1,3,4,5,0,2,1,0,250.0,test,3,E+
591.532945633,1,1000,4,1,3,4,5,0,2,1,0,250.0,test,1,E+
542.850971222,4,1000,0,1,3,4,5,0,2,1,0,250.0,test,4,E+
510.973215103,5,1000,3,1,3,4,5,0,2,1,0,250.0,test,5,E+
798.83313179,0,1000,2,1,3,4,5,0,2,1,0,250.0,test,0,E+
654.983043671,5,1000,3,1,3,4,5,0,2,1,0,250.0,test,5,E+
671.053171158,0,1000,2,1,3,4,5,0,2,1,0,250.0,test,0,E+
638.116836548,3,1000,1,1,3,4,5,0,2,1,0,250.0,test,3,E+
495.512962341,1,1000,4,1,3,4,5,0,2,1,0,250.0,test,1,E+
589.998960495,3,1000,1,0,3,4,5,0,2,1,0,250.0,test,4,E+
719.424962997,5,1000,3,1,3,4,5,0,2,1,0,250.0,test,5,E+
671.591997147,2,1000,5,1,3,4,5,0,2,1,0,250.0,test,2,E+
413.603067398,2,1000,5,1,3,4,5,0,2,1,0,250.0,test,2,E+
511.609792709,1,1000,4,1,3,4,5,0,2,1,0,250.0,test,1,E+
558.891057968,5,1000,3,1,3,4,5,0,2,1,0,250.0,test,5,E+
493.849992752,4,1000,0,1,3,4,5,0,2,1,0,250.0,test,4,E+
526.851177216,0,1000,2,1,3,4,5,0,2,1,0,250.0,test,0,E+
351.613998413,1,1000,4,1,3,4,5,0,2,1,0,250.0,test,1,E+
367.53487587,2,1000,5,1,3,4,5,0,2,1,0,250.0,test,2,E+
543.61987114,4,1000,0,1,3,4,5,0,2,1,0,250.0,test,4,E+
383.482933044,3,1000,1,1,3,4,5,0,2,1,0,250.0,test,3,E+
591.636896133,1,1000,4,1,3,4,5,0,2,1,0,250.0,test,1,E+
719.393968582,4,1000,0,1,3,4,5,0,2,1,0,250.0,test,4,E+
558.446884155,1,1000,4,1,3,4,5,0,2,1,0,250.0,test,1,E+
478.338003159,5,1000,3,1,3,4,5,0,2,1,0,250.0,test,5,E+
559.569835663,2,1000,5,0,3,4,5,0,2,1,0,250.0,test,0,E+
495.599031448,1,1000,4,1,3,4,5,0,2,1,0,250.0,test,1,E+
574.556112289,5,1000,3,0,3,4,5,0,2,1,0,250.0,test,4,E+
719.471931458,2,1000,5,1,3,4,5,0,2,1,0,250.0,test,2,E+
527.559995651,4,1000,0,1,3,4,5,0,2,1,0,250.0,test,4,E+
623.568058014,0,1000,2,1,3,4,5,0,2,1,0,250.0,test,0,E+
543.527841568,5,1000,3,1,3,4,5,0,2,1,0,250.0,test,5,E+
783.585071564,3,1000,1,1,3,4,5,0,2,1,0,250.0,test,3,E+
686.336994171,0,1000,2,1,3,4,5,0,2,1,0,250.0,test,0,E+
574.774980545,0,1000,2,1,3,4,5,0,2,1,0,250.0,test,0,E+
1007.65514374,4,1000,0,1,3,4,5,0,2,1,0,250.0,test,4,E+
606.278896332,1,1000,4,1,3,4,5,0,2,1,0,250.0,test,1,E+
574.234008789,5,1000,3,1,3,4,5,0,2,1,0,250.0,test,5,E+
559.601068497,0,1000,2,1,3,4,5,0,2,1,0,250.0,test,0,E+
591.066122055,1,1000,4,0,3,4,5,0,2,1,0,250.0,test,4,E+
574.723958969,4,1000,0,1,3,4,5,0,2,1,0,250.0,test,4,E+
494.781970978,2,1000,5,0,3,4,5,0,2,1,0,250.0,test,1,E+
558.28499794,4,1000,0,1,3,4,5,0,2,1,0,250.0,test,4,E+
525.212049484,4,1000,0,1,3,4,5,0,2,1,0,250.0,test,4,E+
351.561069489,4,1000,0,1,3,4,5,0,2,1,0,250.0,test,4,E+
350.836992264,4,1000,0,1,3,4,5,0,2,1,0,250.0,test,4,E+
479.584932327,5,1000,3,1,3,4,5,0,2,1,0,250.0,test,5,E+
429.352998734,4,1000,0,1,3,4,5,0,2,1,0,250.0,test,4,E+
591.645002365,0,1000,2,1,3,4,5,0,2,1,0,250.0,test,0,E+
494.844913483,5,1000,3,1,3,4,5,0,2,1,0,250.0,test,5,E+
543.606996536,0,1000,2,1,3,4,5,0,2,1,0,250.0,test,0,E+
591.443777084,3,1000,1,1,3,4,5,0,2,1,0,250.0,test,3,E+
463.586091995,2,1000,5,1,3,4,5,0,2,1,0,250.0,test,2,E+
782.43303299,4,1000,0,1,3,4,5,0,2,1,0,250.0,test,4,E+
735.059022903,1,1000,4,1,3,4,5,0,2,1,0,250.0,test,1,E+
623.060941696,0,1000,2,1,3,4,5,0,2,1,0,250.0,test,0,E+
911.646127701,5,1000,3,1,3,4,5,0,2,1,0,250.0,test,5,E+
558.299064636,1,1000,4,1,3,4,5,0,2,1,0,250.0,test,1,E+
510.647058487,2,1000,5,0,3,4,5,0,2,1,0,250.0,test,4,E+
670.896053314,5,1000,3,1,3,4,5,0,2,1,0,250.0,test,5,E+
735.679864883,0,1000,2,1,3,4,5,0,2,1,0,250.0,test,0,E+
719.111919403,3,1000,1,1,3,4,5,0,2,1,0,250.0,test,3,E+
1135.67495346,5,1000,3,1,3,4,5,0,2,1,0,250.0,test,5,E+
623.524904251,4,1000,0,1,3,4,5,0,2,1,0,250.0,test,4,E+
511.626958847,4,1000,0,1,3,4,5,0,2,1,0,250.0,test,4,E+
718.819856644,0,1000,2,1,3,4,5,0,2,1,0,250.0,test,0,E+
526.9510746,3,1000,1,1,3,4,5,0,2,1,0,250.0,test,3,E+
447.437047958,0,1000,2,1,3,4,5,0,2,1,0,250.0,test,0,E+
751.56712532,4,1000,0,1,3,4,5,0,2,1,0,250.0,test,4,E+
335.583925247,4,1000,0,1,3,4,5,0,2,1,0,250.0,test,4,E+
270.992040634,1,1000,4,0,3,4,5,0,2,1,0,250.0,test,4,E+
462.339878082,1,1000,4,1,3,4,5,0,2,1,0,250.0,test,1,E+
510.658979416,4,1000,0,0,3,4,5,0,2,1,0,250.0,test,3,E+
702.406167984,5,1000,3,1,3,4,5,0,2,1,0,250.0,test,5,E+
750.492811203,1,1000,4,1,3,4,5,0,2,1,0,250.0,test,1,E+
511.515855789,4,1000,0,1,3,4,5,0,2,1,0,250.0,test,4,E+
669.11482811,3,1000,1,1,3,4,5,0,2,1,0,250.0,test,3,E+
463.531970978,3,1000,1,1,3,4,5,0,2,1,0,250.0,test,3,E+
431.565999985,3,1000,1,1,3,4,5,0,2,1,0,250.0,test,3,E+
687.536001205,4,1000,0,1,3,4,5,0,2,1,0,250.0,test,4,E+
590.36397934,0,1000,2,1,3,4,5,0,2,1,0,250.0,test,0,E+
687.41106987,5,1000,3,1,3,4,5,0,2,1,0,250.0,test,5,E+
606.118917465,1,1000,4,1,3,4,5,0,2,1,0,250.0,test,1,E+
510.416984558,4,1000,0,1,3,4,5,0,2,1,0,250.0,test,4,E+
1149.2459774,1,1000,4,1,3,4,5,0,2,1,0,250.0,test,1,E+
767.594099045,4,1000,0,0,3,4,5,0,2,1,0,250.0,test,3,E+
655.00998497,2,1000,5,1,3,4,5,0,2,1,0,250.0,test,2,E+
606.739044189,0,1000,2,1,3,4,5,0,2,1,0,250.0,test,0,E+
591.043949127,4,1000,0,1,3,4,5,0,2,1,0,250.0,test,4,E+
559.052944183,0,1000,2,1,3,4,5,0,2,1,0,250.0,test,0,E+
623.088121414,3,1000,1,1,3,4,5,0,2,1,0,250.0,test,3,E+
527.573108673,4,1000,0,1,3,4,5,0,2,1,0,250.0,test,4,E+
621.769189835,5,1000,3,1,3,4,5,0,2,1,0,250.0,test,5,E+
431.519031525,3,1000,1,0,3,4,5,0,2,1,0,250.0,test,4,E+
830.148935318,1,1000,4,1,3,4,5,0,2,1,0,250.0,test,1,E+
927.143096924,4,1000,0,1,3,4,5,0,2,1,0,250.0,test,4,E+
510.321855545,1,1000,4,1,3,4,5,0,2,1,0,250.0,test,1,E+
559.36384201,2,1000,5,1,3,4,5,0,2,1,0,250.0,test,2,E+
559.642076492,4,1000,0,1,3,4,5,0,2,1,0,250.0,test,4,E+
591.353178024,5,1000,3,1,3,4,5,0,2,1,0,250.0,test,5,E+
701.415061951,3,1000,1,1,3,4,5,0,2,1,0,250.0,test,3,E+
494.225978851,4,1000,0,1,3,4,5,0,2,1,0,250.0,test,4,E+
558.49313736,1,1000,4,1,3,4,5,0,2,1,0,250.0,test,1,E+
766.317844391,2,1000,5,1,3,4,5,0,2,1,0,250.0,test,2,E+
574.435949326,4,1000,0,1,3,4,5,0,2,1,0,250.0,test,4,E+
494.657993317,5,1000,3,1,3,4,5,0,2,1,0,250.0,test,5,E+
526.501893997,1,1000,4,1,3,4,5,0,2,1,0,250.0,test,1,E+
782.7231884,3,1000,1,1,3,4,5,0,2,1,0,250.0,test,3,E+
623.518943787,0,1000,2,1,3,4,5,0,2,1,0,250.0,test,0,E+
622.264862061,4,1000,0,1,3,4,5,0,2,1,0,250.0,test,4,E+
719.053983688,3,1000,1,1,3,4,5,0,2,1,0,250.0,test,3,E+
478.9249897,3,1000,1,1,3,4,5,0,2,1,0,250.0,test,3,E+
351.499080658,3,1000,1,1,3,4,5,0,2,1,0,250.0,test,3,E+
398.731946945,3,1000,1,1,3,4,5,0,2,1,0,250.0,test,3,E+
494.915962219,1,1000,4,1,3,4,5,0,2,1,0,250.0,test,1,E+
591.500997543,1,1000,4,1,3,4,5,0,2,1,0,250.0,test,1,E+
478.950977325,1,1000,4,1,3,4,5,0,2,1,0,250.0,test,1,E+
254.325151443,1,1000,4,1,3,4,5,0,2,1,0,250.0,test,1,E+
527.600049973,3,1000,1,0,3,4,5,0,2,1,0,250.0,test,4,E+
718.807935715,5,1000,3,1,3,4,5,0,2,1,0,250.0,test,5,E+
542.536973953,5,1000,3,1,3,4,5,0,2,1,0,250.0,test,5,E+
655.637979507,1,1000,4,1,3,4,5,0,2,1,0,250.0,test,1,E+
429.393053055,1,1000,4,1,3,4,5,0,2,1,0,250.0,test,1,E+
927.643060684,3,1000,1,1,3,4,5,0,2,1,0,250.0,test,3,E+
525.348901749,4,1000,0,1,3,4,5,0,2,1,0,250.0,test,4,E+
622.652053833,0,1000,2,1,3,4,5,0,2,1,0,250.0,test,0,E+
478.082180023,0,1000,2,1,3,4,5,0,2,1,0,250.0,test,0,E+
445.267915726,1,1000,4,1,3,4,5,0,2,1,0,250.0,test,1,E+
671.036958694,5,1000,3,1,3,4,5,0,2,1,0,250.0,test,5,E+
735.200166702,2,1000,5,1,3,4,5,0,2,1,0,250.0,test,2,E+
495.523929596,0,1000,2,1,3,4,5,0,2,1,0,250.0,test,0,E+
493.371963501,5,1000,3,1,3,4,5,0,2,1,0,250.0,test,5,E+
543.612003326,0,1000,2,1,3,4,5,0,2,1,0,250.0,test,0,E+
542.440891266,1,1000,4,1,3,4,5,0,2,1,0,250.0,test,1,E+
927.598953247,3,1000,1,1,3,4,5,0,2,1,0,250.0,test,3,E+
494.513034821,1,1000,4,1,3,4,5,0,2,1,0,250.0,test,1,E+
462.629079819,5,1000,3,1,3,4,5,0,2,1,0,250.0,test,5,E+
429.514884949,5,1000,3,1,3,4,5,0,2,1,0,250.0,test,5,E+
399.588823318,5,1000,3,1,3,4,5,0,2,1,0,250.0,test,5,E+
575.590848923,1,1000,4,1,3,4,5,0,2,1,0,250.0,test,1,E+
415.210962296,1,1000,4,1,3,4,5,0,2,1,0,250.0,test,1,E+
398.616075516,1,1000,4,1,3,4,5,0,2,1,0,250.0,test,1,E+
543.207883835,3,1000,1,1,3,4,5,0,2,1,0,250.0,test,3,E+
399.071931839,3,1000,1,1,3,4,5,0,2,1,0,250.0,test,3,E+
447.005033493,4,1000,0,1,3,4,5,0,2,1,0,250.0,test,4,E+
494.879007339,5,1000,3,1,3,4,5,0,2,1,0,250.0,test,5,E+
543.606996536,5,1000,3,1,3,4,5,0,2,1,0,250.0,test,5,E+
478.652000427,5,1000,3,1,3,4,5,0,2,1,0,250.0,test,5,E+
623.608827591,2,1000,5,0,3,4,5,0,2,1,0,250.0,test,3,E+
526.422023773,1,1000,4,1,3,4,5,0,2,1,0,250.0,test,1,E+
686.862945557,5,1000,3,1,3,4,5,0,2,1,0,250.0,test,5,E+
1597.11194038,0,1000,2,1,3,4,5,0,2,1,0,250.0,test,0,E+
493.355989456,0,1000,2,1,3,4,5,0,2,1,0,250.0,test,0,E+
671.006202698,4,1000,0,1,3,4,5,0,2,1,0,250.0,test,4,E+
655.50994873,0,1000,2,1,3,4,5,0,2,1,0,250.0,test,0,E+
639.594078064,3,1000,1,1,3,4,5,0,2,1,0,250.0,test,3,E+
575.573921204,1,1000,4,1,3,4,5,0,2,1,0,250.0,test,1,E+
462.630987167,2,1000,5,0,3,4,5,0,2,1,0,250.0,test,3,E+
606.849908829,0,1000,2,1,3,4,5,0,2,1,0,250.0,test,0,E+
670.445919037,2,1000,5,1,3,4,5,0,2,1,0,250.0,test,2,E+
510.631084442,3,1000,1,1,3,4,5,0,2,1,0,250.0,test,3,E+
461.401939392,3,1000,1,1,3,4,5,0,2,1,0,250.0,test,3,E+
654.193162918,2,1000,5,1,3,4,5,0,2,1,0,250.0,test,2,E+
558.37893486,4,1000,0,1,3,4,5,0,2,1,0,250.0,test,4,E+
894.955158234,3,1000,1,1,3,4,5,0,2,1,0,250.0,test,3,E+
574.918031693,2,1000,5,1,3,4,5,0,2,1,0,250.0,test,2,E+
462.574958801,3,1000,1,1,3,4,5,0,2,1,0,250.0,test,3,E+
606.956005096,4,1000,0,1,3,4,5,0,2,1,0,250.0,test,4,E+
573.350906372,1,1000,4,1,3,4,5,0,2,1,0,250.0,test,1,E+
527.584075928,1,1000,4,1,3,4,5,0,2,1,0,250.0,test,1,E+
574.21708107,5,1000,3,1,3,4,5,0,2,1,0,250.0,test,5,E+
463.538169861,5,1000,3,1,3,4,5,0,2,1,0,250.0,test,5,E+
542.809009552,4,1000,0,1,3,4,5,0,2,1,0,250.0,test,4,E+
653.822898865,1,1000,4,1,3,4,5,0,2,1,0,250.0,test,1,E+
734.727859497,2,1000,5,1,3,4,5,0,2,1,0,250.0,test,2,E+
575.538158417,3,1000,1,1,3,4,5,0,2,1,0,250.0,test,3,E+
555.964946747,0,1000,2,1,3,4,5,0,2,1,0,250.0,test,0,E+
751.539945602,4,1000,0,1,3,4,5,0,2,1,0,250.0,test,4,E+
493.882894516,5,1000,3,1,3,4,5,0,2,1,0,250.0,test,5,E+
557.863950729,0,1000,2,1,3,4,5,0,2,1,0,250.0,test,0,E+
366.937160492,1,1000,4,1,3,4,5,0,2,1,0,250.0,test,1,E+
655.608892441,3,1000,1,1,3,4,5,0,2,1,0,250.0,test,3,E+
495.104789734,1,1000,4,1,3,4,5,0,2,1,0,250.0,test,1,E+
590.387105942,0,1000,2,1,3,4,5,0,2,1,0,250.0,test,0,E+
526.76987648,3,1000,1,1,3,4,5,0,2,1,0,250.0,test,3,E+
606.383085251,2,1000,5,0,3,4,5,0,2,1,0,250.0,test,3,E+
511.302947998,5,1000,3,1,3,4,5,0,2,1,0,250.0,test,5,E+
703.09305191,0,1000,2,1,3,4,5,0,2,1,0,250.0,test,0,E+
606.298208237,3,1000,1,1,3,4,5,0,2,1,0,250.0,test,3,E+
527.570009232,0,1000,2,1,3,4,5,0,2,1,0,250.0,test,0,E+
462.275981903,1,1000,4,1,3,4,5,0,2,1,0,250.0,test,1,E+
495.540857315,4,1000,0,1,3,4,5,0,2,1,0,250.0,test,4,E+
557.676076889,0,1000,2,1,3,4,5,0,2,1,0,250.0,test,0,E+
574.152946472,5,1000,3,1,3,4,5,0,2,1,0,250.0,test,5,E+
509.346961975,0,1000,2,1,3,4,5,0,2,1,0,250.0,test,0,E+
687.00003624,2,1000,5,0,3,4,5,0,2,1,0,250.0,test,3,E+
654.961109161,3,1000,1,1,3,4,5,0,2,1,0,250.0,test,3,E+
590.94119072,2,1000,5,1,3,4,5,0,2,1,0,250.0,test,2,E+
574.893951416,5,1000,3,1,3,4,5,0,2,1,0,250.0,test,5,E+
446.588993073,5,1000,3,1,3,4,5,0,2,1,0,250.0,test,5,E+
542.330026627,0,1000,2,1,3,4,5,0,2,1,0,250.0,test,0,E+
479.809999466,0,1000,2,1,3,4,5,0,2,1,0,250.0,test,0,E+
687.165975571,3,1000,1,1,3,4,5,0,2,1,0,250.0,test,3,E+
303.508043289,3,1000,1,1,3,4,5,0,2,1,0,250.0,test,3,E+
494.385957718,1,1000,4,1,3,4,5,0,2,1,0,250.0,test,1,E+
750.981807709,2,1000,5,0,3,4,5,0,2,1,0,250.0,test,3,E+
574.209928513,1,1000,4,1,3,4,5,0,2,1,0,250.0,test,1,E+
510.810136795,1,1000,4,1,3,4,5,0,2,1,0,250.0,test,1,E+
574.544906616,5,1000,3,1,3,4,5,0,2,1,0,250.0,test,5,E+
943.559169769,3,1000,1,1,3,4,5,0,2,1,0,250.0,test,3,E+
494.426012039,3,1000,1,1,3,4,5,0,2,1,0,250.0,test,3,E+
638.618946075,4,1000,0,1,3,4,5,0,2,1,0,250.0,test,4,E+
559.626102448,2,1000,5,0,3,4,5,0,2,1,0,250.0,test,1,E+
575.376987457,1,1000,4,1,3,4,5,0,2,1,0,250.0,test,1,E+
511.085987091,3,1000,1,0,3,4,5,0,2,1,0,250.0,test,4,E+
1966.95184708,5,1000,3,1,3,4,5,0,2,1,0,250.0,test,5,E+
446.882963181,5,1000,3,1,3,4,5,0,2,1,0,250.0,test,5,E+
526.335954666,2,1000,5,1,3,4,5,0,2,1,0,250.0,test,2,E+
430.895090103,3,1000,1,1,3,4,5,0,2,1,0,250.0,test,3,E+
430.392980576,3,1000,1,1,3,4,5,0,2,1,0,250.0,test,3,E+
510.293960571,5,1000,3,1,3,4,5,0,2,1,0,250.0,test,5,E+
605.469942093,2,1000,5,1,3,4,5,0,2,1,0,250.0,test,2,E+
511.506080627,5,1000,3,1,3,4,5,0,2,1,0,250.0,test,5,E+
462.891817093,5,1000,3,1,3,4,5,0,2,1,0,250.0,test,5,E+
447.542190552,5,1000,3,1,3,4,5,0,2,1,0,250.0,test,5,E+
670.746088028,1,1000,4,1,3,4,5,0,2,1,0,250.0,test,1,E+
367.028951645,1,1000,4,1,3,4,5,0,2,1,0,250.0,test,1,E+
558.001041412,5,1000,3,1,3,4,5,0,2,1,0,250.0,test,5,E+
734.504938126,3,1000,1,1,3,4,5,0,2,1,0,250.0,test,3,E+
573.723077774,0,1000,2,1,3,4,5,0,2,1,0,250.0,test,0,E+
463.541984558,0,1000,2,1,3,4,5,0,2,1,0,250.0,test,0,E+
446.50888443,0,1000,2,1,3,4,5,0,2,1,0,250.0,test,0,E+
639.559030533,3,1000,1,1,3,4,5,0,2,1,0,250.0,test,3,E+
542.547941208,5,1000,3,1,3,4,5,0,2,1,0,250.0,test,5,E+
430.968999863,4,1000,0,1,3,4,5,0,2,1,0,250.0,test,4,E+
366.711139679,5,1000,3,1,3,4,5,0,2,1,0,250.0,test,5,E+
