RT,correct_response,ms-prestimblank,curstim,correct,SRmap_1,SRmap_0,SRmap_3,SRmap_2,SRmap_5,SRmap_4,ms-precue,ntrials,type,response,condition
9902.62913704,5,600,3,1,4,2,5,3,1,0,400,250.0,train,5,E+
1486.23800278,4,600,1,1,4,2,5,3,1,0,400,250.0,train,4,E+
830.837011337,2,600,0,1,4,2,5,3,1,0,400,250.0,train,2,E+
671.658039093,1,600,5,1,4,2,5,3,1,0,400,250.0,train,1,E+
31.7671298981,0,600,4,1,4,2,5,3,1,0,400,250.0,train,0,E+
254.060029984,5,600,3,1,4,2,5,3,1,0,400,250.0,train,5,E+
237.390041351,4,600,1,1,4,2,5,3,1,0,400,250.0,train,4,E+
671.439886093,2,600,0,1,4,2,5,3,1,0,400,250.0,train,2,E+
95.0539112091,0,600,4,1,4,2,5,3,1,0,400,250.0,train,0,E+
639.293909073,0,600,4,1,4,2,5,3,1,0,400,250.0,train,0,E+
158.025026321,5,600,3,1,4,2,5,3,1,0,400,250.0,train,5,E+
525.480031967,3,600,2,1,4,2,5,3,1,0,400,250.0,train,3,E+
415.5189991,4,600,1,1,4,2,5,3,1,0,400,250.0,train,4,E+
334.218978882,2,600,0,1,4,2,5,3,1,0,400,250.0,train,2,E+
95.550775528,1,600,5,1,4,2,5,3,1,0,400,250.0,train,1,E+
94.4390296936,5,600,3,1,4,2,5,3,1,0,400,250.0,train,5,E+
303.163051605,4,600,1,1,4,2,5,3,1,0,400,250.0,train,4,E+
526.801109314,1,600,5,1,4,2,5,3,1,0,400,250.0,train,1,E+
95.6301689148,5,600,3,1,4,2,5,3,1,0,400,250.0,train,5,E+
190.389871597,2,600,0,1,4,2,5,3,1,0,400,250.0,train,2,E+
110.498905182,1,600,5,1,4,2,5,3,1,0,400,250.0,train,1,E+
127.624988556,1,600,5,1,4,2,5,3,1,0,400,250.0,train,1,E+
0.0557899475098,1,600,5,1,4,2,5,3,1,0,400,250.0,train,1,E+
63.3590221405,0,600,4,1,4,2,5,3,1,0,400,250.0,train,0,E+
95.6709384918,2,600,0,1,4,2,5,3,1,0,400,250.0,train,2,E+
174.223184586,4,600,1,1,4,2,5,3,1,0,400,250.0,train,4,E+
574.80597496,3,600,2,1,4,2,5,3,1,0,400,250.0,train,3,E+
142.237901688,0,600,4,1,4,2,5,3,1,0,400,250.0,train,0,E+
238.899946213,4,600,1,1,4,2,5,3,1,0,400,250.0,train,4,E+
927.199840546,4,600,1,1,4,2,5,3,1,0,400,250.0,train,4,E+
143.149852753,4,600,1,1,4,2,5,3,1,0,400,250.0,train,4,E+
335.546970367,2,600,0,1,4,2,5,3,1,0,400,250.0,train,2,E+
95.3931808472,0,600,4,1,4,2,5,3,1,0,400,250.0,train,0,E+
526.163101196,5,600,3,1,4,2,5,3,1,0,400,250.0,train,5,E+
415.635824203,1,600,5,1,4,2,5,3,1,0,400,250.0,train,1,E+
95.6199169159,2,600,0,1,4,2,5,3,1,0,400,250.0,train,2,E+
431.524991989,3,600,2,1,4,2,5,3,1,0,400,250.0,train,3,E+
431.576967239,2,600,0,1,4,2,5,3,1,0,400,250.0,train,2,E+
175.549030304,4,600,1,1,4,2,5,3,1,0,400,250.0,train,4,E+
286.177873611,4,600,1,1,4,2,5,3,1,0,400,250.0,train,4,E+
238.389968872,1,600,5,1,4,2,5,3,1,0,400,250.0,train,1,E+
254.323959351,0,600,4,1,4,2,5,3,1,0,400,250.0,train,0,E+
734.571933746,3,600,2,1,4,2,5,3,1,0,400,250.0,train,3,E+
111.599206924,0,600,4,1,4,2,5,3,1,0,400,250.0,train,0,E+
175.606966019,4,600,1,0,4,2,5,3,1,0,400,250.0,train,5,E+
126.872062683,4,600,1,1,4,2,5,3,1,0,400,250.0,train,4,E+
302.285909653,1,600,5,1,4,2,5,3,1,0,400,250.0,train,1,E+
302.273988724,5,600,3,1,4,2,5,3,1,0,400,250.0,train,5,E+
94.3360328674,5,600,3,1,4,2,5,3,1,0,400,250.0,train,5,E+
302.537202835,4,600,1,1,4,2,5,3,1,0,400,250.0,train,4,E+
63.6401176453,0,600,4,1,4,2,5,3,1,0,400,250.0,train,0,E+
223.459005356,5,600,3,1,4,2,5,3,1,0,400,250.0,train,5,E+
350.81911087,3,600,2,1,4,2,5,3,1,0,400,250.0,train,3,E+
143.606901169,1,600,5,1,4,2,5,3,1,0,400,250.0,train,1,E+
62.8988742828,0,600,4,1,4,2,5,3,1,0,400,250.0,train,0,E+
79.6270370483,1,600,5,1,4,2,5,3,1,0,400,250.0,train,1,E+
431.566953659,2,600,0,1,4,2,5,3,1,0,400,250.0,train,2,E+
191.615819931,1,600,5,1,4,2,5,3,1,0,400,250.0,train,1,E+
287.602186203,3,600,2,1,4,2,5,3,1,0,400,250.0,train,3,E+
382.683038712,4,600,1,1,4,2,5,3,1,0,400,250.0,train,4,E+
638.476133347,2,600,0,1,4,2,5,3,1,0,400,250.0,train,2,E+
95.6890583038,2,600,0,1,4,2,5,3,1,0,400,250.0,train,2,E+
94.6550369263,1,600,5,1,4,2,5,3,1,0,400,250.0,train,1,E+
191.61605835,4,600,1,1,4,2,5,3,1,0,400,250.0,train,4,E+
95.7400798798,5,600,3,1,4,2,5,3,1,0,400,250.0,train,5,E+
63.0559921265,0,600,4,1,4,2,5,3,1,0,400,250.0,train,0,E+
334.395885468,0,600,4,1,4,2,5,3,1,0,400,250.0,train,0,E+
142.359972,2,600,0,1,4,2,5,3,1,0,400,250.0,train,2,E+
93.3041572571,0,600,4,1,4,2,5,3,1,0,400,250.0,train,0,E+
223.572015762,0,600,4,1,4,2,5,3,1,0,400,250.0,train,0,E+
318.511009216,0,600,4,1,4,2,5,3,1,0,400,250.0,train,0,E+
190.307855606,5,600,3,1,4,2,5,3,1,0,400,250.0,train,5,E+
287.575960159,2,600,0,1,4,2,5,3,1,0,400,250.0,train,2,E+
126.456975937,5,600,3,1,4,2,5,3,1,0,400,250.0,train,5,E+
143.572092056,2,600,0,1,4,2,5,3,1,0,400,250.0,train,2,E+
351.505994797,2,600,0,1,4,2,5,3,1,0,400,250.0,train,2,E+
271.556854248,5,600,3,1,4,2,5,3,1,0,400,250.0,train,5,E+
255.620002747,5,600,3,1,4,2,5,3,1,0,400,250.0,train,5,E+
382.678985596,5,600,3,1,4,2,5,3,1,0,400,250.0,train,5,E+
286.410093307,5,600,3,1,4,2,5,3,1,0,400,250.0,train,5,E+
255.568027496,2,600,0,1,4,2,5,3,1,0,400,250.0,train,2,E+
191.591978073,5,600,3,1,4,2,5,3,1,0,400,250.0,train,5,E+
95.5917835236,0,600,4,1,4,2,5,3,1,0,400,250.0,train,0,E+
559.582948685,4,600,1,1,4,2,5,3,1,0,400,250.0,train,4,E+
142.382144928,5,600,3,1,4,2,5,3,1,0,400,250.0,train,5,E+
382.423877716,3,600,2,1,4,2,5,3,1,0,400,250.0,train,3,E+
110.643148422,1,600,5,1,4,2,5,3,1,0,400,250.0,train,1,E+
382.335186005,4,600,1,1,4,2,5,3,1,0,400,250.0,train,4,E+
318.363904953,4,600,1,1,4,2,5,3,1,0,400,250.0,train,4,E+
367.143154144,2,600,0,1,4,2,5,3,1,0,400,250.0,train,2,E+
255.562067032,2,600,0,1,4,2,5,3,1,0,400,250.0,train,2,E+
254.129886627,3,600,2,1,4,2,5,3,1,0,400,250.0,train,3,E+
622.511863708,1,600,5,1,4,2,5,3,1,0,400,250.0,train,1,E+
286.935091019,1,600,5,1,4,2,5,3,1,0,400,250.0,train,1,E+
335.611820221,0,600,4,1,4,2,5,3,1,0,400,250.0,train,0,E+
287.614107132,4,600,1,1,4,2,5,3,1,0,400,250.0,train,4,E+
559.606075287,3,600,2,1,4,2,5,3,1,0,400,250.0,train,3,E+
223.536968231,1,600,5,1,4,2,5,3,1,0,400,250.0,train,1,E+
335.592985153,5,600,3,1,4,2,5,3,1,0,400,250.0,train,5,E+
63.7278556824,5,600,3,1,4,2,5,3,1,0,400,250.0,train,5,E+
591.559886932,3,600,2,1,4,2,5,3,1,0,400,250.0,train,3,E+
127.56896019,5,600,3,1,4,2,5,3,1,0,400,250.0,train,5,E+
255.498886108,0,600,4,1,4,2,5,3,1,0,400,250.0,train,0,E+
190.941095352,2,600,0,1,4,2,5,3,1,0,400,250.0,train,2,E+
191.576957703,2,600,0,1,4,2,5,3,1,0,400,250.0,train,2,E+
207.508802414,1,600,5,1,4,2,5,3,1,0,400,250.0,train,1,E+
207.510948181,1,600,5,1,4,2,5,3,1,0,400,250.0,train,1,E+
399.62220192,4,600,1,1,4,2,5,3,1,0,400,250.0,train,4,E+
255.602121353,5,600,3,1,4,2,5,3,1,0,400,250.0,train,5,E+
495.559930801,5,600,3,1,4,2,5,3,1,0,400,250.0,train,5,E+
223.0219841,1,600,5,1,4,2,5,3,1,0,400,250.0,train,1,E+
31.5330028534,2,600,0,1,4,2,5,3,1,0,400,250.0,train,2,E+
94.2370891571,1,600,5,1,4,2,5,3,1,0,400,250.0,train,1,E+
158.999919891,3,600,2,1,4,2,5,3,1,0,400,250.0,train,3,E+
31.6898822784,5,600,3,1,4,2,5,3,1,0,400,250.0,train,5,E+
111.752986908,0,600,4,1,4,2,5,3,1,0,400,250.0,train,0,E+
207.138061523,3,600,2,1,4,2,5,3,1,0,400,250.0,train,3,E+
191.513061523,3,600,2,1,4,2,5,3,1,0,400,250.0,train,3,E+
30.7109355927,5,600,3,1,4,2,5,3,1,0,400,250.0,train,5,E+
975.173950195,2,600,0,1,4,2,5,3,1,0,400,250.0,train,2,E+
111.027956009,5,600,3,1,4,2,5,3,1,0,400,250.0,train,5,E+
111.511945724,5,600,3,1,4,2,5,3,1,0,400,250.0,train,5,E+
31.7101478577,5,600,3,1,4,2,5,3,1,0,400,250.0,train,5,E+
239.592075348,1,600,5,1,4,2,5,3,1,0,400,250.0,train,1,E+
495.448112488,1,600,5,1,4,2,5,3,1,0,400,250.0,train,1,E+
447.565793991,3,600,2,1,4,2,5,3,1,0,400,250.0,train,3,E+
126.779079437,0,600,4,1,4,2,5,3,1,0,400,250.0,train,0,E+
159.585952759,5,600,3,1,4,2,5,3,1,0,400,250.0,train,5,E+
191.568851471,0,600,4,1,4,2,5,3,1,0,400,250.0,train,0,E+
575.587034225,2,600,0,1,4,2,5,3,1,0,400,250.0,train,2,E+
271.091938019,5,600,3,1,4,2,5,3,1,0,400,250.0,train,5,E+
207.444906235,5,600,3,1,4,2,5,3,1,0,400,250.0,train,5,E+
175.580978394,4,600,1,1,4,2,5,3,1,0,400,250.0,train,4,E+
223.238945007,2,600,0,1,4,2,5,3,1,0,400,250.0,train,2,E+
334.167957306,1,600,5,1,4,2,5,3,1,0,400,250.0,train,1,E+
175.137996674,1,600,5,1,4,2,5,3,1,0,400,250.0,train,1,E+
255.551099777,3,600,2,1,4,2,5,3,1,0,400,250.0,train,3,E+
126.39093399,0,600,4,1,4,2,5,3,1,0,400,250.0,train,0,E+
159.025192261,5,600,3,1,4,2,5,3,1,0,400,250.0,train,5,E+
190.33408165,2,600,0,1,4,2,5,3,1,0,400,250.0,train,2,E+
207.510232925,5,600,3,1,4,2,5,3,1,0,400,250.0,train,5,E+
174.48592186,0,600,4,1,4,2,5,3,1,0,400,250.0,train,0,E+
191.591978073,1,600,5,1,4,2,5,3,1,0,400,250.0,train,1,E+
271.563053131,2,600,0,1,4,2,5,3,1,0,400,250.0,train,2,E+
239.603042603,2,600,0,1,4,2,5,3,1,0,400,250.0,train,2,E+
334.02299881,3,600,2,1,4,2,5,3,1,0,400,250.0,train,3,E+
238.242864609,1,600,5,1,4,2,5,3,1,0,400,250.0,train,1,E+
15.7058238983,2,600,0,1,4,2,5,3,1,0,400,250.0,train,2,E+
79.6980857849,0,600,4,1,4,2,5,3,1,0,400,250.0,train,0,E+
415.514945984,4,600,1,1,4,2,5,3,1,0,400,250.0,train,4,E+
206.293106079,1,600,5,1,4,2,5,3,1,0,400,250.0,train,1,E+
302.609920502,3,600,2,1,4,2,5,3,1,0,400,250.0,train,3,E+
159.221172333,1,600,5,1,4,2,5,3,1,0,400,250.0,train,1,E+
431.56504631,1,600,5,1,4,2,5,3,1,0,400,250.0,train,1,E+
159.597873688,3,600,2,1,4,2,5,3,1,0,400,250.0,train,3,E+
79.7209739685,5,600,3,1,4,2,5,3,1,0,400,250.0,train,5,E+
239.52293396,5,600,3,1,4,2,5,3,1,0,400,250.0,train,5,E+
0.0579357147217,4,600,1,1,4,2,5,3,1,0,400,250.0,train,4,E+
319.534063339,2,600,0,0,4,2,5,3,1,0,400,250.0,train,3,E+
334.380149841,2,600,0,1,4,2,5,3,1,0,400,250.0,train,2,E+
127.578020096,0,600,4,1,4,2,5,3,1,0,400,250.0,train,0,E+
142.481803894,5,600,3,1,4,2,5,3,1,0,400,250.0,train,5,E+
127.571821213,0,600,4,1,4,2,5,3,1,0,400,250.0,train,0,E+
239.036083221,4,600,1,1,4,2,5,3,1,0,400,250.0,train,4,E+
318.480014801,5,600,3,1,4,2,5,3,1,0,400,250.0,train,5,E+
206.757068634,5,600,3,1,4,2,5,3,1,0,400,250.0,train,5,E+
174.400091171,1,600,5,1,4,2,5,3,1,0,400,250.0,train,1,E+
191.351175308,5,600,3,1,4,2,5,3,1,0,400,250.0,train,5,E+
239.523887634,2,600,0,1,4,2,5,3,1,0,400,250.0,train,2,E+
191.408872604,2,600,0,1,4,2,5,3,1,0,400,250.0,train,2,E+
31.6219329834,5,600,3,1,4,2,5,3,1,0,400,250.0,train,5,E+
319.514989853,3,600,2,0,4,2,5,3,1,0,400,250.0,train,2,E+
303.647994995,2,600,0,1,4,2,5,3,1,0,400,250.0,train,2,E+
207.221984863,1,600,5,1,4,2,5,3,1,0,400,250.0,train,1,E+
270.971059799,5,600,3,1,4,2,5,3,1,0,400,250.0,train,5,E+
383.507966995,1,600,5,1,4,2,5,3,1,0,400,250.0,train,1,E+
239.631891251,0,600,4,1,4,2,5,3,1,0,400,250.0,train,0,E+
255.537033081,4,600,1,1,4,2,5,3,1,0,400,250.0,train,4,E+
174.196004868,0,600,4,1,4,2,5,3,1,0,400,250.0,train,0,E+
526.731014252,3,600,2,1,4,2,5,3,1,0,400,250.0,train,3,E+
271.178007126,3,600,2,1,4,2,5,3,1,0,400,250.0,train,3,E+
95.3030586243,5,600,3,1,4,2,5,3,1,0,400,250.0,train,5,E+
143.018960953,5,600,3,1,4,2,5,3,1,0,400,250.0,train,5,E+
223.608016968,2,600,0,1,4,2,5,3,1,0,400,250.0,train,2,E+
383.582830429,1,600,5,1,4,2,5,3,1,0,400,250.0,train,1,E+
191.462039948,2,600,0,1,4,2,5,3,1,0,400,250.0,train,2,E+
175.626993179,3,600,2,1,4,2,5,3,1,0,400,250.0,train,3,E+
111.078977585,5,600,3,1,4,2,5,3,1,0,400,250.0,train,5,E+
223.601818085,5,600,3,1,4,2,5,3,1,0,400,250.0,train,5,E+
174.793958664,0,600,4,1,4,2,5,3,1,0,400,250.0,train,0,E+
303.545951843,3,600,2,0,4,2,5,3,1,0,400,250.0,train,2,E+
189.944982529,5,600,3,1,4,2,5,3,1,0,400,250.0,train,5,E+
207.628965378,4,600,1,1,4,2,5,3,1,0,400,250.0,train,4,E+
207.570075989,3,600,2,1,4,2,5,3,1,0,400,250.0,train,3,E+
319.591999054,4,600,1,1,4,2,5,3,1,0,400,250.0,train,4,E+
207.648992538,4,600,1,1,4,2,5,3,1,0,400,250.0,train,4,E+
47.5659370422,5,600,3,1,4,2,5,3,1,0,400,250.0,train,5,E+
111.680984497,4,600,1,1,4,2,5,3,1,0,400,250.0,train,4,E+
95.6568717957,5,600,3,1,4,2,5,3,1,0,400,250.0,train,5,E+
318.233013153,3,600,2,1,4,2,5,3,1,0,400,250.0,train,3,E+
191.605091095,4,600,1,1,4,2,5,3,1,0,400,250.0,train,4,E+
127.558946609,4,600,1,1,4,2,5,3,1,0,400,250.0,train,4,E+
270.805835724,0,600,4,1,4,2,5,3,1,0,400,250.0,train,0,E+
111.577987671,0,600,4,1,4,2,5,3,1,0,400,250.0,train,0,E+
239.51792717,3,600,2,1,4,2,5,3,1,0,400,250.0,train,3,E+
95.5498218536,5,600,3,1,4,2,5,3,1,0,400,250.0,train,5,E+
239.263772964,1,600,5,1,4,2,5,3,1,0,400,250.0,train,1,E+
159.568071365,0,600,4,1,4,2,5,3,1,0,400,250.0,train,0,E+
30.9700965881,0,600,4,1,4,2,5,3,1,0,400,250.0,train,0,E+
207.504987717,3,600,2,1,4,2,5,3,1,0,400,250.0,train,3,E+
174.804925919,3,600,2,1,4,2,5,3,1,0,400,250.0,train,3,E+
351.530075073,2,600,0,1,4,2,5,3,1,0,400,250.0,train,2,E+
111.585855484,4,600,1,1,4,2,5,3,1,0,400,250.0,train,4,E+
46.9610691071,4,600,1,1,4,2,5,3,1,0,400,250.0,train,4,E+
415.586233139,1,600,5,1,4,2,5,3,1,0,400,250.0,train,1,E+
207.602977753,4,600,1,1,4,2,5,3,1,0,400,250.0,train,4,E+
143.679141998,3,600,2,1,4,2,5,3,1,0,400,250.0,train,3,E+
95.0739383698,2,600,0,1,4,2,5,3,1,0,400,250.0,train,2,E+
31.0699939728,0,600,4,1,4,2,5,3,1,0,400,250.0,train,0,E+
126.994132996,5,600,3,1,4,2,5,3,1,0,400,250.0,train,5,E+
111.175060272,3,600,2,1,4,2,5,3,1,0,400,250.0,train,3,E+
222.924947739,1,600,5,1,4,2,5,3,1,0,400,250.0,train,1,E+
47.6651191711,2,600,0,1,4,2,5,3,1,0,400,250.0,train,2,E+
111.648082733,4,600,1,1,4,2,5,3,1,0,400,250.0,train,4,E+
174.298048019,1,600,5,1,4,2,5,3,1,0,400,250.0,train,1,E+
46.6861724854,1,600,5,1,4,2,5,3,1,0,400,250.0,train,1,E+
222.128868103,1,600,5,1,4,2,5,3,1,0,400,250.0,train,1,E+
126.925945282,3,600,2,0,4,2,5,3,1,0,400,250.0,train,4,E+
142.811059952,4,600,1,1,4,2,5,3,1,0,400,250.0,train,4,E+
271.482944489,5,600,3,1,4,2,5,3,1,0,400,250.0,train,5,E+
159.686088562,0,600,4,1,4,2,5,3,1,0,400,250.0,train,0,E+
95.5169200897,1,600,5,1,4,2,5,3,1,0,400,250.0,train,1,E+
111.718177795,1,600,5,1,4,2,5,3,1,0,400,250.0,train,1,E+
190.84405899,4,600,1,1,4,2,5,3,1,0,400,250.0,train,4,E+
15.704870224,4,600,1,1,4,2,5,3,1,0,400,250.0,train,4,E+
126.700878143,0,600,4,1,4,2,5,3,1,0,400,250.0,train,0,E+
334.558963776,2,600,0,1,4,2,5,3,1,0,400,250.0,train,2,E+
127.498865128,0,600,4,1,4,2,5,3,1,0,400,250.0,train,0,E+
271.607875824,2,600,0,1,4,2,5,3,1,0,400,250.0,train,2,E+
382.814884186,1,600,5,1,4,2,5,3,1,0,400,250.0,train,1,E+
63.8229846954,2,600,0,1,4,2,5,3,1,0,400,250.0,train,2,E+
319.583892822,4,600,1,1,4,2,5,3,1,0,400,250.0,train,4,E+
175.671100616,1,600,5,1,4,2,5,3,1,0,400,250.0,train,1,E+
398.847103119,3,600,2,1,4,2,5,3,1,0,400,250.0,train,3,E+
110.097169876,0,600,4,1,4,2,5,3,1,0,400,250.0,train,0,E+
207.579851151,5,600,3,1,4,2,5,3,1,0,400,250.0,train,5,E+
223.429918289,2,600,0,1,4,2,5,3,1,0,400,250.0,train,2,E+
174.903869629,1,600,5,1,4,2,5,3,1,0,400,250.0,train,1,E+
0.053882598877,0,600,4,1,4,2,5,3,1,0,400,250.0,train,0,E+
431.634902954,2,600,0,1,4,2,5,3,1,0,400,250.0,train,2,E+
1071.30503654,0,1000,4,1,4,2,5,3,1,0,0,250.0,test,0,E+
719.545841217,2,1000,0,1,4,2,5,3,1,0,0,250.0,test,2,E+
527.48298645,0,1000,4,1,4,2,5,3,1,0,0,250.0,test,0,E+
463.517904282,0,1000,4,1,4,2,5,3,1,0,0,250.0,test,0,E+
605.257987976,3,1000,2,1,4,2,5,3,1,0,0,250.0,test,3,E+
606.866121292,1,1000,5,1,4,2,5,3,1,0,0,250.0,test,1,E+
383.02898407,0,1000,4,1,4,2,5,3,1,0,0,250.0,test,0,E+
509.763002396,1,1000,5,1,4,2,5,3,1,0,0,250.0,test,1,E+
510.098218918,1,1000,5,1,4,2,5,3,1,0,0,250.0,test,1,E+
526.798009872,5,1000,3,1,4,2,5,3,1,0,0,250.0,test,5,E+
447.600841522,0,1000,4,1,4,2,5,3,1,0,0,250.0,test,0,E+
477.753162384,1,1000,5,1,4,2,5,3,1,0,0,250.0,test,1,E+
526.991128922,0,1000,4,1,4,2,5,3,1,0,0,250.0,test,0,E+
685.840845108,4,1000,1,1,4,2,5,3,1,0,0,250.0,test,4,E+
479.66003418,0,1000,4,1,4,2,5,3,1,0,0,250.0,test,0,E+
590.903997421,3,1000,2,1,4,2,5,3,1,0,0,250.0,test,3,E+
479.507923126,4,1000,1,1,4,2,5,3,1,0,0,250.0,test,4,E+
526.892185211,3,1000,2,1,4,2,5,3,1,0,0,250.0,test,3,E+
943.5338974,2,1000,0,1,4,2,5,3,1,0,0,250.0,test,2,E+
430.990934372,0,1000,4,1,4,2,5,3,1,0,0,250.0,test,0,E+
527.000904083,4,1000,1,1,4,2,5,3,1,0,0,250.0,test,4,E+
558.902978897,2,1000,0,1,4,2,5,3,1,0,0,250.0,test,2,E+
510.559082031,2,1000,0,1,4,2,5,3,1,0,0,250.0,test,2,E+
495.089054108,1,1000,5,1,4,2,5,3,1,0,0,250.0,test,1,E+
638.506889343,5,1000,3,1,4,2,5,3,1,0,0,250.0,test,5,E+
574.991941452,2,1000,0,1,4,2,5,3,1,0,0,250.0,test,2,E+
574.555873871,0,1000,4,1,4,2,5,3,1,0,0,250.0,test,0,E+
542.443037033,5,1000,3,1,4,2,5,3,1,0,0,250.0,test,5,E+
590.32201767,1,1000,5,1,4,2,5,3,1,0,0,250.0,test,1,E+
511.555194855,2,1000,0,1,4,2,5,3,1,0,0,250.0,test,2,E+
511.029958725,2,1000,0,1,4,2,5,3,1,0,0,250.0,test,2,E+
398.749113083,2,1000,0,1,4,2,5,3,1,0,0,250.0,test,2,E+
478.728055954,0,1000,4,1,4,2,5,3,1,0,0,250.0,test,0,E+
574.239015579,5,1000,3,1,4,2,5,3,1,0,0,250.0,test,5,E+
670.9420681,3,1000,2,1,4,2,5,3,1,0,0,250.0,test,3,E+
671.07796669,4,1000,1,1,4,2,5,3,1,0,0,250.0,test,4,E+
526.93104744,3,1000,2,0,4,2,5,3,1,0,0,250.0,test,2,E+
686.792850494,1,1000,5,1,4,2,5,3,1,0,0,250.0,test,1,E+
494.809150696,1,1000,5,1,4,2,5,3,1,0,0,250.0,test,1,E+
495.657205582,0,1000,4,1,4,2,5,3,1,0,0,250.0,test,0,E+
527.614116669,1,1000,5,1,4,2,5,3,1,0,0,250.0,test,1,E+
494.504928589,5,1000,3,1,4,2,5,3,1,0,0,250.0,test,5,E+
542.912006378,1,1000,5,1,4,2,5,3,1,0,0,250.0,test,1,E+
461.997032166,0,1000,4,1,4,2,5,3,1,0,0,250.0,test,0,E+
447.565078735,5,1000,3,1,4,2,5,3,1,0,0,250.0,test,5,E+
574.503898621,3,1000,2,1,4,2,5,3,1,0,0,250.0,test,3,E+
925.837993622,4,1000,1,1,4,2,5,3,1,0,0,250.0,test,4,E+
526.834964752,5,1000,3,1,4,2,5,3,1,0,0,250.0,test,5,E+
478.854894638,2,1000,0,1,4,2,5,3,1,0,0,250.0,test,2,E+
639.652967453,4,1000,1,1,4,2,5,3,1,0,0,250.0,test,4,E+
478.084087372,5,1000,3,1,4,2,5,3,1,0,0,250.0,test,5,E+
942.987918854,4,1000,1,1,4,2,5,3,1,0,0,250.0,test,4,E+
398.453950882,2,1000,0,1,4,2,5,3,1,0,0,250.0,test,2,E+
527.512073517,3,1000,2,1,4,2,5,3,1,0,0,250.0,test,3,E+
510.705947876,5,1000,3,1,4,2,5,3,1,0,0,250.0,test,5,E+
447.485923767,3,1000,2,0,4,2,5,3,1,0,0,250.0,test,4,E+
607.139825821,3,1000,2,1,4,2,5,3,1,0,0,250.0,test,3,E+
527.725934982,0,1000,4,1,4,2,5,3,1,0,0,250.0,test,0,E+
414.9518013,1,1000,5,1,4,2,5,3,1,0,0,250.0,test,1,E+
479.063034058,1,1000,5,1,4,2,5,3,1,0,0,250.0,test,1,E+
767.446994781,4,1000,1,1,4,2,5,3,1,0,0,250.0,test,4,E+
590.147018433,2,1000,0,1,4,2,5,3,1,0,0,250.0,test,2,E+
735.594034195,4,1000,1,1,4,2,5,3,1,0,0,250.0,test,4,E+
494.495153427,4,1000,1,1,4,2,5,3,1,0,0,250.0,test,4,E+
623.554944992,1,1000,5,1,4,2,5,3,1,0,0,250.0,test,1,E+
463.093996048,0,1000,4,1,4,2,5,3,1,0,0,250.0,test,0,E+
542.981863022,2,1000,0,1,4,2,5,3,1,0,0,250.0,test,2,E+
527.040958405,4,1000,1,1,4,2,5,3,1,0,0,250.0,test,4,E+
511.612892151,4,1000,1,1,4,2,5,3,1,0,0,250.0,test,4,E+
590.392827988,1,1000,5,1,4,2,5,3,1,0,0,250.0,test,1,E+
494.398832321,5,1000,3,1,4,2,5,3,1,0,0,250.0,test,5,E+
366.034030914,4,1000,1,1,4,2,5,3,1,0,0,250.0,test,4,E+
527.502775192,1,1000,5,1,4,2,5,3,1,0,0,250.0,test,1,E+
527.055978775,5,1000,3,1,4,2,5,3,1,0,0,250.0,test,5,E+
462.351083755,0,1000,4,1,4,2,5,3,1,0,0,250.0,test,0,E+
509.203910828,2,1000,0,1,4,2,5,3,1,0,0,250.0,test,2,E+
558.819055557,2,1000,0,1,4,2,5,3,1,0,0,250.0,test,2,E+
463.006973267,0,1000,4,1,4,2,5,3,1,0,0,250.0,test,0,E+
415.155172348,1,1000,5,1,4,2,5,3,1,0,0,250.0,test,1,E+
527.490139008,0,1000,4,1,4,2,5,3,1,0,0,250.0,test,0,E+
525.225877762,2,1000,0,1,4,2,5,3,1,0,0,250.0,test,2,E+
511.523008347,4,1000,1,1,4,2,5,3,1,0,0,250.0,test,4,E+
767.071962357,3,1000,2,1,4,2,5,3,1,0,0,250.0,test,3,E+
447.56603241,3,1000,2,1,4,2,5,3,1,0,0,250.0,test,3,E+
462.355852127,5,1000,3,1,4,2,5,3,1,0,0,250.0,test,5,E+
750.2348423,3,1000,2,1,4,2,5,3,1,0,0,250.0,test,3,E+
558.212041855,2,1000,0,1,4,2,5,3,1,0,0,250.0,test,2,E+
462.265014648,3,1000,2,1,4,2,5,3,1,0,0,250.0,test,3,E+
607.057094574,1,1000,5,1,4,2,5,3,1,0,0,250.0,test,1,E+
477.561235428,2,1000,0,1,4,2,5,3,1,0,0,250.0,test,2,E+
495.528936386,4,1000,1,1,4,2,5,3,1,0,0,250.0,test,4,E+
478.50894928,2,1000,0,0,4,2,5,3,1,0,0,250.0,test,3,E+
542.927026749,5,1000,3,1,4,2,5,3,1,0,0,250.0,test,5,E+
494.72618103,2,1000,0,1,4,2,5,3,1,0,0,250.0,test,2,E+
527.549982071,5,1000,3,1,4,2,5,3,1,0,0,250.0,test,5,E+
559.005975723,4,1000,1,1,4,2,5,3,1,0,0,250.0,test,4,E+
543.482065201,0,1000,4,1,4,2,5,3,1,0,0,250.0,test,0,E+
798.923969269,3,1000,2,1,4,2,5,3,1,0,0,250.0,test,3,E+
559.577941895,5,1000,3,1,4,2,5,3,1,0,0,250.0,test,5,E+
543.564081192,3,1000,2,0,4,2,5,3,1,0,0,250.0,test,2,E+
495.527982712,5,1000,3,1,4,2,5,3,1,0,0,250.0,test,5,E+
607.568979263,3,1000,2,1,4,2,5,3,1,0,0,250.0,test,3,E+
543.141126633,3,1000,2,1,4,2,5,3,1,0,0,250.0,test,3,E+
350.736856461,4,1000,1,1,4,2,5,3,1,0,0,250.0,test,4,E+
527.520179749,2,1000,0,1,4,2,5,3,1,0,0,250.0,test,2,E+
494.086027145,5,1000,3,1,4,2,5,3,1,0,0,250.0,test,5,E+
559.553146362,0,1000,4,1,4,2,5,3,1,0,0,250.0,test,0,E+
478.738069534,5,1000,3,1,4,2,5,3,1,0,0,250.0,test,5,E+
767.013072968,3,1000,2,1,4,2,5,3,1,0,0,250.0,test,3,E+
542.731046677,2,1000,0,1,4,2,5,3,1,0,0,250.0,test,2,E+
510.445833206,3,1000,2,1,4,2,5,3,1,0,0,250.0,test,3,E+
493.494033813,5,1000,3,1,4,2,5,3,1,0,0,250.0,test,5,E+
335.587024689,4,1000,1,1,4,2,5,3,1,0,0,250.0,test,4,E+
510.591030121,4,1000,1,0,4,2,5,3,1,0,0,250.0,test,3,E+
526.654958725,5,1000,3,1,4,2,5,3,1,0,0,250.0,test,5,E+
430.979967117,4,1000,1,1,4,2,5,3,1,0,0,250.0,test,4,E+
639.002084732,3,1000,2,1,4,2,5,3,1,0,0,250.0,test,3,E+
527.578115463,4,1000,1,1,4,2,5,3,1,0,0,250.0,test,4,E+
365.360975266,5,1000,3,1,4,2,5,3,1,0,0,250.0,test,5,E+
733.36815834,1,1000,5,1,4,2,5,3,1,0,0,250.0,test,1,E+
543.006181717,4,1000,1,1,4,2,5,3,1,0,0,250.0,test,4,E+
494.876146317,0,1000,4,1,4,2,5,3,1,0,0,250.0,test,0,E+
543.417930603,1,1000,5,1,4,2,5,3,1,0,0,250.0,test,1,E+
494.57192421,0,1000,4,1,4,2,5,3,1,0,0,250.0,test,0,E+
447.233915329,0,1000,4,1,4,2,5,3,1,0,0,250.0,test,0,E+
799.670934677,3,1000,2,1,4,2,5,3,1,0,0,250.0,test,3,E+
734.30109024,5,1000,3,1,4,2,5,3,1,0,0,250.0,test,5,E+
462.957143784,1,1000,5,1,4,2,5,3,1,0,0,250.0,test,1,E+
494.678974152,2,1000,0,1,4,2,5,3,1,0,0,250.0,test,2,E+
463.139057159,5,1000,3,1,4,2,5,3,1,0,0,250.0,test,5,E+
477.173089981,4,1000,1,1,4,2,5,3,1,0,0,250.0,test,4,E+
462.073087692,0,1000,4,1,4,2,5,3,1,0,0,250.0,test,0,E+
669.378042221,3,1000,2,1,4,2,5,3,1,0,0,250.0,test,3,E+
414.900064468,0,1000,4,1,4,2,5,3,1,0,0,250.0,test,0,E+
430.593967438,5,1000,3,1,4,2,5,3,1,0,0,250.0,test,5,E+
783.636808395,3,1000,2,1,4,2,5,3,1,0,0,250.0,test,3,E+
557.867050171,2,1000,0,1,4,2,5,3,1,0,0,250.0,test,2,E+
430.158138275,1,1000,5,1,4,2,5,3,1,0,0,250.0,test,1,E+
558.030843735,2,1000,0,1,4,2,5,3,1,0,0,250.0,test,2,E+
543.083190918,5,1000,3,1,4,2,5,3,1,0,0,250.0,test,5,E+
510.77413559,3,1000,2,1,4,2,5,3,1,0,0,250.0,test,3,E+
447.507143021,1,1000,5,1,4,2,5,3,1,0,0,250.0,test,1,E+
510.183811188,1,1000,5,1,4,2,5,3,1,0,0,250.0,test,1,E+
479.640960693,0,1000,4,1,4,2,5,3,1,0,0,250.0,test,0,E+
383.118867874,1,1000,5,1,4,2,5,3,1,0,0,250.0,test,1,E+
590.361118317,4,1000,1,1,4,2,5,3,1,0,0,250.0,test,4,E+
607.578039169,5,1000,3,1,4,2,5,3,1,0,0,250.0,test,5,E+
445.866107941,0,1000,4,1,4,2,5,3,1,0,0,250.0,test,0,E+
399.704933167,0,1000,4,1,4,2,5,3,1,0,0,250.0,test,0,E+
606.387853622,3,1000,2,1,4,2,5,3,1,0,0,250.0,test,3,E+
431.125879288,0,1000,4,1,4,2,5,3,1,0,0,250.0,test,0,E+
462.14389801,2,1000,0,1,4,2,5,3,1,0,0,250.0,test,2,E+
510.972976685,5,1000,3,1,4,2,5,3,1,0,0,250.0,test,5,E+
606.789112091,2,1000,0,1,4,2,5,3,1,0,0,250.0,test,2,E+
527.572154999,1,1000,5,1,4,2,5,3,1,0,0,250.0,test,1,E+
542.596101761,4,1000,1,1,4,2,5,3,1,0,0,250.0,test,4,E+
495.256900787,5,1000,3,1,4,2,5,3,1,0,0,250.0,test,5,E+
382.817029953,5,1000,3,1,4,2,5,3,1,0,0,250.0,test,5,E+
399.518013,5,1000,3,1,4,2,5,3,1,0,0,250.0,test,5,E+
429.655075073,5,1000,3,0,4,2,5,3,1,0,0,250.0,test,4,E+
557.293891907,2,1000,0,1,4,2,5,3,1,0,0,250.0,test,2,E+
622.895956039,3,1000,2,1,4,2,5,3,1,0,0,250.0,test,3,E+
334.570884705,4,1000,1,1,4,2,5,3,1,0,0,250.0,test,4,E+
573.762893677,3,1000,2,0,4,2,5,3,1,0,0,250.0,test,2,E+
670.215129852,1,1000,5,1,4,2,5,3,1,0,0,250.0,test,1,E+
510.370969772,0,1000,4,1,4,2,5,3,1,0,0,250.0,test,0,E+
526.332139969,3,1000,2,1,4,2,5,3,1,0,0,250.0,test,3,E+
431.668996811,3,1000,2,1,4,2,5,3,1,0,0,250.0,test,3,E+
543.617010117,0,1000,4,1,4,2,5,3,1,0,0,250.0,test,0,E+
1102.39601135,2,1000,0,1,4,2,5,3,1,0,0,250.0,test,2,E+
415.605068207,2,1000,0,1,4,2,5,3,1,0,0,250.0,test,2,E+
462.164163589,5,1000,3,1,4,2,5,3,1,0,0,250.0,test,5,E+
543.076038361,3,1000,2,1,4,2,5,3,1,0,0,250.0,test,3,E+
719.00510788,2,1000,0,1,4,2,5,3,1,0,0,250.0,test,2,E+
414.509057999,2,1000,0,1,4,2,5,3,1,0,0,250.0,test,2,E+
478.014945984,2,1000,0,1,4,2,5,3,1,0,0,250.0,test,2,E+
782.534122467,4,1000,1,1,4,2,5,3,1,0,0,250.0,test,4,E+
543.586969376,3,1000,2,1,4,2,5,3,1,0,0,250.0,test,3,E+
511.527061462,5,1000,3,1,4,2,5,3,1,0,0,250.0,test,5,E+
526.64399147,4,1000,1,1,4,2,5,3,1,0,0,250.0,test,4,E+
478.344917297,5,1000,3,1,4,2,5,3,1,0,0,250.0,test,5,E+
591.578006744,1,1000,5,1,4,2,5,3,1,0,0,250.0,test,1,E+
398.466110229,1,1000,5,1,4,2,5,3,1,0,0,250.0,test,1,E+
509.516954422,0,1000,4,1,4,2,5,3,1,0,0,250.0,test,0,E+
430.439949036,0,1000,4,1,4,2,5,3,1,0,0,250.0,test,0,E+
383.569002151,0,1000,4,1,4,2,5,3,1,0,0,250.0,test,0,E+
494.627952576,2,1000,0,1,4,2,5,3,1,0,0,250.0,test,2,E+
430.344104767,1,1000,5,1,4,2,5,3,1,0,0,250.0,test,1,E+
494.729995728,2,1000,0,1,4,2,5,3,1,0,0,250.0,test,2,E+
510.635137558,0,1000,4,1,4,2,5,3,1,0,0,250.0,test,0,E+
462.823152542,0,1000,4,1,4,2,5,3,1,0,0,250.0,test,0,E+
1007.57193565,4,1000,1,1,4,2,5,3,1,0,0,250.0,test,4,E+
494.577884674,5,1000,3,1,4,2,5,3,1,0,0,250.0,test,5,E+
463.070869446,0,1000,4,1,4,2,5,3,1,0,0,250.0,test,0,E+
542.532205582,3,1000,2,0,4,2,5,3,1,0,0,250.0,test,2,E+
510.370969772,2,1000,0,1,4,2,5,3,1,0,0,250.0,test,2,E+
559.545993805,4,1000,1,1,4,2,5,3,1,0,0,250.0,test,4,E+
413.415908813,5,1000,3,1,4,2,5,3,1,0,0,250.0,test,5,E+
734.573841095,2,1000,0,1,4,2,5,3,1,0,0,250.0,test,2,E+
542.697191238,4,1000,1,1,4,2,5,3,1,0,0,250.0,test,4,E+
543.543100357,3,1000,2,1,4,2,5,3,1,0,0,250.0,test,3,E+
431.051969528,3,1000,2,1,4,2,5,3,1,0,0,250.0,test,3,E+
478.352069855,0,1000,4,1,4,2,5,3,1,0,0,250.0,test,0,E+
607.010126114,3,1000,2,1,4,2,5,3,1,0,0,250.0,test,3,E+
478.824138641,1,1000,5,1,4,2,5,3,1,0,0,250.0,test,1,E+
591.011047363,5,1000,3,1,4,2,5,3,1,0,0,250.0,test,5,E+
798.929929733,1,1000,5,1,4,2,5,3,1,0,0,250.0,test,1,E+
526.435136795,5,1000,3,1,4,2,5,3,1,0,0,250.0,test,5,E+
494.722127914,5,1000,3,1,4,2,5,3,1,0,0,250.0,test,5,E+
478.739976883,1,1000,5,1,4,2,5,3,1,0,0,250.0,test,1,E+
478.685855865,0,1000,4,1,4,2,5,3,1,0,0,250.0,test,0,E+
815.579891205,5,1000,3,1,4,2,5,3,1,0,0,250.0,test,5,E+
1341.49909019,3,1000,2,1,4,2,5,3,1,0,0,250.0,test,3,E+
590.332984924,1,1000,5,1,4,2,5,3,1,0,0,250.0,test,1,E+
479.067802429,3,1000,2,1,4,2,5,3,1,0,0,250.0,test,3,E+
542.708873749,1,1000,5,1,4,2,5,3,1,0,0,250.0,test,1,E+
559.054851532,1,1000,5,1,4,2,5,3,1,0,0,250.0,test,1,E+
654.535055161,3,1000,2,1,4,2,5,3,1,0,0,250.0,test,3,E+
462.874889374,5,1000,3,1,4,2,5,3,1,0,0,250.0,test,5,E+
526.559114456,3,1000,2,1,4,2,5,3,1,0,0,250.0,test,3,E+
1087.05878258,5,1000,3,1,4,2,5,3,1,0,0,250.0,test,5,E+
334.666013718,4,1000,1,1,4,2,5,3,1,0,0,250.0,test,4,E+
750.383138657,3,1000,2,1,4,2,5,3,1,0,0,250.0,test,3,E+
462.309837341,2,1000,0,1,4,2,5,3,1,0,0,250.0,test,2,E+
511.603832245,0,1000,4,1,4,2,5,3,1,0,0,250.0,test,0,E+
511.409044266,1,1000,5,1,4,2,5,3,1,0,0,250.0,test,1,E+
638.854980469,4,1000,1,1,4,2,5,3,1,0,0,250.0,test,4,E+
526.346206665,0,1000,4,1,4,2,5,3,1,0,0,250.0,test,0,E+
687.566995621,4,1000,1,1,4,2,5,3,1,0,0,250.0,test,4,E+
493.108034134,1,1000,5,1,4,2,5,3,1,0,0,250.0,test,1,E+
862.92886734,3,1000,2,1,4,2,5,3,1,0,0,250.0,test,3,E+
574.949979782,1,1000,5,1,4,2,5,3,1,0,0,250.0,test,1,E+
398.773908615,0,1000,4,1,4,2,5,3,1,0,0,250.0,test,0,E+
527.52995491,4,1000,1,1,4,2,5,3,1,0,0,250.0,test,4,E+
461.561918259,0,1000,4,1,4,2,5,3,1,0,0,250.0,test,0,E+
542.939901352,3,1000,2,1,4,2,5,3,1,0,0,250.0,test,3,E+
462.966918945,0,1000,4,1,4,2,5,3,1,0,0,250.0,test,0,E+
494.577884674,3,1000,2,0,4,2,5,3,1,0,0,250.0,test,2,E+
415.514945984,3,1000,2,1,4,2,5,3,1,0,0,250.0,test,3,E+
415.004014969,3,1000,2,1,4,2,5,3,1,0,0,250.0,test,3,E+
415.100097656,0,1000,4,1,4,2,5,3,1,0,0,250.0,test,0,E+
735.534906387,3,1000,2,1,4,2,5,3,1,0,0,250.0,test,3,E+
543.483018875,1,1000,5,1,4,2,5,3,1,0,0,250.0,test,1,E+
463.543891907,3,1000,2,1,4,2,5,3,1,0,0,250.0,test,3,E+
511.600971222,0,1000,4,1,4,2,5,3,1,0,0,250.0,test,0,E+
543.086051941,3,1000,2,1,4,2,5,3,1,0,0,250.0,test,3,E+
398.975849152,0,1000,4,1,4,2,5,3,1,0,0,250.0,test,0,E+
815.150022507,1,1000,5,1,4,2,5,3,1,0,0,250.0,test,1,E+
398.551940918,3,1000,2,1,4,2,5,3,1,0,0,250.0,test,3,E+
430.734872818,4,1000,1,1,4,2,5,3,1,0,0,250.0,test,4,E+
