RT,SRmap_0,SRmap_1,SRmap_2,SRmap_3,SRmap_4,SRmap_5,condition,correct,correct_response,curstim,ms-precue,ms-prestimblank,ntrials,response,subject,trial,type
3744.3010807037354,1,3,5,0,2,4,H-,1,3,1,0,1000,250.0,3,c32jhc32jhl,0,train
1638.5340690612793,1,3,5,0,2,4,H-,1,5,2,0,1000,250.0,5,c32jhc32jhl,1,train
2576.6360759735107,1,3,5,0,2,4,H-,1,4,5,0,1000,250.0,4,c32jhc32jhl,2,train
1296.6809272766113,1,3,5,0,2,4,H-,1,0,3,0,1000,250.0,0,c32jhc32jhl,3,train
1152.569055557251,1,3,5,0,2,4,H-,1,3,1,0,1000,250.0,3,c32jhc32jhl,4,train
1633.16011428833,1,3,5,0,2,4,H-,1,0,3,0,1000,250.0,0,c32jhc32jhl,5,train
1584.9809646606445,1,3,5,0,2,4,H-,1,1,0,0,1000,250.0,1,c32jhc32jhl,6,train
928.4758567810059,1,3,5,0,2,4,H-,1,3,1,0,1000,250.0,3,c32jhc32jhl,7,train
1264.3709182739258,1,3,5,0,2,4,H-,1,5,2,0,1000,250.0,5,c32jhc32jhl,8,train
976.1650562286377,1,3,5,0,2,4,H-,1,3,1,0,1000,250.0,3,c32jhc32jhl,9,train
1168.489933013916,1,3,5,0,2,4,H-,1,1,0,0,1000,250.0,1,c32jhc32jhl,10,train
624.5279312133789,1,3,5,0,2,4,H-,1,3,1,0,1000,250.0,3,c32jhc32jhl,11,train
753.0300617218018,1,3,5,0,2,4,H-,1,1,0,0,1000,250.0,1,c32jhc32jhl,12,train
1072.4611282348633,1,3,5,0,2,4,H-,1,1,0,0,1000,250.0,1,c32jhc32jhl,13,train
993.1588172912598,1,3,5,0,2,4,H-,1,4,5,0,1000,250.0,4,c32jhc32jhl,14,train
609.0390682220459,1,3,5,0,2,4,H-,1,5,2,0,1000,250.0,5,c32jhc32jhl,15,train
800.5979061126709,1,3,5,0,2,4,H-,1,5,2,0,1000,250.0,5,c32jhc32jhl,16,train
640.6619548797607,1,3,5,0,2,4,H-,1,4,5,0,1000,250.0,4,c32jhc32jhl,17,train
992.8848743438721,1,3,5,0,2,4,H-,1,1,0,0,1000,250.0,1,c32jhc32jhl,18,train
672.3611354827881,1,3,5,0,2,4,H-,1,5,2,0,1000,250.0,5,c32jhc32jhl,19,train
896.8830108642578,1,3,5,0,2,4,H-,1,3,1,0,1000,250.0,3,c32jhc32jhl,20,train
608.4690093994141,1,3,5,0,2,4,H-,1,1,0,0,1000,250.0,1,c32jhc32jhl,21,train
656.5759181976318,1,3,5,0,2,4,H-,1,5,2,0,1000,250.0,5,c32jhc32jhl,22,train
846.7080593109131,1,3,5,0,2,4,H-,1,1,0,0,1000,250.0,1,c32jhc32jhl,23,train
752.4318695068359,1,3,5,0,2,4,H-,1,5,2,0,1000,250.0,5,c32jhc32jhl,24,train
512.6199722290039,1,3,5,0,2,4,H-,0,0,3,0,1000,250.0,4,c32jhc32jhl,25,train
672.5690364837646,1,3,5,0,2,4,H-,1,0,3,0,1000,250.0,0,c32jhc32jhl,26,train
720.6909656524658,1,3,5,0,2,4,H-,1,3,1,0,1000,250.0,3,c32jhc32jhl,27,train
560.8739852905273,1,3,5,0,2,4,H-,1,5,2,0,1000,250.0,5,c32jhc32jhl,28,train
1024.7490406036377,1,3,5,0,2,4,H-,1,3,1,0,1000,250.0,3,c32jhc32jhl,29,train
912.1251106262207,1,3,5,0,2,4,H-,1,2,4,0,1000,250.0,2,c32jhc32jhl,30,train
560.4040622711182,1,3,5,0,2,4,H-,1,0,3,0,1000,250.0,0,c32jhc32jhl,31,train
960.280179977417,1,3,5,0,2,4,H-,1,2,4,0,1000,250.0,2,c32jhc32jhl,32,train
736.299991607666,1,3,5,0,2,4,H-,1,2,4,0,1000,250.0,2,c32jhc32jhl,33,train
688.5311603546143,1,3,5,0,2,4,H-,1,1,0,0,1000,250.0,1,c32jhc32jhl,34,train
705.0080299377441,1,3,5,0,2,4,H-,1,0,3,0,1000,250.0,0,c32jhc32jhl,35,train
750.5860328674316,1,3,5,0,2,4,H-,1,4,5,0,1000,250.0,4,c32jhc32jhl,36,train
609.1170310974121,1,3,5,0,2,4,H-,1,0,3,0,1000,250.0,0,c32jhc32jhl,37,train
800.5719184875488,1,3,5,0,2,4,H-,1,5,2,0,1000,250.0,5,c32jhc32jhl,38,train
1007.9450607299805,1,3,5,0,2,4,H-,1,1,0,0,1000,250.0,1,c32jhc32jhl,39,train
608.6559295654297,1,3,5,0,2,4,H-,1,5,2,0,1000,250.0,5,c32jhc32jhl,40,train
592.3810005187988,1,3,5,0,2,4,H-,1,5,2,0,1000,250.0,5,c32jhc32jhl,41,train
864.3720149993896,1,3,5,0,2,4,H-,1,5,2,0,1000,250.0,5,c32jhc32jhl,42,train
769.0930366516113,1,3,5,0,2,4,H-,1,5,2,0,1000,250.0,5,c32jhc32jhl,43,train
768.435001373291,1,3,5,0,2,4,H-,1,4,5,0,1000,250.0,4,c32jhc32jhl,44,train
672.9199886322021,1,3,5,0,2,4,H-,1,5,2,0,1000,250.0,5,c32jhc32jhl,45,train
688.4698867797852,1,3,5,0,2,4,H-,1,3,1,0,1000,250.0,3,c32jhc32jhl,46,train
625.1699924468994,1,3,5,0,2,4,H-,1,4,5,0,1000,250.0,4,c32jhc32jhl,47,train
737.0009422302246,1,3,5,0,2,4,H-,0,2,4,0,1000,250.0,1,c32jhc32jhl,48,train
608.5689067840576,1,3,5,0,2,4,H-,1,0,3,0,1000,250.0,0,c32jhc32jhl,49,train
721.1039066314697,1,3,5,0,2,4,H-,1,5,2,0,1000,250.0,5,c32jhc32jhl,50,train
608.9620590209961,1,3,5,0,2,4,H-,1,4,5,0,1000,250.0,4,c32jhc32jhl,51,train
592.7779674530029,1,3,5,0,2,4,H-,1,0,3,0,1000,250.0,0,c32jhc32jhl,52,train
464.587926864624,1,3,5,0,2,4,H-,0,2,4,0,1000,250.0,1,c32jhc32jhl,53,train
592.7059650421143,1,3,5,0,2,4,H-,1,2,4,0,1000,250.0,2,c32jhc32jhl,54,train
576.617956161499,1,3,5,0,2,4,H-,1,2,4,0,1000,250.0,2,c32jhc32jhl,55,train
561.0110759735107,1,3,5,0,2,4,H-,1,2,4,0,1000,250.0,2,c32jhc32jhl,56,train
753.0210018157959,1,3,5,0,2,4,H-,1,4,5,0,1000,250.0,4,c32jhc32jhl,57,train
464.35093879699707,1,3,5,0,2,4,H-,1,2,4,0,1000,250.0,2,c32jhc32jhl,58,train
1057.0151805877686,1,3,5,0,2,4,H-,1,4,5,0,1000,250.0,4,c32jhc32jhl,59,train
641.0260200500488,1,3,5,0,2,4,H-,1,0,3,0,1000,250.0,0,c32jhc32jhl,60,train
592.5390720367432,1,3,5,0,2,4,H-,1,5,2,0,1000,250.0,5,c32jhc32jhl,61,train
640.5332088470459,1,3,5,0,2,4,H-,1,5,2,0,1000,250.0,5,c32jhc32jhl,62,train
464.3731117248535,1,3,5,0,2,4,H-,1,5,2,0,1000,250.0,5,c32jhc32jhl,63,train
593.0910110473633,1,3,5,0,2,4,H-,1,3,1,0,1000,250.0,3,c32jhc32jhl,64,train
464.52999114990234,1,3,5,0,2,4,H-,1,3,1,0,1000,250.0,3,c32jhc32jhl,65,train
1073.1141567230225,1,3,5,0,2,4,H-,1,1,0,0,1000,250.0,1,c32jhc32jhl,66,train
544.4860458374023,1,3,5,0,2,4,H-,1,4,5,0,1000,250.0,4,c32jhc32jhl,67,train
576.7149925231934,1,3,5,0,2,4,H-,1,2,4,0,1000,250.0,2,c32jhc32jhl,68,train
720.778226852417,1,3,5,0,2,4,H-,1,5,2,0,1000,250.0,5,c32jhc32jhl,69,train
480.98206520080566,1,3,5,0,2,4,H-,1,5,2,0,1000,250.0,5,c32jhc32jhl,70,train
496.2799549102783,1,3,5,0,2,4,H-,1,3,1,0,1000,250.0,3,c32jhc32jhl,71,train
704.2129039764404,1,3,5,0,2,4,H-,1,2,4,0,1000,250.0,2,c32jhc32jhl,72,train
416.89491271972656,1,3,5,0,2,4,H-,0,0,3,0,1000,250.0,5,c32jhc32jhl,73,train
577.0061016082764,1,3,5,0,2,4,H-,1,0,3,0,1000,250.0,0,c32jhc32jhl,74,train
481.02402687072754,1,3,5,0,2,4,H-,1,0,3,0,1000,250.0,0,c32jhc32jhl,75,train
432.37996101379395,1,3,5,0,2,4,H-,1,0,3,0,1000,250.0,0,c32jhc32jhl,76,train
945.0721740722656,1,3,5,0,2,4,H-,1,1,0,0,1000,250.0,1,c32jhc32jhl,77,train
576.9531726837158,1,3,5,0,2,4,H-,1,0,3,0,1000,250.0,0,c32jhc32jhl,78,train
640.7749652862549,1,3,5,0,2,4,H-,1,3,1,0,1000,250.0,3,c32jhc32jhl,79,train
513.0751132965088,1,3,5,0,2,4,H-,1,0,3,0,1000,250.0,0,c32jhc32jhl,80,train
545.0589656829834,1,3,5,0,2,4,H-,1,5,2,0,1000,250.0,5,c32jhc32jhl,81,train
800.5008697509766,1,3,5,0,2,4,H-,1,4,5,0,1000,250.0,4,c32jhc32jhl,82,train
544.5430278778076,1,3,5,0,2,4,H-,1,0,3,0,1000,250.0,0,c32jhc32jhl,83,train
464.89500999450684,1,3,5,0,2,4,H-,1,0,3,0,1000,250.0,0,c32jhc32jhl,84,train
592.846155166626,1,3,5,0,2,4,H-,1,0,3,0,1000,250.0,0,c32jhc32jhl,85,train
416.9178009033203,1,3,5,0,2,4,H-,1,0,3,0,1000,250.0,0,c32jhc32jhl,86,train
496.98710441589355,1,3,5,0,2,4,H-,1,3,1,0,1000,250.0,3,c32jhc32jhl,87,train
560.9900951385498,1,3,5,0,2,4,H-,1,4,5,0,1000,250.0,4,c32jhc32jhl,88,train
720.2730178833008,1,3,5,0,2,4,H-,1,4,5,0,1000,250.0,4,c32jhc32jhl,89,train
625.0870227813721,1,3,5,0,2,4,H-,1,1,0,0,1000,250.0,1,c32jhc32jhl,90,train
513.0541324615479,1,3,5,0,2,4,H-,1,0,3,0,1000,250.0,0,c32jhc32jhl,91,train
705.035924911499,1,3,5,0,2,4,H-,1,2,4,0,1000,250.0,2,c32jhc32jhl,92,train
512.3369693756104,1,3,5,0,2,4,H-,1,0,3,0,1000,250.0,0,c32jhc32jhl,93,train
656.8779945373535,1,3,5,0,2,4,H-,1,5,2,0,1000,250.0,5,c32jhc32jhl,94,train
704.8201560974121,1,3,5,0,2,4,H-,1,1,0,0,1000,250.0,1,c32jhc32jhl,95,train
528.1929969787598,1,3,5,0,2,4,H-,1,2,4,0,1000,250.0,2,c32jhc32jhl,96,train
608.5379123687744,1,3,5,0,2,4,H-,1,3,1,0,1000,250.0,3,c32jhc32jhl,97,train
481.0140132904053,1,3,5,0,2,4,H-,1,5,2,0,1000,250.0,5,c32jhc32jhl,98,train
481.1360836029053,1,3,5,0,2,4,H-,0,3,1,0,1000,250.0,2,c32jhc32jhl,99,train
512.9070281982422,1,3,5,0,2,4,H-,1,5,2,0,1000,250.0,5,c32jhc32jhl,100,train
384.6399784088135,1,3,5,0,2,4,H-,1,3,1,0,1000,250.0,3,c32jhc32jhl,101,train
400.8162021636963,1,3,5,0,2,4,H-,0,0,3,0,1000,250.0,4,c32jhc32jhl,102,train
864.3748760223389,1,3,5,0,2,4,H-,1,1,0,0,1000,250.0,1,c32jhc32jhl,103,train
1136.7909908294678,1,3,5,0,2,4,H-,1,5,2,0,1000,250.0,5,c32jhc32jhl,104,train
560.7991218566895,1,3,5,0,2,4,H-,1,3,1,0,1000,250.0,3,c32jhc32jhl,105,train
480.85808753967285,1,3,5,0,2,4,H-,1,5,2,0,1000,250.0,5,c32jhc32jhl,106,train
832.9401016235352,1,3,5,0,2,4,H-,1,4,5,0,1000,250.0,4,c32jhc32jhl,107,train
432.9979419708252,1,3,5,0,2,4,H-,1,0,3,0,1000,250.0,0,c32jhc32jhl,108,train
368.7629699707031,1,3,5,0,2,4,H-,1,3,1,0,1000,250.0,3,c32jhc32jhl,109,train
512.5761032104492,1,3,5,0,2,4,H-,0,2,4,0,1000,250.0,1,c32jhc32jhl,110,train
560.9040260314941,1,3,5,0,2,4,H-,1,0,3,0,1000,250.0,0,c32jhc32jhl,111,train
624.7549057006836,1,3,5,0,2,4,H-,1,5,2,0,1000,250.0,5,c32jhc32jhl,112,train
528.5868644714355,1,3,5,0,2,4,H-,1,4,5,0,1000,250.0,4,c32jhc32jhl,113,train
449.18107986450195,1,3,5,0,2,4,H-,1,3,1,0,1000,250.0,3,c32jhc32jhl,114,train
544.7900295257568,1,3,5,0,2,4,H-,1,0,3,0,1000,250.0,0,c32jhc32jhl,115,train
496.2940216064453,1,3,5,0,2,4,H-,1,5,2,0,1000,250.0,5,c32jhc32jhl,116,train
817.0070648193359,1,3,5,0,2,4,H-,1,3,1,0,1000,250.0,3,c32jhc32jhl,117,train
544.9838638305664,1,3,5,0,2,4,H-,1,5,2,0,1000,250.0,5,c32jhc32jhl,118,train
433.1691265106201,1,3,5,0,2,4,H-,1,3,1,0,1000,250.0,3,c32jhc32jhl,119,train
656.8260192871094,1,3,5,0,2,4,H-,1,2,4,0,1000,250.0,2,c32jhc32jhl,120,train
496.4179992675781,1,3,5,0,2,4,H-,1,2,4,0,1000,250.0,2,c32jhc32jhl,121,train
608.9978218078613,1,3,5,0,2,4,H-,1,5,2,0,1000,250.0,5,c32jhc32jhl,122,train
320.85490226745605,1,3,5,0,2,4,H-,1,3,1,0,1000,250.0,3,c32jhc32jhl,123,train
448.35591316223145,1,3,5,0,2,4,H-,1,4,5,0,1000,250.0,4,c32jhc32jhl,124,train
433.17508697509766,1,3,5,0,2,4,H-,1,3,1,0,1000,250.0,3,c32jhc32jhl,125,train
369.04001235961914,1,3,5,0,2,4,H-,1,2,4,0,1000,250.0,2,c32jhc32jhl,126,train
481.08911514282227,1,3,5,0,2,4,H-,1,5,2,0,1000,250.0,5,c32jhc32jhl,127,train
608.6080074310303,1,3,5,0,2,4,H-,1,0,3,0,1000,250.0,0,c32jhc32jhl,128,train
689.0339851379395,1,3,5,0,2,4,H-,1,1,0,0,1000,250.0,1,c32jhc32jhl,129,train
512.9268169403076,1,3,5,0,2,4,H-,1,5,2,0,1000,250.0,5,c32jhc32jhl,130,train
609.0290546417236,1,3,5,0,2,4,H-,1,4,5,0,1000,250.0,4,c32jhc32jhl,131,train
512.7730369567871,1,3,5,0,2,4,H-,1,3,1,0,1000,250.0,3,c32jhc32jhl,132,train
416.8739318847656,1,3,5,0,2,4,H-,1,5,2,0,1000,250.0,5,c32jhc32jhl,133,train
352.80299186706543,1,3,5,0,2,4,H-,1,3,1,0,1000,250.0,3,c32jhc32jhl,134,train
849.1449356079102,1,3,5,0,2,4,H-,1,1,0,0,1000,250.0,1,c32jhc32jhl,135,train
640.9170627593994,1,3,5,0,2,4,H-,1,5,2,0,1000,250.0,5,c32jhc32jhl,136,train
591.217041015625,1,3,5,0,2,4,H-,1,0,3,0,1000,250.0,0,c32jhc32jhl,137,train
288.87486457824707,1,3,5,0,2,4,H-,1,3,1,0,1000,250.0,3,c32jhc32jhl,138,train
592.7708148956299,1,3,5,0,2,4,H-,1,4,5,0,1000,250.0,4,c32jhc32jhl,139,train
592.6380157470703,1,3,5,0,2,4,H-,1,0,3,0,1000,250.0,0,c32jhc32jhl,140,train
464.3981456756592,1,3,5,0,2,4,H-,1,3,1,0,1000,250.0,3,c32jhc32jhl,141,train
592.7920341491699,1,3,5,0,2,4,H-,1,0,3,0,1000,250.0,0,c32jhc32jhl,142,train
528.386116027832,1,3,5,0,2,4,H-,1,5,2,0,1000,250.0,5,c32jhc32jhl,143,train
513.0469799041748,1,3,5,0,2,4,H-,1,5,2,0,1000,250.0,5,c32jhc32jhl,144,train
704.334020614624,1,3,5,0,2,4,H-,0,1,0,0,1000,250.0,4,c32jhc32jhl,145,train
544.9550151824951,1,3,5,0,2,4,H-,1,2,4,0,1000,250.0,2,c32jhc32jhl,146,train
560.2400302886963,1,3,5,0,2,4,H-,1,0,3,0,1000,250.0,0,c32jhc32jhl,147,train
560.0171089172363,1,3,5,0,2,4,H-,1,5,2,0,1000,250.0,5,c32jhc32jhl,148,train
496.8578815460205,1,3,5,0,2,4,H-,1,5,2,0,1000,250.0,5,c32jhc32jhl,149,train
608.3438396453857,1,3,5,0,2,4,H-,1,1,0,0,1000,250.0,1,c32jhc32jhl,150,train
544.6219444274902,1,3,5,0,2,4,H-,1,0,3,0,1000,250.0,0,c32jhc32jhl,151,train
527.9600620269775,1,3,5,0,2,4,H-,1,4,5,0,1000,250.0,4,c32jhc32jhl,152,train
576.9100189208984,1,3,5,0,2,4,H-,1,2,4,0,1000,250.0,2,c32jhc32jhl,153,train
464.80298042297363,1,3,5,0,2,4,H-,1,2,4,0,1000,250.0,2,c32jhc32jhl,154,train
592.5319194793701,1,3,5,0,2,4,H-,1,5,2,0,1000,250.0,5,c32jhc32jhl,155,train
576.9760608673096,1,3,5,0,2,4,H-,1,0,3,0,1000,250.0,0,c32jhc32jhl,156,train
592.8499698638916,1,3,5,0,2,4,H-,1,2,4,0,1000,250.0,2,c32jhc32jhl,157,train
625.053882598877,1,3,5,0,2,4,H-,1,4,5,0,1000,250.0,4,c32jhc32jhl,158,train
560.9219074249268,1,3,5,0,2,4,H-,1,3,1,0,1000,250.0,3,c32jhc32jhl,159,train
608.9651584625244,1,3,5,0,2,4,H-,1,2,4,0,1000,250.0,2,c32jhc32jhl,160,train
544.9259281158447,1,3,5,0,2,4,H-,1,0,3,0,1000,250.0,0,c32jhc32jhl,161,train
625.042200088501,1,3,5,0,2,4,H-,1,4,5,0,1000,250.0,4,c32jhc32jhl,162,train
527.9920101165771,1,3,5,0,2,4,H-,1,3,1,0,1000,250.0,3,c32jhc32jhl,163,train
688.7760162353516,1,3,5,0,2,4,H-,1,0,3,0,1000,250.0,0,c32jhc32jhl,164,train
528.1789302825928,1,3,5,0,2,4,H-,1,3,1,0,1000,250.0,3,c32jhc32jhl,165,train
560.4128837585449,1,3,5,0,2,4,H-,1,1,0,0,1000,250.0,1,c32jhc32jhl,166,train
528.9850234985352,1,3,5,0,2,4,H-,0,4,5,0,1000,250.0,2,c32jhc32jhl,167,train
848.7629890441895,1,3,5,0,2,4,H-,1,5,2,0,1000,250.0,5,c32jhc32jhl,168,train
432.3399066925049,1,3,5,0,2,4,H-,1,4,5,0,1000,250.0,4,c32jhc32jhl,169,train
704.8079967498779,1,3,5,0,2,4,H-,1,1,0,0,1000,250.0,1,c32jhc32jhl,170,train
464.630126953125,1,3,5,0,2,4,H-,1,1,0,0,1000,250.0,1,c32jhc32jhl,171,train
609.0178489685059,1,3,5,0,2,4,H-,1,5,2,0,1000,250.0,5,c32jhc32jhl,172,train
480.4801940917969,1,3,5,0,2,4,H-,1,5,2,0,1000,250.0,5,c32jhc32jhl,173,train
401.01099014282227,1,3,5,0,2,4,H-,1,3,1,0,1000,250.0,3,c32jhc32jhl,174,train
672.8968620300293,1,3,5,0,2,4,H-,1,1,0,0,1000,250.0,1,c32jhc32jhl,175,train
576.8539905548096,1,3,5,0,2,4,H-,1,5,2,0,1000,250.0,5,c32jhc32jhl,176,train
560.4710578918457,1,3,5,0,2,4,H-,1,1,0,0,1000,250.0,1,c32jhc32jhl,177,train
753.040075302124,1,3,5,0,2,4,H-,1,1,0,0,1000,250.0,1,c32jhc32jhl,178,train
625.1809597015381,1,3,5,0,2,4,H-,1,0,3,0,1000,250.0,0,c32jhc32jhl,179,train
656.710147857666,1,3,5,0,2,4,H-,0,4,5,0,1000,250.0,0,c32jhc32jhl,180,train
480.79895973205566,1,3,5,0,2,4,H-,1,4,5,0,1000,250.0,4,c32jhc32jhl,181,train
544.3019866943359,1,3,5,0,2,4,H-,1,0,3,0,1000,250.0,0,c32jhc32jhl,182,train
545.1149940490723,1,3,5,0,2,4,H-,1,4,5,0,1000,250.0,4,c32jhc32jhl,183,train
496.95897102355957,1,3,5,0,2,4,H-,1,3,1,0,1000,250.0,3,c32jhc32jhl,184,train
416.31102561950684,1,3,5,0,2,4,H-,1,5,2,0,1000,250.0,5,c32jhc32jhl,185,train
736.9358539581299,1,3,5,0,2,4,H-,1,2,4,0,1000,250.0,2,c32jhc32jhl,186,train
560.546875,1,3,5,0,2,4,H-,1,5,2,0,1000,250.0,5,c32jhc32jhl,187,train
1296.5850830078125,1,3,5,0,2,4,H-,1,0,3,0,1000,250.0,0,c32jhc32jhl,188,train
656.4421653747559,1,3,5,0,2,4,H-,1,2,4,0,1000,250.0,2,c32jhc32jhl,189,train
560.9779357910156,1,3,5,0,2,4,H-,1,0,3,0,1000,250.0,0,c32jhc32jhl,190,train
689.0249252319336,1,3,5,0,2,4,H-,1,2,4,0,1000,250.0,2,c32jhc32jhl,191,train
544.8610782623291,1,3,5,0,2,4,H-,1,3,1,0,1000,250.0,3,c32jhc32jhl,192,train
512.9060745239258,1,3,5,0,2,4,H-,1,0,3,0,1000,250.0,0,c32jhc32jhl,193,train
384.86313819885254,1,3,5,0,2,4,H-,1,5,2,0,1000,250.0,5,c32jhc32jhl,194,train
593.0280685424805,1,3,5,0,2,4,H-,1,4,5,0,1000,250.0,4,c32jhc32jhl,195,train
592.4937725067139,1,3,5,0,2,4,H-,1,1,0,0,1000,250.0,1,c32jhc32jhl,196,train
448.90689849853516,1,3,5,0,2,4,H-,1,4,5,0,1000,250.0,4,c32jhc32jhl,197,train
448.0879306793213,1,3,5,0,2,4,H-,1,3,1,0,1000,250.0,3,c32jhc32jhl,198,train
576.9269466400146,1,3,5,0,2,4,H-,1,3,1,0,1000,250.0,3,c32jhc32jhl,199,train
977.0729541778564,1,3,5,0,2,4,H-,1,1,0,0,1000,250.0,1,c32jhc32jhl,200,train
528.9180278778076,1,3,5,0,2,4,H-,1,2,4,0,1000,250.0,2,c32jhc32jhl,201,train
592.858076095581,1,3,5,0,2,4,H-,1,3,1,0,1000,250.0,3,c32jhc32jhl,202,train
1456.9239616394043,1,3,5,0,2,4,H-,1,0,3,0,1000,250.0,0,c32jhc32jhl,203,train
480.6818962097168,1,3,5,0,2,4,H-,1,0,3,0,1000,250.0,0,c32jhc32jhl,204,train
416.9960021972656,1,3,5,0,2,4,H-,1,5,2,0,1000,250.0,5,c32jhc32jhl,205,train
480.7889461517334,1,3,5,0,2,4,H-,1,4,5,0,1000,250.0,4,c32jhc32jhl,206,train
560.2660179138184,1,3,5,0,2,4,H-,1,0,3,0,1000,250.0,0,c32jhc32jhl,207,train
528.7699699401855,1,3,5,0,2,4,H-,1,4,5,0,1000,250.0,4,c32jhc32jhl,208,train
945.1220035552979,1,3,5,0,2,4,H-,1,1,0,0,1000,250.0,1,c32jhc32jhl,209,train
545.0448989868164,1,3,5,0,2,4,H-,1,2,4,0,1000,250.0,2,c32jhc32jhl,210,train
736.8848323822021,1,3,5,0,2,4,H-,1,0,3,0,1000,250.0,0,c32jhc32jhl,211,train
496.9639778137207,1,3,5,0,2,4,H-,1,5,2,0,1000,250.0,5,c32jhc32jhl,212,train
432.9512119293213,1,3,5,0,2,4,H-,1,5,2,0,1000,250.0,5,c32jhc32jhl,213,train
480.90100288391113,1,3,5,0,2,4,H-,1,0,3,0,1000,250.0,0,c32jhc32jhl,214,train
656.8748950958252,1,3,5,0,2,4,H-,0,4,5,0,1000,250.0,2,c32jhc32jhl,215,train
528.2840728759766,1,3,5,0,2,4,H-,1,0,3,0,1000,250.0,0,c32jhc32jhl,216,train
544.9221134185791,1,3,5,0,2,4,H-,1,5,2,0,1000,250.0,5,c32jhc32jhl,217,train
496.81806564331055,1,3,5,0,2,4,H-,1,4,5,0,1000,250.0,4,c32jhc32jhl,218,train
560.8780384063721,1,3,5,0,2,4,H-,1,5,2,0,1000,250.0,5,c32jhc32jhl,219,train
544.8610782623291,1,3,5,0,2,4,H-,1,4,5,0,1000,250.0,4,c32jhc32jhl,220,train
432.68704414367676,1,3,5,0,2,4,H-,0,0,3,0,1000,250.0,5,c32jhc32jhl,221,train
512.6810073852539,1,3,5,0,2,4,H-,1,3,1,0,1000,250.0,3,c32jhc32jhl,222,train
495.6669807434082,1,3,5,0,2,4,H-,1,3,1,0,1000,250.0,3,c32jhc32jhl,223,train
448.49681854248047,1,3,5,0,2,4,H-,1,4,5,0,1000,250.0,4,c32jhc32jhl,224,train
529.1578769683838,1,3,5,0,2,4,H-,1,1,0,0,1000,250.0,1,c32jhc32jhl,225,train
545.0198650360107,1,3,5,0,2,4,H-,1,3,1,0,1000,250.0,3,c32jhc32jhl,226,train
528.8770198822021,1,3,5,0,2,4,H-,1,2,4,0,1000,250.0,2,c32jhc32jhl,227,train
656.8429470062256,1,3,5,0,2,4,H-,1,1,0,0,1000,250.0,1,c32jhc32jhl,228,train
480.7760715484619,1,3,5,0,2,4,H-,1,2,4,0,1000,250.0,2,c32jhc32jhl,229,train
480.942964553833,1,3,5,0,2,4,H-,1,1,0,0,1000,250.0,1,c32jhc32jhl,230,train
529.1481018066406,1,3,5,0,2,4,H-,1,1,0,0,1000,250.0,1,c32jhc32jhl,231,train
609.058141708374,1,3,5,0,2,4,H-,1,5,2,0,1000,250.0,5,c32jhc32jhl,232,train
593.0240154266357,1,3,5,0,2,4,H-,1,0,3,0,1000,250.0,0,c32jhc32jhl,233,train
576.8740177154541,1,3,5,0,2,4,H-,1,0,3,0,1000,250.0,0,c32jhc32jhl,234,train
704.1261196136475,1,3,5,0,2,4,H-,1,1,0,0,1000,250.0,1,c32jhc32jhl,235,train
560.9829425811768,1,3,5,0,2,4,H-,1,0,3,0,1000,250.0,0,c32jhc32jhl,236,train
544.9740886688232,1,3,5,0,2,4,H-,1,3,1,0,1000,250.0,3,c32jhc32jhl,237,train
496.9198703765869,1,3,5,0,2,4,H-,1,5,2,0,1000,250.0,5,c32jhc32jhl,238,train
527.8620719909668,1,3,5,0,2,4,H-,1,0,3,0,1000,250.0,0,c32jhc32jhl,239,train
592.5300121307373,1,3,5,0,2,4,H-,1,1,0,0,1000,250.0,1,c32jhc32jhl,240,train
656.9681167602539,1,3,5,0,2,4,H-,1,4,5,0,1000,250.0,4,c32jhc32jhl,241,train
496.81615829467773,1,3,5,0,2,4,H-,1,4,5,0,1000,250.0,4,c32jhc32jhl,242,train
606.438159942627,1,3,5,0,2,4,H-,1,1,0,0,1000,250.0,1,c32jhc32jhl,243,train
592.7479267120361,1,3,5,0,2,4,H-,1,3,1,0,1000,250.0,3,c32jhc32jhl,244,train
448.6889839172363,1,3,5,0,2,4,H-,1,5,2,0,1000,250.0,5,c32jhc32jhl,245,train
512.9120349884033,1,3,5,0,2,4,H-,1,0,3,0,1000,250.0,0,c32jhc32jhl,246,train
528.9170742034912,1,3,5,0,2,4,H-,1,0,3,0,1000,250.0,0,c32jhc32jhl,247,train
577.0528316497803,1,3,5,0,2,4,H-,1,2,4,0,1000,250.0,2,c32jhc32jhl,248,train
513.1111145019531,1,3,5,0,2,4,H-,1,4,5,0,1000,250.0,4,c32jhc32jhl,249,train
784.9209308624268,5,3,0,2,1,4,H-,1,3,1,0,1000,250.0,3,c32jhc32jhl,250,test
1328.8698196411133,5,3,0,2,1,4,H-,1,5,0,0,1000,250.0,5,c32jhc32jhl,251,test
880.8610439300537,5,3,0,2,1,4,H-,1,1,4,0,1000,250.0,1,c32jhc32jhl,252,test
992.9149150848389,5,3,0,2,1,4,H-,1,5,0,0,1000,250.0,5,c32jhc32jhl,253,test
1296.194076538086,5,3,0,2,1,4,H-,1,5,0,0,1000,250.0,5,c32jhc32jhl,254,test
848.8500118255615,5,3,0,2,1,4,H-,1,5,0,0,1000,250.0,5,c32jhc32jhl,255,test
625.0898838043213,5,3,0,2,1,4,H-,0,1,4,0,1000,250.0,2,c32jhc32jhl,256,test
896.9759941101074,5,3,0,2,1,4,H-,1,3,1,0,1000,250.0,3,c32jhc32jhl,257,test
878.7140846252441,5,3,0,2,1,4,H-,1,5,0,0,1000,250.0,5,c32jhc32jhl,258,test
783.4141254425049,5,3,0,2,1,4,H-,1,5,0,0,1000,250.0,5,c32jhc32jhl,259,test
1168.80202293396,5,3,0,2,1,4,H-,1,0,2,0,1000,250.0,0,c32jhc32jhl,260,test
928.8589954376221,5,3,0,2,1,4,H-,1,1,4,0,1000,250.0,1,c32jhc32jhl,261,test
896.9039916992188,5,3,0,2,1,4,H-,1,0,2,0,1000,250.0,0,c32jhc32jhl,262,test
608.1399917602539,5,3,0,2,1,4,H-,1,1,4,0,1000,250.0,1,c32jhc32jhl,263,test
736.8800640106201,5,3,0,2,1,4,H-,1,5,0,0,1000,250.0,5,c32jhc32jhl,264,test
608.2909107208252,5,3,0,2,1,4,H-,1,0,2,0,1000,250.0,0,c32jhc32jhl,265,test
400.9208679199219,5,3,0,2,1,4,H-,0,4,5,0,1000,250.0,5,c32jhc32jhl,266,test
480.9079170227051,5,3,0,2,1,4,H-,1,3,1,0,1000,250.0,3,c32jhc32jhl,267,test
832.9689502716064,5,3,0,2,1,4,H-,1,5,0,0,1000,250.0,5,c32jhc32jhl,268,test
912.9290580749512,5,3,0,2,1,4,H-,1,5,0,0,1000,250.0,5,c32jhc32jhl,269,test
561.0051155090332,5,3,0,2,1,4,H-,0,2,3,0,1000,250.0,4,c32jhc32jhl,270,test
448.82702827453613,5,3,0,2,1,4,H-,1,3,1,0,1000,250.0,3,c32jhc32jhl,271,test
560.1639747619629,5,3,0,2,1,4,H-,1,0,2,0,1000,250.0,0,c32jhc32jhl,272,test
833.1060409545898,5,3,0,2,1,4,H-,1,2,3,0,1000,250.0,2,c32jhc32jhl,273,test
785.1681709289551,5,3,0,2,1,4,H-,1,5,0,0,1000,250.0,5,c32jhc32jhl,274,test
560.8808994293213,5,3,0,2,1,4,H-,0,5,0,0,1000,250.0,4,c32jhc32jhl,275,test
672.9810237884521,5,3,0,2,1,4,H-,1,1,4,0,1000,250.0,1,c32jhc32jhl,276,test
640.8579349517822,5,3,0,2,1,4,H-,1,4,5,0,1000,250.0,4,c32jhc32jhl,277,test
672.9838848114014,5,3,0,2,1,4,H-,1,2,3,0,1000,250.0,2,c32jhc32jhl,278,test
480.820894241333,5,3,0,2,1,4,H-,1,2,3,0,1000,250.0,2,c32jhc32jhl,279,test
624.9148845672607,5,3,0,2,1,4,H-,1,3,1,0,1000,250.0,3,c32jhc32jhl,280,test
624.9151229858398,5,3,0,2,1,4,H-,1,1,4,0,1000,250.0,1,c32jhc32jhl,281,test
544.9378490447998,5,3,0,2,1,4,H-,1,3,1,0,1000,250.0,3,c32jhc32jhl,282,test
496.7920780181885,5,3,0,2,1,4,H-,0,2,3,0,1000,250.0,4,c32jhc32jhl,283,test
496.5629577636719,5,3,0,2,1,4,H-,1,3,1,0,1000,250.0,3,c32jhc32jhl,284,test
657.1328639984131,5,3,0,2,1,4,H-,1,2,3,0,1000,250.0,2,c32jhc32jhl,285,test
608.4368228912354,5,3,0,2,1,4,H-,1,0,2,0,1000,250.0,0,c32jhc32jhl,286,test
398.709774017334,5,3,0,2,1,4,H-,1,1,4,0,1000,250.0,1,c32jhc32jhl,287,test
496.6621398925781,5,3,0,2,1,4,H-,1,4,5,0,1000,250.0,4,c32jhc32jhl,288,test
816.9889450073242,5,3,0,2,1,4,H-,1,2,3,0,1000,250.0,2,c32jhc32jhl,289,test
448.8818645477295,5,3,0,2,1,4,H-,1,0,2,0,1000,250.0,0,c32jhc32jhl,290,test
512.753963470459,5,3,0,2,1,4,H-,1,4,5,0,1000,250.0,4,c32jhc32jhl,291,test
526.5359878540039,5,3,0,2,1,4,H-,1,3,1,0,1000,250.0,3,c32jhc32jhl,292,test
560.7790946960449,5,3,0,2,1,4,H-,1,0,2,0,1000,250.0,0,c32jhc32jhl,293,test
512.9120349884033,5,3,0,2,1,4,H-,1,3,1,0,1000,250.0,3,c32jhc32jhl,294,test
497.48897552490234,5,3,0,2,1,4,H-,1,3,1,0,1000,250.0,3,c32jhc32jhl,295,test
1425.0128269195557,5,3,0,2,1,4,H-,1,1,4,0,1000,250.0,1,c32jhc32jhl,296,test
528.9289951324463,5,3,0,2,1,4,H-,1,0,2,0,1000,250.0,0,c32jhc32jhl,297,test
430.7699203491211,5,3,0,2,1,4,H-,1,3,1,0,1000,250.0,3,c32jhc32jhl,298,test
608.8941097259521,5,3,0,2,1,4,H-,0,2,3,0,1000,250.0,1,c32jhc32jhl,299,test
528.825044631958,5,3,0,2,1,4,H-,1,1,4,0,1000,250.0,1,c32jhc32jhl,300,test
576.9848823547363,5,3,0,2,1,4,H-,1,0,2,0,1000,250.0,0,c32jhc32jhl,301,test
448.1639862060547,5,3,0,2,1,4,H-,1,0,2,0,1000,250.0,0,c32jhc32jhl,302,test
752.9370784759521,5,3,0,2,1,4,H-,1,1,4,0,1000,250.0,1,c32jhc32jhl,303,test
400.19798278808594,5,3,0,2,1,4,H-,1,1,4,0,1000,250.0,1,c32jhc32jhl,304,test
526.6311168670654,5,3,0,2,1,4,H-,1,4,5,0,1000,250.0,4,c32jhc32jhl,305,test
576.956033706665,5,3,0,2,1,4,H-,1,0,2,0,1000,250.0,0,c32jhc32jhl,306,test
816.5810108184814,5,3,0,2,1,4,H-,1,5,0,0,1000,250.0,5,c32jhc32jhl,307,test
656.0618877410889,5,3,0,2,1,4,H-,0,0,2,0,1000,250.0,3,c32jhc32jhl,308,test
816.9310092926025,5,3,0,2,1,4,H-,1,2,3,0,1000,250.0,2,c32jhc32jhl,309,test
510.73598861694336,5,3,0,2,1,4,H-,1,0,2,0,1000,250.0,0,c32jhc32jhl,310,test
464.785099029541,5,3,0,2,1,4,H-,1,0,2,0,1000,250.0,0,c32jhc32jhl,311,test
1104.9060821533203,5,3,0,2,1,4,H-,1,5,0,0,1000,250.0,5,c32jhc32jhl,312,test
544.888973236084,5,3,0,2,1,4,H-,1,3,1,0,1000,250.0,3,c32jhc32jhl,313,test
464.97392654418945,5,3,0,2,1,4,H-,1,3,1,0,1000,250.0,3,c32jhc32jhl,314,test
576.9219398498535,5,3,0,2,1,4,H-,1,0,2,0,1000,250.0,0,c32jhc32jhl,315,test
992.1891689300537,5,3,0,2,1,4,H-,1,5,0,0,1000,250.0,5,c32jhc32jhl,316,test
542.5848960876465,5,3,0,2,1,4,H-,1,0,2,0,1000,250.0,0,c32jhc32jhl,317,test
477.91600227355957,5,3,0,2,1,4,H-,1,3,1,0,1000,250.0,3,c32jhc32jhl,318,test
593.717098236084,5,3,0,2,1,4,H-,1,1,4,0,1000,250.0,1,c32jhc32jhl,319,test
592.8299427032471,5,3,0,2,1,4,H-,1,5,0,0,1000,250.0,5,c32jhc32jhl,320,test
672.6069450378418,5,3,0,2,1,4,H-,1,2,3,0,1000,250.0,2,c32jhc32jhl,321,test
512.8979682922363,5,3,0,2,1,4,H-,1,2,3,0,1000,250.0,2,c32jhc32jhl,322,test
560.8830451965332,5,3,0,2,1,4,H-,1,3,1,0,1000,250.0,3,c32jhc32jhl,323,test
480.93485832214355,5,3,0,2,1,4,H-,1,0,2,0,1000,250.0,0,c32jhc32jhl,324,test
480.9868335723877,5,3,0,2,1,4,H-,1,2,3,0,1000,250.0,2,c32jhc32jhl,325,test
352.6768684387207,5,3,0,2,1,4,H-,1,3,1,0,1000,250.0,3,c32jhc32jhl,326,test
688.8570785522461,5,3,0,2,1,4,H-,1,5,0,0,1000,250.0,5,c32jhc32jhl,327,test
720.8471298217773,5,3,0,2,1,4,H-,1,1,4,0,1000,250.0,1,c32jhc32jhl,328,test
593.0800437927246,5,3,0,2,1,4,H-,1,0,2,0,1000,250.0,0,c32jhc32jhl,329,test
640.887975692749,5,3,0,2,1,4,H-,1,2,3,0,1000,250.0,2,c32jhc32jhl,330,test
416.8810844421387,5,3,0,2,1,4,H-,0,1,4,0,1000,250.0,3,c32jhc32jhl,331,test
577.1369934082031,5,3,0,2,1,4,H-,1,0,2,0,1000,250.0,0,c32jhc32jhl,332,test
686.8748664855957,5,3,0,2,1,4,H-,0,5,0,0,1000,250.0,2,c32jhc32jhl,333,test
576.9450664520264,5,3,0,2,1,4,H-,1,3,1,0,1000,250.0,3,c32jhc32jhl,334,test
431.1060905456543,5,3,0,2,1,4,H-,1,4,5,0,1000,250.0,4,c32jhc32jhl,335,test
400.8450508117676,5,3,0,2,1,4,H-,1,3,1,0,1000,250.0,3,c32jhc32jhl,336,test
353.06787490844727,5,3,0,2,1,4,H-,0,3,1,0,1000,250.0,4,c32jhc32jhl,337,test
336.7938995361328,5,3,0,2,1,4,H-,1,3,1,0,1000,250.0,3,c32jhc32jhl,338,test
576.8349170684814,5,3,0,2,1,4,H-,1,0,2,0,1000,250.0,0,c32jhc32jhl,339,test
559.9520206451416,5,3,0,2,1,4,H-,1,4,5,0,1000,250.0,4,c32jhc32jhl,340,test
464.9488925933838,5,3,0,2,1,4,H-,1,0,2,0,1000,250.0,0,c32jhc32jhl,341,test
433.15887451171875,5,3,0,2,1,4,H-,1,4,5,0,1000,250.0,4,c32jhc32jhl,342,test
593.0209159851074,5,3,0,2,1,4,H-,1,0,2,0,1000,250.0,0,c32jhc32jhl,343,test
560.9190464019775,5,3,0,2,1,4,H-,1,2,3,0,1000,250.0,2,c32jhc32jhl,344,test
622.6749420166016,5,3,0,2,1,4,H-,0,5,0,0,1000,250.0,1,c32jhc32jhl,345,test
512.4151706695557,5,3,0,2,1,4,H-,1,1,4,0,1000,250.0,1,c32jhc32jhl,346,test
656.7699909210205,5,3,0,2,1,4,H-,1,5,0,0,1000,250.0,5,c32jhc32jhl,347,test
432.8780174255371,5,3,0,2,1,4,H-,1,2,3,0,1000,250.0,2,c32jhc32jhl,348,test
497.0860481262207,5,3,0,2,1,4,H-,1,1,4,0,1000,250.0,1,c32jhc32jhl,349,test
590.6000137329102,5,3,0,2,1,4,H-,1,0,2,0,1000,250.0,0,c32jhc32jhl,350,test
512.6211643218994,5,3,0,2,1,4,H-,0,5,0,0,1000,250.0,1,c32jhc32jhl,351,test
736.3989353179932,5,3,0,2,1,4,H-,1,0,2,0,1000,250.0,0,c32jhc32jhl,352,test
416.81385040283203,5,3,0,2,1,4,H-,1,0,2,0,1000,250.0,0,c32jhc32jhl,353,test
112.77890205383301,5,3,0,2,1,4,H-,1,5,0,0,1000,250.0,5,c32jhc32jhl,354,test
784.9540710449219,5,3,0,2,1,4,H-,1,2,3,0,1000,250.0,2,c32jhc32jhl,355,test
513.2579803466797,5,3,0,2,1,4,H-,1,3,1,0,1000,250.0,3,c32jhc32jhl,356,test
529.0951728820801,5,3,0,2,1,4,H-,1,1,4,0,1000,250.0,1,c32jhc32jhl,357,test
544.9059009552002,5,3,0,2,1,4,H-,0,0,2,0,1000,250.0,3,c32jhc32jhl,358,test
544.1839694976807,5,3,0,2,1,4,H-,1,4,5,0,1000,250.0,4,c32jhc32jhl,359,test
368.45993995666504,5,3,0,2,1,4,H-,1,4,5,0,1000,250.0,4,c32jhc32jhl,360,test
400.8769989013672,5,3,0,2,1,4,H-,0,3,1,0,1000,250.0,2,c32jhc32jhl,361,test
353.15990447998047,5,3,0,2,1,4,H-,1,3,1,0,1000,250.0,3,c32jhc32jhl,362,test
544.9268817901611,5,3,0,2,1,4,H-,1,0,2,0,1000,250.0,0,c32jhc32jhl,363,test
351.75204277038574,5,3,0,2,1,4,H-,1,0,2,0,1000,250.0,0,c32jhc32jhl,364,test
557.319164276123,5,3,0,2,1,4,H-,1,1,4,0,1000,250.0,1,c32jhc32jhl,365,test
528.8879871368408,5,3,0,2,1,4,H-,1,4,5,0,1000,250.0,4,c32jhc32jhl,366,test
545.1180934906006,5,3,0,2,1,4,H-,1,0,2,0,1000,250.0,0,c32jhc32jhl,367,test
529.0060043334961,5,3,0,2,1,4,H-,1,4,5,0,1000,250.0,4,c32jhc32jhl,368,test
496.98710441589355,5,3,0,2,1,4,H-,1,4,5,0,1000,250.0,4,c32jhc32jhl,369,test
577.0730972290039,5,3,0,2,1,4,H-,1,0,2,0,1000,250.0,0,c32jhc32jhl,370,test
433.3679676055908,5,3,0,2,1,4,H-,1,3,1,0,1000,250.0,3,c32jhc32jhl,371,test
609.1248989105225,5,3,0,2,1,4,H-,0,5,0,0,1000,250.0,1,c32jhc32jhl,372,test
544.6398258209229,5,3,0,2,1,4,H-,1,5,0,0,1000,250.0,5,c32jhc32jhl,373,test
1072.5641250610352,5,3,0,2,1,4,H-,1,2,3,0,1000,250.0,2,c32jhc32jhl,374,test
688.9750957489014,5,3,0,2,1,4,H-,1,2,3,0,1000,250.0,2,c32jhc32jhl,375,test
512.8819942474365,5,3,0,2,1,4,H-,1,3,1,0,1000,250.0,3,c32jhc32jhl,376,test
432.3549270629883,5,3,0,2,1,4,H-,1,4,5,0,1000,250.0,4,c32jhc32jhl,377,test
497.07698822021484,5,3,0,2,1,4,H-,1,0,2,0,1000,250.0,0,c32jhc32jhl,378,test
576.9789218902588,5,3,0,2,1,4,H-,1,1,4,0,1000,250.0,1,c32jhc32jhl,379,test
624.9589920043945,5,3,0,2,1,4,H-,1,2,3,0,1000,250.0,2,c32jhc32jhl,380,test
478.53994369506836,5,3,0,2,1,4,H-,1,3,1,0,1000,250.0,3,c32jhc32jhl,381,test
528.9831161499023,5,3,0,2,1,4,H-,1,1,4,0,1000,250.0,1,c32jhc32jhl,382,test
544.0199375152588,5,3,0,2,1,4,H-,1,1,4,0,1000,250.0,1,c32jhc32jhl,383,test
414.1230583190918,5,3,0,2,1,4,H-,1,4,5,0,1000,250.0,4,c32jhc32jhl,384,test
545.0739860534668,5,3,0,2,1,4,H-,1,1,4,0,1000,250.0,1,c32jhc32jhl,385,test
592.5769805908203,5,3,0,2,1,4,H-,0,2,3,0,1000,250.0,1,c32jhc32jhl,386,test
784.8970890045166,5,3,0,2,1,4,H-,0,5,0,0,1000,250.0,1,c32jhc32jhl,387,test
640.8729553222656,5,3,0,2,1,4,H-,1,1,4,0,1000,250.0,1,c32jhc32jhl,388,test
1057.2171211242676,5,3,0,2,1,4,H-,1,5,0,0,1000,250.0,5,c32jhc32jhl,389,test
496.90985679626465,5,3,0,2,1,4,H-,1,1,4,0,1000,250.0,1,c32jhc32jhl,390,test
609.0240478515625,5,3,0,2,1,4,H-,1,5,0,0,1000,250.0,5,c32jhc32jhl,391,test
560.8839988708496,5,3,0,2,1,4,H-,1,2,3,0,1000,250.0,2,c32jhc32jhl,392,test
320.9969997406006,5,3,0,2,1,4,H-,1,2,3,0,1000,250.0,2,c32jhc32jhl,393,test
577.0249366760254,5,3,0,2,1,4,H-,1,1,4,0,1000,250.0,1,c32jhc32jhl,394,test
864.9129867553711,5,3,0,2,1,4,H-,1,0,2,0,1000,250.0,0,c32jhc32jhl,395,test
544.7549819946289,5,3,0,2,1,4,H-,1,4,5,0,1000,250.0,4,c32jhc32jhl,396,test
401.00812911987305,5,3,0,2,1,4,H-,0,0,2,0,1000,250.0,3,c32jhc32jhl,397,test
640.9850120544434,5,3,0,2,1,4,H-,1,1,4,0,1000,250.0,1,c32jhc32jhl,398,test
512.9449367523193,5,3,0,2,1,4,H-,1,0,2,0,1000,250.0,0,c32jhc32jhl,399,test
481.05382919311523,5,3,0,2,1,4,H-,1,4,5,0,1000,250.0,4,c32jhc32jhl,400,test
560.7528686523438,5,3,0,2,1,4,H-,1,3,1,0,1000,250.0,3,c32jhc32jhl,401,test
528.9030075073242,5,3,0,2,1,4,H-,1,0,2,0,1000,250.0,0,c32jhc32jhl,402,test
400.8479118347168,5,3,0,2,1,4,H-,0,2,3,0,1000,250.0,4,c32jhc32jhl,403,test
768.4769630432129,5,3,0,2,1,4,H-,1,1,4,0,1000,250.0,1,c32jhc32jhl,404,test
560.9440803527832,5,3,0,2,1,4,H-,1,3,1,0,1000,250.0,3,c32jhc32jhl,405,test
945.0240135192871,5,3,0,2,1,4,H-,1,2,3,0,1000,250.0,2,c32jhc32jhl,406,test
609.0140342712402,5,3,0,2,1,4,H-,1,1,4,0,1000,250.0,1,c32jhc32jhl,407,test
497.08104133605957,5,3,0,2,1,4,H-,1,1,4,0,1000,250.0,1,c32jhc32jhl,408,test
497.08008766174316,5,3,0,2,1,4,H-,1,5,0,0,1000,250.0,5,c32jhc32jhl,409,test
1056.9419860839844,5,3,0,2,1,4,H-,1,0,2,0,1000,250.0,0,c32jhc32jhl,410,test
497.0059394836426,5,3,0,2,1,4,H-,1,3,1,0,1000,250.0,3,c32jhc32jhl,411,test
384.9060535430908,5,3,0,2,1,4,H-,1,3,1,0,1000,250.0,3,c32jhc32jhl,412,test
416.72706604003906,5,3,0,2,1,4,H-,1,4,5,0,1000,250.0,4,c32jhc32jhl,413,test
528.9127826690674,5,3,0,2,1,4,H-,1,0,2,0,1000,250.0,0,c32jhc32jhl,414,test
480.67712783813477,5,3,0,2,1,4,H-,1,4,5,0,1000,250.0,4,c32jhc32jhl,415,test
544.9519157409668,5,3,0,2,1,4,H-,1,1,4,0,1000,250.0,1,c32jhc32jhl,416,test
464.79296684265137,5,3,0,2,1,4,H-,1,4,5,0,1000,250.0,4,c32jhc32jhl,417,test
528.9218425750732,5,3,0,2,1,4,H-,1,1,4,0,1000,250.0,1,c32jhc32jhl,418,test
464.97607231140137,5,3,0,2,1,4,H-,1,4,5,0,1000,250.0,4,c32jhc32jhl,419,test
576.6420364379883,5,3,0,2,1,4,H-,1,0,2,0,1000,250.0,0,c32jhc32jhl,420,test
464.85400199890137,5,3,0,2,1,4,H-,0,2,3,0,1000,250.0,4,c32jhc32jhl,421,test
353.05309295654297,5,3,0,2,1,4,H-,1,1,4,0,1000,250.0,1,c32jhc32jhl,422,test
544.4040298461914,5,3,0,2,1,4,H-,1,0,2,0,1000,250.0,0,c32jhc32jhl,423,test
494.6000576019287,5,3,0,2,1,4,H-,1,0,2,0,1000,250.0,0,c32jhc32jhl,424,test
528.933048248291,5,3,0,2,1,4,H-,1,1,4,0,1000,250.0,1,c32jhc32jhl,425,test
480.87501525878906,5,3,0,2,1,4,H-,1,4,5,0,1000,250.0,4,c32jhc32jhl,426,test
464.94412422180176,5,3,0,2,1,4,H-,0,5,0,0,1000,250.0,1,c32jhc32jhl,427,test
448.9419460296631,5,3,0,2,1,4,H-,1,4,5,0,1000,250.0,4,c32jhc32jhl,428,test
448.9269256591797,5,3,0,2,1,4,H-,1,5,0,0,1000,250.0,5,c32jhc32jhl,429,test
656.7471027374268,5,3,0,2,1,4,H-,1,0,2,0,1000,250.0,0,c32jhc32jhl,430,test
558.0480098724365,5,3,0,2,1,4,H-,1,1,4,0,1000,250.0,1,c32jhc32jhl,431,test
544.8830127716064,5,3,0,2,1,4,H-,1,3,1,0,1000,250.0,3,c32jhc32jhl,432,test
430.41014671325684,5,3,0,2,1,4,H-,1,4,5,0,1000,250.0,4,c32jhc32jhl,433,test
446.4230537414551,5,3,0,2,1,4,H-,1,3,1,0,1000,250.0,3,c32jhc32jhl,434,test
576.4789581298828,5,3,0,2,1,4,H-,0,5,0,0,1000,250.0,1,c32jhc32jhl,435,test
432.88683891296387,5,3,0,2,1,4,H-,0,0,2,0,1000,250.0,3,c32jhc32jhl,436,test
464.88213539123535,5,3,0,2,1,4,H-,1,4,5,0,1000,250.0,4,c32jhc32jhl,437,test
752.9299259185791,5,3,0,2,1,4,H-,1,5,0,0,1000,250.0,5,c32jhc32jhl,438,test
352.94198989868164,5,3,0,2,1,4,H-,1,5,0,0,1000,250.0,5,c32jhc32jhl,439,test
496.74296379089355,5,3,0,2,1,4,H-,1,4,5,0,1000,250.0,4,c32jhc32jhl,440,test
686.5401268005371,5,3,0,2,1,4,H-,1,0,2,0,1000,250.0,0,c32jhc32jhl,441,test
833.1289291381836,5,3,0,2,1,4,H-,1,5,0,0,1000,250.0,5,c32jhc32jhl,442,test
561.0880851745605,5,3,0,2,1,4,H-,1,1,4,0,1000,250.0,1,c32jhc32jhl,443,test
480.8340072631836,5,3,0,2,1,4,H-,1,3,1,0,1000,250.0,3,c32jhc32jhl,444,test
544.9810028076172,5,3,0,2,1,4,H-,1,1,4,0,1000,250.0,1,c32jhc32jhl,445,test
473.00195693969727,5,3,0,2,1,4,H-,1,1,4,0,1000,250.0,1,c32jhc32jhl,446,test
528.8021564483643,5,3,0,2,1,4,H-,1,5,0,0,1000,250.0,5,c32jhc32jhl,447,test
912.8549098968506,5,3,0,2,1,4,H-,1,2,3,0,1000,250.0,2,c32jhc32jhl,448,test
561.143159866333,5,3,0,2,1,4,H-,1,0,2,0,1000,250.0,0,c32jhc32jhl,449,test
593.0349826812744,5,3,0,2,1,4,H-,1,2,3,0,1000,250.0,2,c32jhc32jhl,450,test
496.5708255767822,5,3,0,2,1,4,H-,1,4,5,0,1000,250.0,4,c32jhc32jhl,451,test
715.4769897460938,5,3,0,2,1,4,H-,1,1,4,0,1000,250.0,1,c32jhc32jhl,452,test
592.9961204528809,5,3,0,2,1,4,H-,1,0,2,0,1000,250.0,0,c32jhc32jhl,453,test
1040.8430099487305,5,3,0,2,1,4,H-,1,5,0,0,1000,250.0,5,c32jhc32jhl,454,test
961.0159397125244,5,3,0,2,1,4,H-,1,2,3,0,1000,250.0,2,c32jhc32jhl,455,test
496.9451427459717,5,3,0,2,1,4,H-,1,3,1,0,1000,250.0,3,c32jhc32jhl,456,test
593.1041240692139,5,3,0,2,1,4,H-,1,2,3,0,1000,250.0,2,c32jhc32jhl,457,test
480.881929397583,5,3,0,2,1,4,H-,1,3,1,0,1000,250.0,3,c32jhc32jhl,458,test
624.8838901519775,5,3,0,2,1,4,H-,1,5,0,0,1000,250.0,5,c32jhc32jhl,459,test
544.3780422210693,5,3,0,2,1,4,H-,1,3,1,0,1000,250.0,3,c32jhc32jhl,460,test
784.8360538482666,5,3,0,2,1,4,H-,1,2,3,0,1000,250.0,2,c32jhc32jhl,461,test
512.639045715332,5,3,0,2,1,4,H-,1,0,2,0,1000,250.0,0,c32jhc32jhl,462,test
593.0149555206299,5,3,0,2,1,4,H-,1,1,4,0,1000,250.0,1,c32jhc32jhl,463,test
577.003002166748,5,3,0,2,1,4,H-,1,5,0,0,1000,250.0,5,c32jhc32jhl,464,test
496.39892578125,5,3,0,2,1,4,H-,1,4,5,0,1000,250.0,4,c32jhc32jhl,465,test
864.8221492767334,5,3,0,2,1,4,H-,1,1,4,0,1000,250.0,1,c32jhc32jhl,466,test
497.01499938964844,5,3,0,2,1,4,H-,1,1,4,0,1000,250.0,1,c32jhc32jhl,467,test
368.90506744384766,5,3,0,2,1,4,H-,1,1,4,0,1000,250.0,1,c32jhc32jhl,468,test
400.9079933166504,5,3,0,2,1,4,H-,0,2,3,0,1000,250.0,4,c32jhc32jhl,469,test
753.0210018157959,5,3,0,2,1,4,H-,1,5,0,0,1000,250.0,5,c32jhc32jhl,470,test
463.15693855285645,5,3,0,2,1,4,H-,1,4,5,0,1000,250.0,4,c32jhc32jhl,471,test
688.6029243469238,5,3,0,2,1,4,H-,1,2,3,0,1000,250.0,2,c32jhc32jhl,472,test
912.9939079284668,5,3,0,2,1,4,H-,1,0,2,0,1000,250.0,0,c32jhc32jhl,473,test
528.8012027740479,5,3,0,2,1,4,H-,1,2,3,0,1000,250.0,2,c32jhc32jhl,474,test
560.8439445495605,5,3,0,2,1,4,H-,1,3,1,0,1000,250.0,3,c32jhc32jhl,475,test
512.8448009490967,5,3,0,2,1,4,H-,1,4,5,0,1000,250.0,4,c32jhc32jhl,476,test
703.4599781036377,5,3,0,2,1,4,H-,1,2,3,0,1000,250.0,2,c32jhc32jhl,477,test
400.84099769592285,5,3,0,2,1,4,H-,1,0,2,0,1000,250.0,0,c32jhc32jhl,478,test
561.1488819122314,5,3,0,2,1,4,H-,1,3,1,0,1000,250.0,3,c32jhc32jhl,479,test
720.7520008087158,5,3,0,2,1,4,H-,1,5,0,0,1000,250.0,5,c32jhc32jhl,480,test
401.043176651001,5,3,0,2,1,4,H-,1,5,0,0,1000,250.0,5,c32jhc32jhl,481,test
462.5411033630371,5,3,0,2,1,4,H-,0,3,1,0,1000,250.0,2,c32jhc32jhl,482,test
480.9880256652832,5,3,0,2,1,4,H-,1,4,5,0,1000,250.0,4,c32jhc32jhl,483,test
576.8239498138428,5,3,0,2,1,4,H-,1,5,0,0,1000,250.0,5,c32jhc32jhl,484,test
512.6700401306152,5,3,0,2,1,4,H-,1,4,5,0,1000,250.0,4,c32jhc32jhl,485,test
560.938835144043,5,3,0,2,1,4,H-,1,5,0,0,1000,250.0,5,c32jhc32jhl,486,test
625.0441074371338,5,3,0,2,1,4,H-,1,2,3,0,1000,250.0,2,c32jhc32jhl,487,test
527.5669097900391,5,3,0,2,1,4,H-,1,3,1,0,1000,250.0,3,c32jhc32jhl,488,test
592.8249359130859,5,3,0,2,1,4,H-,1,0,2,0,1000,250.0,0,c32jhc32jhl,489,test
896.8789577484131,5,3,0,2,1,4,H-,1,5,0,0,1000,250.0,5,c32jhc32jhl,490,test
609.0788841247559,5,3,0,2,1,4,H-,1,0,2,0,1000,250.0,0,c32jhc32jhl,491,test
478.4889221191406,5,3,0,2,1,4,H-,1,4,5,0,1000,250.0,4,c32jhc32jhl,492,test
576.9469738006592,5,3,0,2,1,4,H-,1,0,2,0,1000,250.0,0,c32jhc32jhl,493,test
640.7029628753662,5,3,0,2,1,4,H-,1,1,4,0,1000,250.0,1,c32jhc32jhl,494,test
625.0619888305664,5,3,0,2,1,4,H-,1,2,3,0,1000,250.0,2,c32jhc32jhl,495,test
560.964822769165,5,3,0,2,1,4,H-,1,0,2,0,1000,250.0,0,c32jhc32jhl,496,test
400.9871482849121,5,3,0,2,1,4,H-,1,5,0,0,1000,250.0,5,c32jhc32jhl,497,test
415.7369136810303,5,3,0,2,1,4,H-,1,5,0,0,1000,250.0,5,c32jhc32jhl,498,test
497.06196784973145,5,3,0,2,1,4,H-,1,1,4,0,1000,250.0,1,c32jhc32jhl,499,test
