RT,SRmap_0,SRmap_1,SRmap_2,SRmap_3,SRmap_4,SRmap_5,condition,correct,correct_response,curstim,ms-precue,ms-prestimblank,ntrials,response,subject,trial,type
2128.4048557281494,1,3,4,2,0,5,H-,1,0,4,0,1000,250.0,0,D02VA,0,train
3232.44309425354,1,3,4,2,0,5,H-,1,2,3,0,1000,250.0,2,D02VA,1,train
5232.614994049072,1,3,4,2,0,5,H-,1,4,2,0,1000,250.0,4,D02VA,2,train
5952.537059783936,1,3,4,2,0,5,H-,1,4,2,0,1000,250.0,4,D02VA,3,train
1824.6619701385498,1,3,4,2,0,5,H-,1,1,0,0,1000,250.0,1,D02VA,4,train
2688.6749267578125,1,3,4,2,0,5,H-,1,3,1,0,1000,250.0,3,D02VA,5,train
1984.6861362457275,1,3,4,2,0,5,H-,1,5,5,0,1000,250.0,5,D02VA,6,train
1184.7310066223145,1,3,4,2,0,5,H-,1,5,5,0,1000,250.0,5,D02VA,7,train
1376.6679763793945,1,3,4,2,0,5,H-,1,4,2,0,1000,250.0,4,D02VA,8,train
1712.5139236450195,1,3,4,2,0,5,H-,0,2,3,0,1000,250.0,3,D02VA,9,train
1840.6739234924316,1,3,4,2,0,5,H-,1,5,5,0,1000,250.0,5,D02VA,10,train
1376.6629695892334,1,3,4,2,0,5,H-,0,2,3,0,1000,250.0,1,D02VA,11,train
768.8300609588623,1,3,4,2,0,5,H-,1,2,3,0,1000,250.0,2,D02VA,12,train
1024.7101783752441,1,3,4,2,0,5,H-,1,1,0,0,1000,250.0,1,D02VA,13,train
1520.6298828125,1,3,4,2,0,5,H-,1,5,5,0,1000,250.0,5,D02VA,14,train
1008.7330341339111,1,3,4,2,0,5,H-,1,0,4,0,1000,250.0,0,D02VA,15,train
1520.7350254058838,1,3,4,2,0,5,H-,1,4,2,0,1000,250.0,4,D02VA,16,train
1248.6741542816162,1,3,4,2,0,5,H-,1,3,1,0,1000,250.0,3,D02VA,17,train
1552.5999069213867,1,3,4,2,0,5,H-,1,2,3,0,1000,250.0,2,D02VA,18,train
1152.6892185211182,1,3,4,2,0,5,H-,1,3,1,0,1000,250.0,3,D02VA,19,train
1568.701982498169,1,3,4,2,0,5,H-,1,1,0,0,1000,250.0,1,D02VA,20,train
1648.7629413604736,1,3,4,2,0,5,H-,1,1,0,0,1000,250.0,1,D02VA,21,train
1616.7211532592773,1,3,4,2,0,5,H-,1,4,2,0,1000,250.0,4,D02VA,22,train
1152.7190208435059,1,3,4,2,0,5,H-,1,3,1,0,1000,250.0,3,D02VA,23,train
1312.6568794250488,1,3,4,2,0,5,H-,1,4,2,0,1000,250.0,4,D02VA,24,train
768.6398029327393,1,3,4,2,0,5,H-,1,0,4,0,1000,250.0,0,D02VA,25,train
3808.7339401245117,1,3,4,2,0,5,H-,1,4,2,0,1000,250.0,4,D02VA,26,train
1744.9510097503662,1,3,4,2,0,5,H-,1,4,2,0,1000,250.0,4,D02VA,27,train
1936.9831085205078,1,3,4,2,0,5,H-,1,1,0,0,1000,250.0,1,D02VA,28,train
2128.8599967956543,1,3,4,2,0,5,H-,0,3,1,0,1000,250.0,4,D02VA,29,train
2608.901023864746,1,3,4,2,0,5,H-,1,1,0,0,1000,250.0,1,D02VA,30,train
1872.7519512176514,1,3,4,2,0,5,H-,1,1,0,0,1000,250.0,1,D02VA,31,train
1632.9119205474854,1,3,4,2,0,5,H-,1,3,1,0,1000,250.0,3,D02VA,32,train
1184.6141815185547,1,3,4,2,0,5,H-,1,0,4,0,1000,250.0,0,D02VA,33,train
576.8828392028809,1,3,4,2,0,5,H-,1,2,3,0,1000,250.0,2,D02VA,34,train
640.6621932983398,1,3,4,2,0,5,H-,0,1,0,0,1000,250.0,0,D02VA,35,train
720.6709384918213,1,3,4,2,0,5,H-,1,3,1,0,1000,250.0,3,D02VA,36,train
736.6600036621094,1,3,4,2,0,5,H-,1,1,0,0,1000,250.0,1,D02VA,37,train
656.714916229248,1,3,4,2,0,5,H-,1,3,1,0,1000,250.0,3,D02VA,38,train
576.7099857330322,1,3,4,2,0,5,H-,1,3,1,0,1000,250.0,3,D02VA,39,train
928.7409782409668,1,3,4,2,0,5,H-,1,2,3,0,1000,250.0,2,D02VA,40,train
544.6269512176514,1,3,4,2,0,5,H-,1,1,0,0,1000,250.0,1,D02VA,41,train
672.4529266357422,1,3,4,2,0,5,H-,1,0,4,0,1000,250.0,0,D02VA,42,train
560.1069927215576,1,3,4,2,0,5,H-,1,0,4,0,1000,250.0,0,D02VA,43,train
608.6881160736084,1,3,4,2,0,5,H-,1,0,4,0,1000,250.0,0,D02VA,44,train
608.6809635162354,1,3,4,2,0,5,H-,1,3,1,0,1000,250.0,3,D02VA,45,train
560.6720447540283,1,3,4,2,0,5,H-,1,2,3,0,1000,250.0,2,D02VA,46,train
448.78387451171875,1,3,4,2,0,5,H-,1,3,1,0,1000,250.0,3,D02VA,47,train
656.7368507385254,1,3,4,2,0,5,H-,1,5,5,0,1000,250.0,5,D02VA,48,train
512.7410888671875,1,3,4,2,0,5,H-,1,3,1,0,1000,250.0,3,D02VA,49,train
448.620080947876,1,3,4,2,0,5,H-,1,3,1,0,1000,250.0,3,D02VA,50,train
480.6561470031738,1,3,4,2,0,5,H-,0,1,0,0,1000,250.0,5,D02VA,51,train
688.748836517334,1,3,4,2,0,5,H-,0,2,3,0,1000,250.0,3,D02VA,52,train
689.1169548034668,1,3,4,2,0,5,H-,1,0,4,0,1000,250.0,0,D02VA,53,train
480.97705841064453,1,3,4,2,0,5,H-,1,3,1,0,1000,250.0,3,D02VA,54,train
672.9660034179688,1,3,4,2,0,5,H-,0,1,0,0,1000,250.0,0,D02VA,55,train
593.2140350341797,1,3,4,2,0,5,H-,1,1,0,0,1000,250.0,1,D02VA,56,train
608.8888645172119,1,3,4,2,0,5,H-,0,4,2,0,1000,250.0,3,D02VA,57,train
673.0070114135742,1,3,4,2,0,5,H-,1,0,4,0,1000,250.0,0,D02VA,58,train
896.9430923461914,1,3,4,2,0,5,H-,1,1,0,0,1000,250.0,1,D02VA,59,train
641.0748958587646,1,3,4,2,0,5,H-,1,2,3,0,1000,250.0,2,D02VA,60,train
641.0660743713379,1,3,4,2,0,5,H-,0,1,0,0,1000,250.0,0,D02VA,61,train
577.0418643951416,1,3,4,2,0,5,H-,1,3,1,0,1000,250.0,3,D02VA,62,train
624.9508857727051,1,3,4,2,0,5,H-,1,4,2,0,1000,250.0,4,D02VA,63,train
736.8409633636475,1,3,4,2,0,5,H-,1,0,4,0,1000,250.0,0,D02VA,64,train
624.953031539917,1,3,4,2,0,5,H-,1,3,1,0,1000,250.0,3,D02VA,65,train
640.9950256347656,1,3,4,2,0,5,H-,1,5,5,0,1000,250.0,5,D02VA,66,train
577.0869255065918,1,3,4,2,0,5,H-,1,3,1,0,1000,250.0,3,D02VA,67,train
720.973014831543,1,3,4,2,0,5,H-,1,5,5,0,1000,250.0,5,D02VA,68,train
561.1000061035156,1,3,4,2,0,5,H-,1,3,1,0,1000,250.0,3,D02VA,69,train
416.9740676879883,1,3,4,2,0,5,H-,1,2,3,0,1000,250.0,2,D02VA,70,train
656.9328308105469,1,3,4,2,0,5,H-,1,3,1,0,1000,250.0,3,D02VA,71,train
593.0891036987305,1,3,4,2,0,5,H-,1,4,2,0,1000,250.0,4,D02VA,72,train
497.0440864562988,1,3,4,2,0,5,H-,1,4,2,0,1000,250.0,4,D02VA,73,train
481.0018539428711,1,3,4,2,0,5,H-,1,4,2,0,1000,250.0,4,D02VA,74,train
369.01402473449707,1,3,4,2,0,5,H-,1,4,2,0,1000,250.0,4,D02VA,75,train
353.00397872924805,1,3,4,2,0,5,H-,1,4,2,0,1000,250.0,4,D02VA,76,train
945.0709819793701,1,3,4,2,0,5,H-,1,2,3,0,1000,250.0,2,D02VA,77,train
1569.1800117492676,1,3,4,2,0,5,H-,1,5,5,0,1000,250.0,5,D02VA,78,train
1520.9720134735107,1,3,4,2,0,5,H-,0,1,0,0,1000,250.0,0,D02VA,79,train
768.975019454956,1,3,4,2,0,5,H-,1,3,1,0,1000,250.0,3,D02VA,80,train
848.9491939544678,1,3,4,2,0,5,H-,1,0,4,0,1000,250.0,0,D02VA,81,train
1617.0260906219482,1,3,4,2,0,5,H-,1,4,2,0,1000,250.0,4,D02VA,82,train
417.13619232177734,1,3,4,2,0,5,H-,1,4,2,0,1000,250.0,4,D02VA,83,train
1425.0149726867676,1,3,4,2,0,5,H-,1,0,4,0,1000,250.0,0,D02VA,84,train
560.9478950500488,1,3,4,2,0,5,H-,1,3,1,0,1000,250.0,3,D02VA,85,train
897.0649242401123,1,3,4,2,0,5,H-,1,5,5,0,1000,250.0,5,D02VA,86,train
609.1830730438232,1,3,4,2,0,5,H-,1,0,4,0,1000,250.0,0,D02VA,87,train
593.0888652801514,1,3,4,2,0,5,H-,0,4,2,0,1000,250.0,3,D02VA,88,train
1345.0109958648682,1,3,4,2,0,5,H-,1,5,5,0,1000,250.0,5,D02VA,89,train
721.0710048675537,1,3,4,2,0,5,H-,1,3,1,0,1000,250.0,3,D02VA,90,train
529.0849208831787,1,3,4,2,0,5,H-,1,3,1,0,1000,250.0,3,D02VA,91,train
897.9589939117432,1,3,4,2,0,5,H-,1,4,2,0,1000,250.0,4,D02VA,92,train
417.04392433166504,1,3,4,2,0,5,H-,1,4,2,0,1000,250.0,4,D02VA,93,train
337.0659351348877,1,3,4,2,0,5,H-,1,4,2,0,1000,250.0,4,D02VA,94,train
721.1251258850098,1,3,4,2,0,5,H-,1,0,4,0,1000,250.0,0,D02VA,95,train
497.12514877319336,1,3,4,2,0,5,H-,1,0,4,0,1000,250.0,0,D02VA,96,train
336.98105812072754,1,3,4,2,0,5,H-,1,0,4,0,1000,250.0,0,D02VA,97,train
1344.9690341949463,1,3,4,2,0,5,H-,1,2,3,0,1000,250.0,2,D02VA,98,train
561.1209869384766,1,3,4,2,0,5,H-,1,0,4,0,1000,250.0,0,D02VA,99,train
673.0961799621582,1,3,4,2,0,5,H-,0,4,2,0,1000,250.0,3,D02VA,100,train
1057.1608543395996,1,3,4,2,0,5,H-,1,1,0,0,1000,250.0,1,D02VA,101,train
721.182107925415,1,3,4,2,0,5,H-,1,2,3,0,1000,250.0,2,D02VA,102,train
593.1410789489746,1,3,4,2,0,5,H-,0,3,1,0,1000,250.0,4,D02VA,103,train
816.972017288208,1,3,4,2,0,5,H-,1,2,3,0,1000,250.0,2,D02VA,104,train
721.0969924926758,1,3,4,2,0,5,H-,1,3,1,0,1000,250.0,3,D02VA,105,train
865.0648593902588,1,3,4,2,0,5,H-,1,2,3,0,1000,250.0,2,D02VA,106,train
848.984956741333,1,3,4,2,0,5,H-,0,1,0,0,1000,250.0,0,D02VA,107,train
961.0848426818848,1,3,4,2,0,5,H-,1,1,0,0,1000,250.0,1,D02VA,108,train
561.0530376434326,1,3,4,2,0,5,H-,1,3,1,0,1000,250.0,3,D02VA,109,train
641.0281658172607,1,3,4,2,0,5,H-,1,1,0,0,1000,250.0,1,D02VA,110,train
576.2670040130615,1,3,4,2,0,5,H-,0,4,2,0,1000,250.0,3,D02VA,111,train
672.7159023284912,1,3,4,2,0,5,H-,1,4,2,0,1000,250.0,4,D02VA,112,train
720.6859588623047,1,3,4,2,0,5,H-,1,2,3,0,1000,250.0,2,D02VA,113,train
1088.7219905853271,1,3,4,2,0,5,H-,1,0,4,0,1000,250.0,0,D02VA,114,train
624.65500831604,1,3,4,2,0,5,H-,1,1,0,0,1000,250.0,1,D02VA,115,train
352.63609886169434,1,3,4,2,0,5,H-,1,2,3,0,1000,250.0,2,D02VA,116,train
704.697847366333,1,3,4,2,0,5,H-,1,0,4,0,1000,250.0,0,D02VA,117,train
512.7010345458984,1,3,4,2,0,5,H-,0,2,3,0,1000,250.0,1,D02VA,118,train
848.7141132354736,1,3,4,2,0,5,H-,1,2,3,0,1000,250.0,2,D02VA,119,train
528.7129878997803,1,3,4,2,0,5,H-,1,2,3,0,1000,250.0,2,D02VA,120,train
528.7759304046631,1,3,4,2,0,5,H-,1,4,2,0,1000,250.0,4,D02VA,121,train
480.6787967681885,1,3,4,2,0,5,H-,1,4,2,0,1000,250.0,4,D02VA,122,train
624.643087387085,1,3,4,2,0,5,H-,1,5,5,0,1000,250.0,5,D02VA,123,train
496.48189544677734,1,3,4,2,0,5,H-,1,5,5,0,1000,250.0,5,D02VA,124,train
672.6820468902588,1,3,4,2,0,5,H-,1,3,1,0,1000,250.0,3,D02VA,125,train
528.6741256713867,1,3,4,2,0,5,H-,1,5,5,0,1000,250.0,5,D02VA,126,train
736.7110252380371,1,3,4,2,0,5,H-,1,0,4,0,1000,250.0,0,D02VA,127,train
816.7369365692139,1,3,4,2,0,5,H-,0,1,0,0,1000,250.0,0,D02VA,128,train
576.4188766479492,1,3,4,2,0,5,H-,1,4,2,0,1000,250.0,4,D02VA,129,train
480.6830883026123,1,3,4,2,0,5,H-,1,4,2,0,1000,250.0,4,D02VA,130,train
1312.7119541168213,1,3,4,2,0,5,H-,1,1,0,0,1000,250.0,1,D02VA,131,train
800.7769584655762,1,3,4,2,0,5,H-,1,2,3,0,1000,250.0,2,D02VA,132,train
768.7160968780518,1,3,4,2,0,5,H-,1,2,3,0,1000,250.0,2,D02VA,133,train
656.7280292510986,1,3,4,2,0,5,H-,1,5,5,0,1000,250.0,5,D02VA,134,train
592.642068862915,1,3,4,2,0,5,H-,1,0,4,0,1000,250.0,0,D02VA,135,train
784.783124923706,1,3,4,2,0,5,H-,1,5,5,0,1000,250.0,5,D02VA,136,train
544.6979999542236,1,3,4,2,0,5,H-,1,0,4,0,1000,250.0,0,D02VA,137,train
672.7828979492188,1,3,4,2,0,5,H-,1,2,3,0,1000,250.0,2,D02VA,138,train
672.7359294891357,1,3,4,2,0,5,H-,1,3,1,0,1000,250.0,3,D02VA,139,train
496.6320991516113,1,3,4,2,0,5,H-,1,2,3,0,1000,250.0,2,D02VA,140,train
480.62801361083984,1,3,4,2,0,5,H-,1,4,2,0,1000,250.0,4,D02VA,141,train
624.626874923706,1,3,4,2,0,5,H-,1,0,4,0,1000,250.0,0,D02VA,142,train
544.687032699585,1,3,4,2,0,5,H-,1,0,4,0,1000,250.0,0,D02VA,143,train
688.6780261993408,1,3,4,2,0,5,H-,0,3,1,0,1000,250.0,4,D02VA,144,train
480.6079864501953,1,3,4,2,0,5,H-,1,4,2,0,1000,250.0,4,D02VA,145,train
400.6478786468506,1,3,4,2,0,5,H-,1,3,1,0,1000,250.0,3,D02VA,146,train
368.7000274658203,1,3,4,2,0,5,H-,1,3,1,0,1000,250.0,3,D02VA,147,train
912.7099514007568,1,3,4,2,0,5,H-,0,1,0,0,1000,250.0,0,D02VA,148,train
864.7580146789551,1,3,4,2,0,5,H-,1,2,3,0,1000,250.0,2,D02VA,149,train
720.6509113311768,1,3,4,2,0,5,H-,1,1,0,0,1000,250.0,1,D02VA,150,train
496.73008918762207,1,3,4,2,0,5,H-,1,1,0,0,1000,250.0,1,D02VA,151,train
432.41286277770996,1,3,4,2,0,5,H-,1,1,0,0,1000,250.0,1,D02VA,152,train
336.59887313842773,1,3,4,2,0,5,H-,1,1,0,0,1000,250.0,1,D02VA,153,train
528.709888458252,1,3,4,2,0,5,H-,0,4,2,0,1000,250.0,3,D02VA,154,train
464.6580219268799,1,3,4,2,0,5,H-,1,4,2,0,1000,250.0,4,D02VA,155,train
672.7859973907471,1,3,4,2,0,5,H-,1,5,5,0,1000,250.0,5,D02VA,156,train
720.7880020141602,1,3,4,2,0,5,H-,1,2,3,0,1000,250.0,2,D02VA,157,train
464.76197242736816,1,3,4,2,0,5,H-,1,4,2,0,1000,250.0,4,D02VA,158,train
1008.8150501251221,1,3,4,2,0,5,H-,1,2,3,0,1000,250.0,2,D02VA,159,train
656.771183013916,1,3,4,2,0,5,H-,1,0,4,0,1000,250.0,0,D02VA,160,train
816.8020248413086,1,3,4,2,0,5,H-,1,1,0,0,1000,250.0,1,D02VA,161,train
688.7722015380859,1,3,4,2,0,5,H-,1,2,3,0,1000,250.0,2,D02VA,162,train
640.7389640808105,1,3,4,2,0,5,H-,1,0,4,0,1000,250.0,0,D02VA,163,train
576.7781734466553,1,3,4,2,0,5,H-,1,0,4,0,1000,250.0,0,D02VA,164,train
1360.7630729675293,1,3,4,2,0,5,H-,1,5,5,0,1000,250.0,5,D02VA,165,train
928.8210868835449,1,3,4,2,0,5,H-,0,3,1,0,1000,250.0,2,D02VA,166,train
496.6609477996826,1,3,4,2,0,5,H-,1,2,3,0,1000,250.0,2,D02VA,167,train
656.7020416259766,1,3,4,2,0,5,H-,1,3,1,0,1000,250.0,3,D02VA,168,train
384.7639560699463,1,3,4,2,0,5,H-,1,4,2,0,1000,250.0,4,D02VA,169,train
496.51408195495605,1,3,4,2,0,5,H-,1,3,1,0,1000,250.0,3,D02VA,170,train
592.5569534301758,1,3,4,2,0,5,H-,1,2,3,0,1000,250.0,2,D02VA,171,train
608.7250709533691,1,3,4,2,0,5,H-,0,5,5,0,1000,250.0,0,D02VA,172,train
512.7301216125488,1,3,4,2,0,5,H-,1,5,5,0,1000,250.0,5,D02VA,173,train
608.7250709533691,1,3,4,2,0,5,H-,1,3,1,0,1000,250.0,3,D02VA,174,train
368.602991104126,1,3,4,2,0,5,H-,1,4,2,0,1000,250.0,4,D02VA,175,train
640.7489776611328,1,3,4,2,0,5,H-,1,5,5,0,1000,250.0,5,D02VA,176,train
720.6900119781494,1,3,4,2,0,5,H-,1,0,4,0,1000,250.0,0,D02VA,177,train
816.8251514434814,1,3,4,2,0,5,H-,1,3,1,0,1000,250.0,3,D02VA,178,train
560.6780052185059,1,3,4,2,0,5,H-,1,3,1,0,1000,250.0,3,D02VA,179,train
1120.8648681640625,1,3,4,2,0,5,H-,1,5,5,0,1000,250.0,5,D02VA,180,train
656.8319797515869,1,3,4,2,0,5,H-,1,0,4,0,1000,250.0,0,D02VA,181,train
640.8040523529053,1,3,4,2,0,5,H-,1,4,2,0,1000,250.0,4,D02VA,182,train
688.805103302002,1,3,4,2,0,5,H-,1,0,4,0,1000,250.0,0,D02VA,183,train
576.789140701294,1,3,4,2,0,5,H-,1,5,5,0,1000,250.0,5,D02VA,184,train
448.746919631958,1,3,4,2,0,5,H-,1,5,5,0,1000,250.0,5,D02VA,185,train
672.8060245513916,1,3,4,2,0,5,H-,1,1,0,0,1000,250.0,1,D02VA,186,train
576.7598152160645,1,3,4,2,0,5,H-,1,4,2,0,1000,250.0,4,D02VA,187,train
624.7920989990234,1,3,4,2,0,5,H-,1,5,5,0,1000,250.0,5,D02VA,188,train
624.7608661651611,1,3,4,2,0,5,H-,1,1,0,0,1000,250.0,1,D02VA,189,train
720.7810878753662,1,3,4,2,0,5,H-,1,0,4,0,1000,250.0,0,D02VA,190,train
576.7490863800049,1,3,4,2,0,5,H-,1,4,2,0,1000,250.0,4,D02VA,191,train
704.8060894012451,1,3,4,2,0,5,H-,1,1,0,0,1000,250.0,1,D02VA,192,train
496.75488471984863,1,3,4,2,0,5,H-,1,1,0,0,1000,250.0,1,D02VA,193,train
1168.7781810760498,1,3,4,2,0,5,H-,1,2,3,0,1000,250.0,2,D02VA,194,train
848.8237857818604,1,3,4,2,0,5,H-,1,2,3,0,1000,250.0,2,D02VA,195,train
464.6461009979248,1,3,4,2,0,5,H-,0,3,1,0,1000,250.0,4,D02VA,196,train
448.79984855651855,1,3,4,2,0,5,H-,1,3,1,0,1000,250.0,3,D02VA,197,train
816.6790008544922,1,3,4,2,0,5,H-,1,1,0,0,1000,250.0,1,D02VA,198,train
624.5920658111572,1,3,4,2,0,5,H-,1,3,1,0,1000,250.0,3,D02VA,199,train
592.7062034606934,1,3,4,2,0,5,H-,1,1,0,0,1000,250.0,1,D02VA,200,train
736.7150783538818,1,3,4,2,0,5,H-,1,4,2,0,1000,250.0,4,D02VA,201,train
480.6559085845947,1,3,4,2,0,5,H-,1,4,2,0,1000,250.0,4,D02VA,202,train
816.8208599090576,1,3,4,2,0,5,H-,1,0,4,0,1000,250.0,0,D02VA,203,train
720.5410003662109,1,3,4,2,0,5,H-,0,1,0,0,1000,250.0,0,D02VA,204,train
752.7730464935303,1,3,4,2,0,5,H-,1,3,1,0,1000,250.0,3,D02VA,205,train
720.8051681518555,1,3,4,2,0,5,H-,1,0,4,0,1000,250.0,0,D02VA,206,train
1552.7920722961426,1,3,4,2,0,5,H-,1,5,5,0,1000,250.0,5,D02VA,207,train
1696.791172027588,1,3,4,2,0,5,H-,1,3,1,0,1000,250.0,3,D02VA,208,train
928.7471771240234,1,3,4,2,0,5,H-,1,2,3,0,1000,250.0,2,D02VA,209,train
672.7950572967529,1,3,4,2,0,5,H-,1,4,2,0,1000,250.0,4,D02VA,210,train
832.7670097351074,1,3,4,2,0,5,H-,1,5,5,0,1000,250.0,5,D02VA,211,train
1024.8219966888428,1,3,4,2,0,5,H-,1,1,0,0,1000,250.0,1,D02VA,212,train
784.7878932952881,1,3,4,2,0,5,H-,1,3,1,0,1000,250.0,3,D02VA,213,train
1200.7560729980469,1,3,4,2,0,5,H-,1,2,3,0,1000,250.0,2,D02VA,214,train
944.7999000549316,1,3,4,2,0,5,H-,1,1,0,0,1000,250.0,1,D02VA,215,train
928.4379482269287,1,3,4,2,0,5,H-,1,3,1,0,1000,250.0,3,D02VA,216,train
1584.8019123077393,1,3,4,2,0,5,H-,1,2,3,0,1000,250.0,2,D02VA,217,train
1072.815179824829,1,3,4,2,0,5,H-,1,1,0,0,1000,250.0,1,D02VA,218,train
864.7980690002441,1,3,4,2,0,5,H-,1,2,3,0,1000,250.0,2,D02VA,219,train
768.8639163970947,1,3,4,2,0,5,H-,1,3,1,0,1000,250.0,3,D02VA,220,train
608.7720394134521,1,3,4,2,0,5,H-,1,4,2,0,1000,250.0,4,D02VA,221,train
704.7979831695557,1,3,4,2,0,5,H-,1,2,3,0,1000,250.0,2,D02VA,222,train
544.8100566864014,1,3,4,2,0,5,H-,1,2,3,0,1000,250.0,2,D02VA,223,train
656.5248966217041,1,3,4,2,0,5,H-,1,1,0,0,1000,250.0,1,D02VA,224,train
672.7869510650635,1,3,4,2,0,5,H-,1,5,5,0,1000,250.0,5,D02VA,225,train
512.728214263916,1,3,4,2,0,5,H-,1,3,1,0,1000,250.0,3,D02VA,226,train
752.795934677124,1,3,4,2,0,5,H-,1,1,0,0,1000,250.0,1,D02VA,227,train
1024.8301029205322,1,3,4,2,0,5,H-,1,1,0,0,1000,250.0,1,D02VA,228,train
496.7498779296875,1,3,4,2,0,5,H-,1,1,0,0,1000,250.0,1,D02VA,229,train
672.7800369262695,1,3,4,2,0,5,H-,1,1,0,0,1000,250.0,1,D02VA,230,train
768.791913986206,1,3,4,2,0,5,H-,1,0,4,0,1000,250.0,0,D02VA,231,train
752.7999877929688,1,3,4,2,0,5,H-,1,5,5,0,1000,250.0,5,D02VA,232,train
848.7679958343506,1,3,4,2,0,5,H-,1,3,1,0,1000,250.0,3,D02VA,233,train
528.778076171875,1,3,4,2,0,5,H-,1,3,1,0,1000,250.0,3,D02VA,234,train
672.7778911590576,1,3,4,2,0,5,H-,1,0,4,0,1000,250.0,0,D02VA,235,train
1296.7169284820557,1,3,4,2,0,5,H-,1,5,5,0,1000,250.0,5,D02VA,236,train
752.7620792388916,1,3,4,2,0,5,H-,1,3,1,0,1000,250.0,3,D02VA,237,train
864.7899627685547,1,3,4,2,0,5,H-,1,1,0,0,1000,250.0,1,D02VA,238,train
1248.5299110412598,1,3,4,2,0,5,H-,0,1,0,0,1000,250.0,0,D02VA,239,train
720.6718921661377,1,3,4,2,0,5,H-,1,3,1,0,1000,250.0,3,D02VA,240,train
256.74915313720703,1,3,4,2,0,5,H-,0,5,5,0,1000,250.0,3,D02VA,241,train
800.7769584655762,1,3,4,2,0,5,H-,1,1,0,0,1000,250.0,1,D02VA,242,train
576.6100883483887,1,3,4,2,0,5,H-,0,1,0,0,1000,250.0,2,D02VA,243,train
752.7079582214355,1,3,4,2,0,5,H-,1,2,3,0,1000,250.0,2,D02VA,244,train
704.7839164733887,1,3,4,2,0,5,H-,1,1,0,0,1000,250.0,1,D02VA,245,train
720.7858562469482,1,3,4,2,0,5,H-,1,5,5,0,1000,250.0,5,D02VA,246,train
592.7491188049316,1,3,4,2,0,5,H-,1,2,3,0,1000,250.0,2,D02VA,247,train
576.7529010772705,1,3,4,2,0,5,H-,0,3,1,0,1000,250.0,4,D02VA,248,train
864.8169040679932,1,3,4,2,0,5,H-,1,5,5,0,1000,250.0,5,D02VA,249,train
4320.514917373657,3,1,5,2,0,4,H-,1,2,3,0,1000,250.0,2,D02VA,250,test
992.7020072937012,3,1,5,2,0,4,H-,1,0,4,0,1000,250.0,0,D02VA,251,test
688.6210441589355,3,1,5,2,0,4,H-,1,2,3,0,1000,250.0,2,D02VA,252,test
800.7638454437256,3,1,5,2,0,4,H-,1,0,4,0,1000,250.0,0,D02VA,253,test
624.6769428253174,3,1,5,2,0,4,H-,1,4,5,0,1000,250.0,4,D02VA,254,test
1376.7368793487549,3,1,5,2,0,4,H-,1,2,3,0,1000,250.0,2,D02VA,255,test
1200.7241249084473,3,1,5,2,0,4,H-,1,5,2,0,1000,250.0,5,D02VA,256,test
880.8670043945312,3,1,5,2,0,4,H-,0,1,1,0,1000,250.0,2,D02VA,257,test
1392.7810192108154,3,1,5,2,0,4,H-,1,4,5,0,1000,250.0,4,D02VA,258,test
1616.7430877685547,3,1,5,2,0,4,H-,1,5,2,0,1000,250.0,5,D02VA,259,test
928.8358688354492,3,1,5,2,0,4,H-,1,1,1,0,1000,250.0,1,D02VA,260,test
560.7781410217285,3,1,5,2,0,4,H-,1,1,1,0,1000,250.0,1,D02VA,261,test
1104.8259735107422,3,1,5,2,0,4,H-,1,4,5,0,1000,250.0,4,D02VA,262,test
944.8440074920654,3,1,5,2,0,4,H-,1,2,3,0,1000,250.0,2,D02VA,263,test
672.8410720825195,3,1,5,2,0,4,H-,1,1,1,0,1000,250.0,1,D02VA,264,test
1360.8291149139404,3,1,5,2,0,4,H-,1,4,5,0,1000,250.0,4,D02VA,265,test
800.8489608764648,3,1,5,2,0,4,H-,1,5,2,0,1000,250.0,5,D02VA,266,test
624.6068477630615,3,1,5,2,0,4,H-,1,5,2,0,1000,250.0,5,D02VA,267,test
1344.7790145874023,3,1,5,2,0,4,H-,1,1,1,0,1000,250.0,1,D02VA,268,test
816.687822341919,3,1,5,2,0,4,H-,1,2,3,0,1000,250.0,2,D02VA,269,test
1120.8100318908691,3,1,5,2,0,4,H-,1,4,5,0,1000,250.0,4,D02VA,270,test
784.8019599914551,3,1,5,2,0,4,H-,1,0,4,0,1000,250.0,0,D02VA,271,test
768.8400745391846,3,1,5,2,0,4,H-,1,2,3,0,1000,250.0,2,D02VA,272,test
720.8139896392822,3,1,5,2,0,4,H-,1,1,1,0,1000,250.0,1,D02VA,273,test
2688.8298988342285,3,1,5,2,0,4,H-,1,3,0,0,1000,250.0,3,D02VA,274,test
160.75992584228516,3,1,5,2,0,4,H-,0,1,1,0,1000,250.0,0,D02VA,275,test
1472.728967666626,3,1,5,2,0,4,H-,1,3,0,0,1000,250.0,3,D02VA,276,test
672.8038787841797,3,1,5,2,0,4,H-,1,2,3,0,1000,250.0,2,D02VA,277,test
672.7778911590576,3,1,5,2,0,4,H-,1,2,3,0,1000,250.0,2,D02VA,278,test
960.8590602874756,3,1,5,2,0,4,H-,1,5,2,0,1000,250.0,5,D02VA,279,test
768.7909603118896,3,1,5,2,0,4,H-,0,1,1,0,1000,250.0,2,D02VA,280,test
768.8100337982178,3,1,5,2,0,4,H-,1,2,3,0,1000,250.0,2,D02VA,281,test
1024.832010269165,3,1,5,2,0,4,H-,1,3,0,0,1000,250.0,3,D02VA,282,test
880.8579444885254,3,1,5,2,0,4,H-,1,1,1,0,1000,250.0,1,D02VA,283,test
1104.8760414123535,3,1,5,2,0,4,H-,1,4,5,0,1000,250.0,4,D02VA,284,test
816.8120384216309,3,1,5,2,0,4,H-,1,0,4,0,1000,250.0,0,D02VA,285,test
656.8048000335693,3,1,5,2,0,4,H-,1,0,4,0,1000,250.0,0,D02VA,286,test
1056.8089485168457,3,1,5,2,0,4,H-,0,5,2,0,1000,250.0,4,D02VA,287,test
864.7849559783936,3,1,5,2,0,4,H-,1,1,1,0,1000,250.0,1,D02VA,288,test
656.8248271942139,3,1,5,2,0,4,H-,1,0,4,0,1000,250.0,0,D02VA,289,test
880.8488845825195,3,1,5,2,0,4,H-,1,2,3,0,1000,250.0,2,D02VA,290,test
1264.7151947021484,3,1,5,2,0,4,H-,1,3,0,0,1000,250.0,3,D02VA,291,test
1040.7710075378418,3,1,5,2,0,4,H-,1,4,5,0,1000,250.0,4,D02VA,292,test
1872.812032699585,3,1,5,2,0,4,H-,0,3,0,0,1000,250.0,2,D02VA,293,test
992.5708770751953,3,1,5,2,0,4,H-,1,1,1,0,1000,250.0,1,D02VA,294,test
2464.7839069366455,3,1,5,2,0,4,H-,1,4,5,0,1000,250.0,4,D02VA,295,test
1008.7831020355225,3,1,5,2,0,4,H-,1,0,4,0,1000,250.0,0,D02VA,296,test
1216.8149948120117,3,1,5,2,0,4,H-,1,4,5,0,1000,250.0,4,D02VA,297,test
1440.7870769500732,3,1,5,2,0,4,H-,1,4,5,0,1000,250.0,4,D02VA,298,test
816.6861534118652,3,1,5,2,0,4,H-,1,2,3,0,1000,250.0,2,D02VA,299,test
928.8790225982666,3,1,5,2,0,4,H-,1,5,2,0,1000,250.0,5,D02VA,300,test
1232.7840328216553,3,1,5,2,0,4,H-,1,4,5,0,1000,250.0,4,D02VA,301,test
560.7731342315674,3,1,5,2,0,4,H-,1,5,2,0,1000,250.0,5,D02VA,302,test
576.7910480499268,3,1,5,2,0,4,H-,1,5,2,0,1000,250.0,5,D02VA,303,test
592.818021774292,3,1,5,2,0,4,H-,0,1,1,0,1000,250.0,5,D02VA,304,test
1312.7720355987549,3,1,5,2,0,4,H-,1,3,0,0,1000,250.0,3,D02VA,305,test
384.7620487213135,3,1,5,2,0,4,H-,0,4,5,0,1000,250.0,3,D02VA,306,test
896.8260288238525,3,1,5,2,0,4,H-,1,1,1,0,1000,250.0,1,D02VA,307,test
1088.7219905853271,3,1,5,2,0,4,H-,1,2,3,0,1000,250.0,2,D02VA,308,test
656.7521095275879,3,1,5,2,0,4,H-,1,5,2,0,1000,250.0,5,D02VA,309,test
928.8139343261719,3,1,5,2,0,4,H-,1,0,4,0,1000,250.0,0,D02VA,310,test
640.8019065856934,3,1,5,2,0,4,H-,1,2,3,0,1000,250.0,2,D02VA,311,test
672.8498935699463,3,1,5,2,0,4,H-,1,2,3,0,1000,250.0,2,D02VA,312,test
832.8042030334473,3,1,5,2,0,4,H-,1,1,1,0,1000,250.0,1,D02VA,313,test
928.8690090179443,3,1,5,2,0,4,H-,1,3,0,0,1000,250.0,3,D02VA,314,test
752.8440952301025,3,1,5,2,0,4,H-,0,4,5,0,1000,250.0,5,D02VA,315,test
944.8089599609375,3,1,5,2,0,4,H-,0,3,0,0,1000,250.0,2,D02VA,316,test
624.7909069061279,3,1,5,2,0,4,H-,1,1,1,0,1000,250.0,1,D02VA,317,test
896.8009948730469,3,1,5,2,0,4,H-,1,3,0,0,1000,250.0,3,D02VA,318,test
704.7679424285889,3,1,5,2,0,4,H-,1,0,4,0,1000,250.0,0,D02VA,319,test
1441.0459995269775,3,1,5,2,0,4,H-,0,4,5,0,1000,250.0,5,D02VA,320,test
1008.7380409240723,3,1,5,2,0,4,H-,1,2,3,0,1000,250.0,2,D02VA,321,test
816.8401718139648,3,1,5,2,0,4,H-,1,1,1,0,1000,250.0,1,D02VA,322,test
1616.9869899749756,3,1,5,2,0,4,H-,1,3,0,0,1000,250.0,3,D02VA,323,test
833.0018520355225,3,1,5,2,0,4,H-,1,2,3,0,1000,250.0,2,D02VA,324,test
1168.962001800537,3,1,5,2,0,4,H-,1,5,2,0,1000,250.0,5,D02VA,325,test
1329.0948867797852,3,1,5,2,0,4,H-,1,2,3,0,1000,250.0,2,D02VA,326,test
1153.014898300171,3,1,5,2,0,4,H-,1,2,3,0,1000,250.0,2,D02VA,327,test
897.0251083374023,3,1,5,2,0,4,H-,1,5,2,0,1000,250.0,5,D02VA,328,test
720.6590175628662,3,1,5,2,0,4,H-,1,0,4,0,1000,250.0,0,D02VA,329,test
1056.885004043579,3,1,5,2,0,4,H-,1,2,3,0,1000,250.0,2,D02VA,330,test
992.8340911865234,3,1,5,2,0,4,H-,1,5,2,0,1000,250.0,5,D02VA,331,test
1232.8050136566162,3,1,5,2,0,4,H-,1,3,0,0,1000,250.0,3,D02VA,332,test
1008.8047981262207,3,1,5,2,0,4,H-,1,1,1,0,1000,250.0,1,D02VA,333,test
832.8301906585693,3,1,5,2,0,4,H-,1,2,3,0,1000,250.0,2,D02VA,334,test
992.4020767211914,3,1,5,2,0,4,H-,1,2,3,0,1000,250.0,2,D02VA,335,test
896.7688083648682,3,1,5,2,0,4,H-,1,4,5,0,1000,250.0,4,D02VA,336,test
720.7391262054443,3,1,5,2,0,4,H-,1,5,2,0,1000,250.0,5,D02VA,337,test
608.8809967041016,3,1,5,2,0,4,H-,1,0,4,0,1000,250.0,0,D02VA,338,test
1040.855884552002,3,1,5,2,0,4,H-,1,4,5,0,1000,250.0,4,D02VA,339,test
944.8659420013428,3,1,5,2,0,4,H-,1,1,1,0,1000,250.0,1,D02VA,340,test
672.8410720825195,3,1,5,2,0,4,H-,1,0,4,0,1000,250.0,0,D02VA,341,test
736.7520332336426,3,1,5,2,0,4,H-,1,2,3,0,1000,250.0,2,D02VA,342,test
848.8302230834961,3,1,5,2,0,4,H-,1,4,5,0,1000,250.0,4,D02VA,343,test
720.8371162414551,3,1,5,2,0,4,H-,1,2,3,0,1000,250.0,2,D02VA,344,test
624.7048377990723,3,1,5,2,0,4,H-,1,0,4,0,1000,250.0,0,D02VA,345,test
816.8048858642578,3,1,5,2,0,4,H-,0,3,0,0,1000,250.0,4,D02VA,346,test
496.72794342041016,3,1,5,2,0,4,H-,1,3,0,0,1000,250.0,3,D02VA,347,test
848.6850261688232,3,1,5,2,0,4,H-,1,1,1,0,1000,250.0,1,D02VA,348,test
752.8440952301025,3,1,5,2,0,4,H-,1,2,3,0,1000,250.0,2,D02VA,349,test
480.8039665222168,3,1,5,2,0,4,H-,1,2,3,0,1000,250.0,2,D02VA,350,test
736.7830276489258,3,1,5,2,0,4,H-,1,1,1,0,1000,250.0,1,D02VA,351,test
656.8009853363037,3,1,5,2,0,4,H-,1,0,4,0,1000,250.0,0,D02VA,352,test
656.8329334259033,3,1,5,2,0,4,H-,1,1,1,0,1000,250.0,1,D02VA,353,test
496.67811393737793,3,1,5,2,0,4,H-,1,1,1,0,1000,250.0,1,D02VA,354,test
464.71309661865234,3,1,5,2,0,4,H-,1,1,1,0,1000,250.0,1,D02VA,355,test
1088.8280868530273,3,1,5,2,0,4,H-,0,4,5,0,1000,250.0,3,D02VA,356,test
944.6399211883545,3,1,5,2,0,4,H-,0,3,0,0,1000,250.0,4,D02VA,357,test
1024.744987487793,3,1,5,2,0,4,H-,1,5,2,0,1000,250.0,5,D02VA,358,test
1248.802900314331,3,1,5,2,0,4,H-,0,4,5,0,1000,250.0,3,D02VA,359,test
624.8278617858887,3,1,5,2,0,4,H-,1,4,5,0,1000,250.0,4,D02VA,360,test
689.0249252319336,3,1,5,2,0,4,H-,1,5,2,0,1000,250.0,5,D02VA,361,test
657.0651531219482,3,1,5,2,0,4,H-,1,1,1,0,1000,250.0,1,D02VA,362,test
865.0140762329102,3,1,5,2,0,4,H-,1,3,0,0,1000,250.0,3,D02VA,363,test
672.6820468902588,3,1,5,2,0,4,H-,1,2,3,0,1000,250.0,2,D02VA,364,test
688.8349056243896,3,1,5,2,0,4,H-,1,0,4,0,1000,250.0,0,D02VA,365,test
672.8050708770752,3,1,5,2,0,4,H-,1,2,3,0,1000,250.0,2,D02VA,366,test
688.7891292572021,3,1,5,2,0,4,H-,1,5,2,0,1000,250.0,5,D02VA,367,test
864.8219108581543,3,1,5,2,0,4,H-,1,3,0,0,1000,250.0,3,D02VA,368,test
480.7898998260498,3,1,5,2,0,4,H-,1,4,5,0,1000,250.0,4,D02VA,369,test
688.788890838623,3,1,5,2,0,4,H-,1,2,3,0,1000,250.0,2,D02VA,370,test
752.7899742126465,3,1,5,2,0,4,H-,1,3,0,0,1000,250.0,3,D02VA,371,test
624.8230934143066,3,1,5,2,0,4,H-,1,4,5,0,1000,250.0,4,D02VA,372,test
592.7808284759521,3,1,5,2,0,4,H-,1,3,0,0,1000,250.0,3,D02VA,373,test
720.8578586578369,3,1,5,2,0,4,H-,1,1,1,0,1000,250.0,1,D02VA,374,test
592.9889678955078,3,1,5,2,0,4,H-,1,1,1,0,1000,250.0,1,D02VA,375,test
544.7320938110352,3,1,5,2,0,4,H-,1,1,1,0,1000,250.0,1,D02VA,376,test
640.7899856567383,3,1,5,2,0,4,H-,1,2,3,0,1000,250.0,2,D02VA,377,test
688.7280941009521,3,1,5,2,0,4,H-,1,5,2,0,1000,250.0,5,D02VA,378,test
656.8098068237305,3,1,5,2,0,4,H-,1,1,1,0,1000,250.0,1,D02VA,379,test
608.8309288024902,3,1,5,2,0,4,H-,1,0,4,0,1000,250.0,0,D02VA,380,test
800.825834274292,3,1,5,2,0,4,H-,1,1,1,0,1000,250.0,1,D02VA,381,test
720.832109451294,3,1,5,2,0,4,H-,1,0,4,0,1000,250.0,0,D02VA,382,test
704.8079967498779,3,1,5,2,0,4,H-,1,5,2,0,1000,250.0,5,D02VA,383,test
592.8149223327637,3,1,5,2,0,4,H-,1,2,3,0,1000,250.0,2,D02VA,384,test
1280.3897857666016,3,1,5,2,0,4,H-,1,4,5,0,1000,250.0,4,D02VA,385,test
672.7581024169922,3,1,5,2,0,4,H-,1,0,4,0,1000,250.0,0,D02VA,386,test
656.7769050598145,3,1,5,2,0,4,H-,1,0,4,0,1000,250.0,0,D02VA,387,test
816.8001174926758,3,1,5,2,0,4,H-,1,5,2,0,1000,250.0,5,D02VA,388,test
848.7420082092285,3,1,5,2,0,4,H-,0,0,4,0,1000,250.0,5,D02VA,389,test
1536.6580486297607,3,1,5,2,0,4,H-,0,3,0,0,1000,250.0,1,D02VA,390,test
15.745162963867188,3,1,5,2,0,4,H-,0,2,3,0,1000,250.0,5,D02VA,391,test
128.69691848754883,3,1,5,2,0,4,H-,0,0,4,0,1000,250.0,4,D02VA,392,test
736.7150783538818,3,1,5,2,0,4,H-,1,1,1,0,1000,250.0,1,D02VA,393,test
608.6940765380859,3,1,5,2,0,4,H-,1,1,1,0,1000,250.0,1,D02VA,394,test
672.6579666137695,3,1,5,2,0,4,H-,1,2,3,0,1000,250.0,2,D02VA,395,test
496.6311454772949,3,1,5,2,0,4,H-,1,2,3,0,1000,250.0,2,D02VA,396,test
608.5970401763916,3,1,5,2,0,4,H-,1,0,4,0,1000,250.0,0,D02VA,397,test
512.6340389251709,3,1,5,2,0,4,H-,1,0,4,0,1000,250.0,0,D02VA,398,test
1184.8139762878418,3,1,5,2,0,4,H-,1,2,3,0,1000,250.0,2,D02VA,399,test
624.9270439147949,3,1,5,2,0,4,H-,1,5,2,0,1000,250.0,5,D02VA,400,test
1008.7411403656006,3,1,5,2,0,4,H-,1,1,1,0,1000,250.0,1,D02VA,401,test
529.0079116821289,3,1,5,2,0,4,H-,1,1,1,0,1000,250.0,1,D02VA,402,test
1488.853931427002,3,1,5,2,0,4,H-,0,3,0,0,1000,250.0,5,D02VA,403,test
1744.7831630706787,3,1,5,2,0,4,H-,1,0,4,0,1000,250.0,0,D02VA,404,test
1872.6170063018799,3,1,5,2,0,4,H-,1,4,5,0,1000,250.0,4,D02VA,405,test
656.4688682556152,3,1,5,2,0,4,H-,1,1,1,0,1000,250.0,1,D02VA,406,test
656.818151473999,3,1,5,2,0,4,H-,1,5,2,0,1000,250.0,5,D02VA,407,test
624.7539520263672,3,1,5,2,0,4,H-,1,0,4,0,1000,250.0,0,D02VA,408,test
880.8181285858154,3,1,5,2,0,4,H-,1,5,2,0,1000,250.0,5,D02VA,409,test
1216.7880535125732,3,1,5,2,0,4,H-,1,3,0,0,1000,250.0,3,D02VA,410,test
1536.7989540100098,3,1,5,2,0,4,H-,1,1,1,0,1000,250.0,1,D02VA,411,test
1264.7531032562256,3,1,5,2,0,4,H-,0,4,5,0,1000,250.0,5,D02VA,412,test
1536.2799167633057,3,1,5,2,0,4,H-,1,4,5,0,1000,250.0,4,D02VA,413,test
640.7818794250488,3,1,5,2,0,4,H-,1,0,4,0,1000,250.0,0,D02VA,414,test
624.7398853302002,3,1,5,2,0,4,H-,1,5,2,0,1000,250.0,5,D02VA,415,test
624.7429847717285,3,1,5,2,0,4,H-,1,1,1,0,1000,250.0,1,D02VA,416,test
656.8081378936768,3,1,5,2,0,4,H-,1,0,4,0,1000,250.0,0,D02VA,417,test
832.8101634979248,3,1,5,2,0,4,H-,1,2,3,0,1000,250.0,2,D02VA,418,test
624.6719360351562,3,1,5,2,0,4,H-,1,2,3,0,1000,250.0,2,D02VA,419,test
912.8768444061279,3,1,5,2,0,4,H-,1,4,5,0,1000,250.0,4,D02VA,420,test
608.7818145751953,3,1,5,2,0,4,H-,1,5,2,0,1000,250.0,5,D02VA,421,test
496.7820644378662,3,1,5,2,0,4,H-,1,5,2,0,1000,250.0,5,D02VA,422,test
496.83403968811035,3,1,5,2,0,4,H-,0,3,0,0,1000,250.0,4,D02VA,423,test
528.5751819610596,3,1,5,2,0,4,H-,1,2,3,0,1000,250.0,2,D02VA,424,test
609.2469692230225,3,1,5,2,0,4,H-,0,3,0,0,1000,250.0,4,D02VA,425,test
833.2400321960449,3,1,5,2,0,4,H-,1,2,3,0,1000,250.0,2,D02VA,426,test
1809.2119693756104,3,1,5,2,0,4,H-,1,1,1,0,1000,250.0,1,D02VA,427,test
737.1609210968018,3,1,5,2,0,4,H-,1,0,4,0,1000,250.0,0,D02VA,428,test
593.1169986724854,3,1,5,2,0,4,H-,1,0,4,0,1000,250.0,0,D02VA,429,test
1105.2520275115967,3,1,5,2,0,4,H-,1,4,5,0,1000,250.0,4,D02VA,430,test
465.20495414733887,3,1,5,2,0,4,H-,1,4,5,0,1000,250.0,4,D02VA,431,test
401.1499881744385,3,1,5,2,0,4,H-,1,4,5,0,1000,250.0,4,D02VA,432,test
497.2419738769531,3,1,5,2,0,4,H-,0,2,3,0,1000,250.0,3,D02VA,433,test
497.12181091308594,3,1,5,2,0,4,H-,1,2,3,0,1000,250.0,2,D02VA,434,test
545.036792755127,3,1,5,2,0,4,H-,1,5,2,0,1000,250.0,5,D02VA,435,test
657.0549011230469,3,1,5,2,0,4,H-,1,1,1,0,1000,250.0,1,D02VA,436,test
625.1509189605713,3,1,5,2,0,4,H-,1,2,3,0,1000,250.0,2,D02VA,437,test
624.9520778656006,3,1,5,2,0,4,H-,1,0,4,0,1000,250.0,0,D02VA,438,test
353.2381057739258,3,1,5,2,0,4,H-,0,1,1,0,1000,250.0,5,D02VA,439,test
417.74702072143555,3,1,5,2,0,4,H-,0,1,1,0,1000,250.0,5,D02VA,440,test
641.0949230194092,3,1,5,2,0,4,H-,1,0,4,0,1000,250.0,0,D02VA,441,test
641.0539150238037,3,1,5,2,0,4,H-,1,0,4,0,1000,250.0,0,D02VA,442,test
881.1929225921631,3,1,5,2,0,4,H-,1,3,0,0,1000,250.0,3,D02VA,443,test
577.1830081939697,3,1,5,2,0,4,H-,1,0,4,0,1000,250.0,0,D02VA,444,test
561.2339973449707,3,1,5,2,0,4,H-,1,1,1,0,1000,250.0,1,D02VA,445,test
513.0329132080078,3,1,5,2,0,4,H-,1,3,0,0,1000,250.0,3,D02VA,446,test
593.1568145751953,3,1,5,2,0,4,H-,1,2,3,0,1000,250.0,2,D02VA,447,test
545.2039241790771,3,1,5,2,0,4,H-,1,0,4,0,1000,250.0,0,D02VA,448,test
865.0720119476318,3,1,5,2,0,4,H-,1,0,4,0,1000,250.0,0,D02VA,449,test
641.2510871887207,3,1,5,2,0,4,H-,1,2,3,0,1000,250.0,2,D02VA,450,test
609.1980934143066,3,1,5,2,0,4,H-,1,4,5,0,1000,250.0,4,D02VA,451,test
593.2009220123291,3,1,5,2,0,4,H-,1,1,1,0,1000,250.0,1,D02VA,452,test
593.1689739227295,3,1,5,2,0,4,H-,1,3,0,0,1000,250.0,3,D02VA,453,test
529.1759967803955,3,1,5,2,0,4,H-,1,0,4,0,1000,250.0,0,D02VA,454,test
577.2111415863037,3,1,5,2,0,4,H-,0,5,2,0,1000,250.0,4,D02VA,455,test
513.1809711456299,3,1,5,2,0,4,H-,1,1,1,0,1000,250.0,1,D02VA,456,test
785.398006439209,3,1,5,2,0,4,H-,0,4,5,0,1000,250.0,5,D02VA,457,test
625.1821517944336,3,1,5,2,0,4,H-,1,3,0,0,1000,250.0,3,D02VA,458,test
561.208963394165,3,1,5,2,0,4,H-,1,5,2,0,1000,250.0,5,D02VA,459,test
561.201810836792,3,1,5,2,0,4,H-,1,0,4,0,1000,250.0,0,D02VA,460,test
673.1619834899902,3,1,5,2,0,4,H-,0,3,0,0,1000,250.0,4,D02VA,461,test
609.2088222503662,3,1,5,2,0,4,H-,1,0,4,0,1000,250.0,0,D02VA,462,test
561.1350536346436,3,1,5,2,0,4,H-,1,3,0,0,1000,250.0,3,D02VA,463,test
689.2209053039551,3,1,5,2,0,4,H-,1,4,5,0,1000,250.0,4,D02VA,464,test
577.2340297698975,3,1,5,2,0,4,H-,1,2,3,0,1000,250.0,2,D02VA,465,test
705.2459716796875,3,1,5,2,0,4,H-,1,4,5,0,1000,250.0,4,D02VA,466,test
593.1181907653809,3,1,5,2,0,4,H-,1,5,2,0,1000,250.0,5,D02VA,467,test
577.1870613098145,3,1,5,2,0,4,H-,1,0,4,0,1000,250.0,0,D02VA,468,test
593.203067779541,3,1,5,2,0,4,H-,1,3,0,0,1000,250.0,3,D02VA,469,test
1777.285099029541,3,1,5,2,0,4,H-,1,0,4,0,1000,250.0,0,D02VA,470,test
625.1220703125,3,1,5,2,0,4,H-,1,3,0,0,1000,250.0,3,D02VA,471,test
545.1769828796387,3,1,5,2,0,4,H-,1,5,2,0,1000,250.0,5,D02VA,472,test
561.150074005127,3,1,5,2,0,4,H-,1,2,3,0,1000,250.0,2,D02VA,473,test
497.2069263458252,3,1,5,2,0,4,H-,1,5,2,0,1000,250.0,5,D02VA,474,test
561.1391067504883,3,1,5,2,0,4,H-,1,1,1,0,1000,250.0,1,D02VA,475,test
593.055009841919,3,1,5,2,0,4,H-,1,3,0,0,1000,250.0,3,D02VA,476,test
609.2379093170166,3,1,5,2,0,4,H-,1,2,3,0,1000,250.0,2,D02VA,477,test
1057.2659969329834,3,1,5,2,0,4,H-,0,3,0,0,1000,250.0,4,D02VA,478,test
161.23104095458984,3,1,5,2,0,4,H-,1,3,0,0,1000,250.0,3,D02VA,479,test
33.05983543395996,3,1,5,2,0,4,H-,0,4,5,0,1000,250.0,3,D02VA,480,test
161.24916076660156,3,1,5,2,0,4,H-,0,0,4,0,1000,250.0,1,D02VA,481,test
208.43815803527832,3,1,5,2,0,4,H-,1,0,4,0,1000,250.0,0,D02VA,482,test
11.5509033203125,3,1,5,2,0,4,H-,0,1,1,0,1000,250.0,0,D02VA,483,test
177.02889442443848,3,1,5,2,0,4,H-,0,1,1,0,1000,250.0,0,D02VA,484,test
33.05983543395996,3,1,5,2,0,4,H-,0,3,0,0,1000,250.0,2,D02VA,485,test
33.09893608093262,3,1,5,2,0,4,H-,0,2,3,0,1000,250.0,3,D02VA,486,test
273.2210159301758,3,1,5,2,0,4,H-,0,5,2,0,1000,250.0,4,D02VA,487,test
64.7730827331543,3,1,5,2,0,4,H-,0,4,5,0,1000,250.0,5,D02VA,488,test
0.050067901611328125,3,1,5,2,0,4,H-,0,0,4,0,1000,250.0,5,D02VA,489,test
528.6309719085693,3,1,5,2,0,4,H-,1,1,1,0,1000,250.0,1,D02VA,490,test
400.7680416107178,3,1,5,2,0,4,H-,1,1,1,0,1000,250.0,1,D02VA,491,test
544.82102394104,3,1,5,2,0,4,H-,1,2,3,0,1000,250.0,2,D02VA,492,test
560.7678890228271,3,1,5,2,0,4,H-,0,3,0,0,1000,250.0,4,D02VA,493,test
512.7561092376709,3,1,5,2,0,4,H-,1,1,1,0,1000,250.0,1,D02VA,494,test
688.6789798736572,3,1,5,2,0,4,H-,0,4,5,0,1000,250.0,3,D02VA,495,test
512.6338005065918,3,1,5,2,0,4,H-,0,5,2,0,1000,250.0,1,D02VA,496,test
480.49187660217285,3,1,5,2,0,4,H-,1,2,3,0,1000,250.0,2,D02VA,497,test
752.7899742126465,3,1,5,2,0,4,H-,1,4,5,0,1000,250.0,4,D02VA,498,test
352.5669574737549,3,1,5,2,0,4,H-,1,3,0,0,1000,250.0,3,D02VA,499,test
