RT,SRmap_0,SRmap_1,SRmap_2,SRmap_3,SRmap_4,SRmap_5,condition,correct,correct_response,curstim,ms-precue,ms-prestimblank,ntrials,response,subject,trial,type
9434.135913848877,4,2,5,1,0,3,E+,1,0,4,400,600,250.0,0,c22tgk,0,train
2378.4871101379395,4,2,5,1,0,3,E+,1,1,3,400,600,250.0,1,c22tgk,1,train
1579.239845275879,4,2,5,1,0,3,E+,1,0,4,400,600,250.0,0,c22tgk,2,train
458.5750102996826,4,2,5,1,0,3,E+,1,5,2,400,600,250.0,5,c22tgk,3,train
1211.0841274261475,4,2,5,1,0,3,E+,1,5,2,400,600,250.0,5,c22tgk,4,train
395.0159549713135,4,2,5,1,0,3,E+,1,0,4,400,600,250.0,0,c22tgk,5,train
346.8339443206787,4,2,5,1,0,3,E+,1,0,4,400,600,250.0,0,c22tgk,6,train
618.8910007476807,4,2,5,1,0,3,E+,1,0,4,400,600,250.0,0,c22tgk,7,train
1114.6979331970215,4,2,5,1,0,3,E+,1,3,5,400,600,250.0,3,c22tgk,8,train
523.0600833892822,4,2,5,1,0,3,E+,1,3,5,400,600,250.0,3,c22tgk,9,train
714.9851322174072,4,2,5,1,0,3,E+,1,2,1,400,600,250.0,2,c22tgk,10,train
427.1378517150879,4,2,5,1,0,3,E+,1,0,4,400,600,250.0,0,c22tgk,11,train
314.8529529571533,4,2,5,1,0,3,E+,1,5,2,400,600,250.0,5,c22tgk,12,train
203.05204391479492,4,2,5,1,0,3,E+,1,5,2,400,600,250.0,5,c22tgk,13,train
763.3500099182129,4,2,5,1,0,3,E+,1,0,4,400,600,250.0,0,c22tgk,14,train
731.5881252288818,4,2,5,1,0,3,E+,1,5,2,400,600,250.0,5,c22tgk,15,train
746.8521595001221,4,2,5,1,0,3,E+,0,2,1,400,600,250.0,1,c22tgk,16,train
682.9690933227539,4,2,5,1,0,3,E+,1,5,2,400,600,250.0,5,c22tgk,17,train
970.6549644470215,4,2,5,1,0,3,E+,1,4,0,400,600,250.0,4,c22tgk,18,train
651.2510776519775,4,2,5,1,0,3,E+,1,3,5,400,600,250.0,3,c22tgk,19,train
283.2810878753662,4,2,5,1,0,3,E+,1,4,0,400,600,250.0,4,c22tgk,20,train
1098.6599922180176,4,2,5,1,0,3,E+,1,5,2,400,600,250.0,5,c22tgk,21,train
1066.352128982544,4,2,5,1,0,3,E+,1,1,3,400,600,250.0,1,c22tgk,22,train
426.85699462890625,4,2,5,1,0,3,E+,1,5,2,400,600,250.0,5,c22tgk,23,train
586.6589546203613,4,2,5,1,0,3,E+,1,1,3,400,600,250.0,1,c22tgk,24,train
538.8369560241699,4,2,5,1,0,3,E+,1,4,0,400,600,250.0,4,c22tgk,25,train
906.6228866577148,4,2,5,1,0,3,E+,1,4,0,400,600,250.0,4,c22tgk,26,train
410.3281497955322,4,2,5,1,0,3,E+,1,5,2,400,600,250.0,5,c22tgk,27,train
523.0600833892822,4,2,5,1,0,3,E+,0,1,3,400,600,250.0,0,c22tgk,28,train
1483.107089996338,4,2,5,1,0,3,E+,1,2,1,400,600,250.0,2,c22tgk,29,train
91.03012084960938,4,2,5,1,0,3,E+,1,1,3,400,600,250.0,1,c22tgk,30,train
426.3579845428467,4,2,5,1,0,3,E+,1,3,5,400,600,250.0,3,c22tgk,31,train
56.8540096282959,4,2,5,1,0,3,E+,1,0,4,400,600,250.0,0,c22tgk,32,train
426.55396461486816,4,2,5,1,0,3,E+,1,4,0,400,600,250.0,4,c22tgk,33,train
104.99191284179688,4,2,5,1,0,3,E+,1,5,2,400,600,250.0,5,c22tgk,34,train
266.7431831359863,4,2,5,1,0,3,E+,0,3,5,400,600,250.0,2,c22tgk,35,train
2074.881076812744,4,2,5,1,0,3,E+,1,5,2,400,600,250.0,5,c22tgk,36,train
603.693962097168,4,2,5,1,0,3,E+,1,1,3,400,600,250.0,1,c22tgk,37,train
1514.7788524627686,4,2,5,1,0,3,E+,1,3,5,400,600,250.0,3,c22tgk,38,train
282.9930782318115,4,2,5,1,0,3,E+,1,5,2,400,600,250.0,5,c22tgk,39,train
474.96700286865234,4,2,5,1,0,3,E+,1,2,1,400,600,250.0,2,c22tgk,40,train
315.25516510009766,4,2,5,1,0,3,E+,1,5,2,400,600,250.0,5,c22tgk,41,train
154.91890907287598,4,2,5,1,0,3,E+,1,5,2,400,600,250.0,5,c22tgk,42,train
731.2450408935547,4,2,5,1,0,3,E+,1,3,5,400,600,250.0,3,c22tgk,43,train
283.1850051879883,4,2,5,1,0,3,E+,1,5,2,400,600,250.0,5,c22tgk,44,train
570.9199905395508,4,2,5,1,0,3,E+,1,1,3,400,600,250.0,1,c22tgk,45,train
938.8608932495117,4,2,5,1,0,3,E+,1,1,3,400,600,250.0,1,c22tgk,46,train
1322.7388858795166,4,2,5,1,0,3,E+,1,2,1,400,600,250.0,2,c22tgk,47,train
362.199068069458,4,2,5,1,0,3,E+,1,1,3,400,600,250.0,1,c22tgk,48,train
2122.8530406951904,4,2,5,1,0,3,E+,1,4,0,400,600,250.0,4,c22tgk,49,train
475.0211238861084,4,2,5,1,0,3,E+,1,1,3,400,600,250.0,1,c22tgk,50,train
10.990142822265625,4,2,5,1,0,3,E+,1,0,4,400,600,250.0,0,c22tgk,51,train
218.67799758911133,4,2,5,1,0,3,E+,1,3,5,400,600,250.0,3,c22tgk,52,train
618.4170246124268,4,2,5,1,0,3,E+,1,4,0,400,600,250.0,4,c22tgk,53,train
58.88986587524414,4,2,5,1,0,3,E+,1,1,3,400,600,250.0,1,c22tgk,54,train
314.6700859069824,4,2,5,1,0,3,E+,1,3,5,400,600,250.0,3,c22tgk,55,train
0.11587142944335938,4,2,5,1,0,3,E+,1,0,4,400,600,250.0,0,c22tgk,56,train
43.04003715515137,4,2,5,1,0,3,E+,1,0,4,400,600,250.0,0,c22tgk,57,train
411.10706329345703,4,2,5,1,0,3,E+,1,1,3,400,600,250.0,1,c22tgk,58,train
442.8439140319824,4,2,5,1,0,3,E+,1,1,3,400,600,250.0,1,c22tgk,59,train
107.6347827911377,4,2,5,1,0,3,E+,1,1,3,400,600,250.0,1,c22tgk,60,train
11.044979095458984,4,2,5,1,0,3,E+,1,1,3,400,600,250.0,1,c22tgk,61,train
154.7110080718994,4,2,5,1,0,3,E+,1,2,1,400,600,250.0,2,c22tgk,62,train
251.16205215454102,4,2,5,1,0,3,E+,1,1,3,400,600,250.0,1,c22tgk,63,train
730.8530807495117,4,2,5,1,0,3,E+,1,1,3,400,600,250.0,1,c22tgk,64,train
56.77485466003418,4,2,5,1,0,3,E+,1,0,4,400,600,250.0,0,c22tgk,65,train
298.799991607666,4,2,5,1,0,3,E+,1,5,2,400,600,250.0,5,c22tgk,66,train
74.67103004455566,4,2,5,1,0,3,E+,1,0,4,400,600,250.0,0,c22tgk,67,train
235.0771427154541,4,2,5,1,0,3,E+,1,2,1,400,600,250.0,2,c22tgk,68,train
90.77215194702148,4,2,5,1,0,3,E+,1,0,4,400,600,250.0,0,c22tgk,69,train
298.753023147583,4,2,5,1,0,3,E+,1,3,5,400,600,250.0,3,c22tgk,70,train
59.06486511230469,4,2,5,1,0,3,E+,1,5,2,400,600,250.0,5,c22tgk,71,train
299.07798767089844,4,2,5,1,0,3,E+,1,2,1,400,600,250.0,2,c22tgk,72,train
218.8129425048828,4,2,5,1,0,3,E+,1,4,0,400,600,250.0,4,c22tgk,73,train
42.78111457824707,4,2,5,1,0,3,E+,1,0,4,400,600,250.0,0,c22tgk,74,train
106.90093040466309,4,2,5,1,0,3,E+,1,0,4,400,600,250.0,0,c22tgk,75,train
858.5538864135742,4,2,5,1,0,3,E+,1,5,2,400,600,250.0,5,c22tgk,76,train
218.81103515625,4,2,5,1,0,3,E+,1,0,4,400,600,250.0,0,c22tgk,77,train
74.70011711120605,4,2,5,1,0,3,E+,1,5,2,400,600,250.0,5,c22tgk,78,train
218.8119888305664,4,2,5,1,0,3,E+,1,3,5,400,600,250.0,3,c22tgk,79,train
90.96097946166992,4,2,5,1,0,3,E+,1,4,0,400,600,250.0,4,c22tgk,80,train
11.034965515136719,4,2,5,1,0,3,E+,0,1,3,400,600,250.0,3,c22tgk,81,train
138.61083984375,4,2,5,1,0,3,E+,1,0,4,400,600,250.0,0,c22tgk,82,train
314.8689270019531,4,2,5,1,0,3,E+,1,1,3,400,600,250.0,1,c22tgk,83,train
58.646202087402344,4,2,5,1,0,3,E+,1,2,1,400,600,250.0,2,c22tgk,84,train
298.79093170166016,4,2,5,1,0,3,E+,1,4,0,400,600,250.0,4,c22tgk,85,train
394.67692375183105,4,2,5,1,0,3,E+,1,3,5,400,600,250.0,3,c22tgk,86,train
90.96193313598633,4,2,5,1,0,3,E+,1,3,5,400,600,250.0,3,c22tgk,87,train
538.809061050415,4,2,5,1,0,3,E+,1,5,2,400,600,250.0,5,c22tgk,88,train
379.08387184143066,4,2,5,1,0,3,E+,1,3,5,400,600,250.0,3,c22tgk,89,train
154.70504760742188,4,2,5,1,0,3,E+,1,3,5,400,600,250.0,3,c22tgk,90,train
587.1200561523438,4,2,5,1,0,3,E+,0,2,1,400,600,250.0,1,c22tgk,91,train
218.8100814819336,4,2,5,1,0,3,E+,1,2,1,400,600,250.0,2,c22tgk,92,train
378.6311149597168,4,2,5,1,0,3,E+,1,1,3,400,600,250.0,1,c22tgk,93,train
363.8629913330078,4,2,5,1,0,3,E+,1,3,5,400,600,250.0,3,c22tgk,94,train
379.07886505126953,4,2,5,1,0,3,E+,1,5,2,400,600,250.0,5,c22tgk,95,train
186.87081336975098,4,2,5,1,0,3,E+,1,3,5,400,600,250.0,3,c22tgk,96,train
139.24384117126465,4,2,5,1,0,3,E+,1,1,3,400,600,250.0,1,c22tgk,97,train
250.8690357208252,4,2,5,1,0,3,E+,1,4,0,400,600,250.0,4,c22tgk,98,train
395.0040340423584,4,2,5,1,0,3,E+,1,2,1,400,600,250.0,2,c22tgk,99,train
186.78593635559082,4,2,5,1,0,3,E+,1,4,0,400,600,250.0,4,c22tgk,100,train
75.07514953613281,4,2,5,1,0,3,E+,1,0,4,400,600,250.0,0,c22tgk,101,train
186.68484687805176,4,2,5,1,0,3,E+,1,2,1,400,600,250.0,2,c22tgk,102,train
122.98989295959473,4,2,5,1,0,3,E+,1,2,1,400,600,250.0,2,c22tgk,103,train
136.4881992340088,4,2,5,1,0,3,E+,1,2,1,400,600,250.0,2,c22tgk,104,train
138.58699798583984,4,2,5,1,0,3,E+,1,5,2,400,600,250.0,5,c22tgk,105,train
378.6180019378662,4,2,5,1,0,3,E+,1,3,5,400,600,250.0,3,c22tgk,106,train
0.18405914306640625,4,2,5,1,0,3,E+,1,3,5,400,600,250.0,3,c22tgk,107,train
218.89495849609375,4,2,5,1,0,3,E+,1,1,3,400,600,250.0,1,c22tgk,108,train
0.1659393310546875,4,2,5,1,0,3,E+,1,0,4,400,600,250.0,0,c22tgk,109,train
58.79402160644531,4,2,5,1,0,3,E+,0,2,1,400,600,250.0,1,c22tgk,110,train
107.03492164611816,4,2,5,1,0,3,E+,1,0,4,400,600,250.0,0,c22tgk,111,train
170.81499099731445,4,2,5,1,0,3,E+,1,3,5,400,600,250.0,3,c22tgk,112,train
27.114152908325195,4,2,5,1,0,3,E+,1,0,4,400,600,250.0,0,c22tgk,113,train
10.866880416870117,4,2,5,1,0,3,E+,1,3,5,400,600,250.0,3,c22tgk,114,train
43.107032775878906,4,2,5,1,0,3,E+,1,5,2,400,600,250.0,5,c22tgk,115,train
122.02000617980957,4,2,5,1,0,3,E+,1,4,0,400,600,250.0,4,c22tgk,116,train
90.93403816223145,4,2,5,1,0,3,E+,1,2,1,400,600,250.0,2,c22tgk,117,train
42.36912727355957,4,2,5,1,0,3,E+,1,4,0,400,600,250.0,4,c22tgk,118,train
186.8431568145752,4,2,5,1,0,3,E+,1,4,0,400,600,250.0,4,c22tgk,119,train
90.99793434143066,4,2,5,1,0,3,E+,1,1,3,400,600,250.0,1,c22tgk,120,train
123.10099601745605,4,2,5,1,0,3,E+,1,4,0,400,600,250.0,4,c22tgk,121,train
91.18986129760742,4,2,5,1,0,3,E+,1,0,4,400,600,250.0,0,c22tgk,122,train
90.85392951965332,4,2,5,1,0,3,E+,1,5,2,400,600,250.0,5,c22tgk,123,train
345.95799446105957,4,2,5,1,0,3,E+,1,3,5,400,600,250.0,3,c22tgk,124,train
170.77302932739258,4,2,5,1,0,3,E+,1,5,2,400,600,250.0,5,c22tgk,125,train
154.87194061279297,4,2,5,1,0,3,E+,1,4,0,400,600,250.0,4,c22tgk,126,train
89.75505828857422,4,2,5,1,0,3,E+,1,0,4,400,600,250.0,0,c22tgk,127,train
250.92697143554688,4,2,5,1,0,3,E+,1,3,5,400,600,250.0,3,c22tgk,128,train
10.96200942993164,4,2,5,1,0,3,E+,1,5,2,400,600,250.0,5,c22tgk,129,train
8.856058120727539,4,2,5,1,0,3,E+,1,0,4,400,600,250.0,0,c22tgk,130,train
58.875083923339844,4,2,5,1,0,3,E+,1,5,2,400,600,250.0,5,c22tgk,131,train
27.07195281982422,4,2,5,1,0,3,E+,1,0,4,400,600,250.0,0,c22tgk,132,train
250.9620189666748,4,2,5,1,0,3,E+,1,2,1,400,600,250.0,2,c22tgk,133,train
0.17118453979492188,4,2,5,1,0,3,E+,1,0,4,400,600,250.0,0,c22tgk,134,train
59.01384353637695,4,2,5,1,0,3,E+,1,5,2,400,600,250.0,5,c22tgk,135,train
170.83096504211426,4,2,5,1,0,3,E+,0,2,1,400,600,250.0,3,c22tgk,136,train
138.93485069274902,4,2,5,1,0,3,E+,1,1,3,400,600,250.0,1,c22tgk,137,train
11.254072189331055,4,2,5,1,0,3,E+,1,0,4,400,600,250.0,0,c22tgk,138,train
74.49102401733398,4,2,5,1,0,3,E+,1,2,1,400,600,250.0,2,c22tgk,139,train
122.90406227111816,4,2,5,1,0,3,E+,1,3,5,400,600,250.0,3,c22tgk,140,train
91.99714660644531,4,2,5,1,0,3,E+,1,4,0,400,600,250.0,4,c22tgk,141,train
411.18812561035156,4,2,5,1,0,3,E+,1,3,5,400,600,250.0,3,c22tgk,142,train
88.86408805847168,4,2,5,1,0,3,E+,1,1,3,400,600,250.0,1,c22tgk,143,train
24.884939193725586,4,2,5,1,0,3,E+,1,5,2,400,600,250.0,5,c22tgk,144,train
122.68209457397461,4,2,5,1,0,3,E+,1,2,1,400,600,250.0,2,c22tgk,145,train
106.86087608337402,4,2,5,1,0,3,E+,1,2,1,400,600,250.0,2,c22tgk,146,train
106.95004463195801,4,2,5,1,0,3,E+,1,4,0,400,600,250.0,4,c22tgk,147,train
122.89094924926758,4,2,5,1,0,3,E+,1,2,1,400,600,250.0,2,c22tgk,148,train
779.2069911956787,4,2,5,1,0,3,E+,1,1,3,400,600,250.0,1,c22tgk,149,train
26.68595314025879,4,2,5,1,0,3,E+,1,1,3,400,600,250.0,1,c22tgk,150,train
75.06299018859863,4,2,5,1,0,3,E+,1,4,0,400,600,250.0,4,c22tgk,151,train
250.83398818969727,4,2,5,1,0,3,E+,1,2,1,400,600,250.0,2,c22tgk,152,train
136.98410987854004,4,2,5,1,0,3,E+,1,5,2,400,600,250.0,5,c22tgk,153,train
234.94195938110352,4,2,5,1,0,3,E+,0,3,5,400,600,250.0,2,c22tgk,154,train
122.94387817382812,4,2,5,1,0,3,E+,1,2,1,400,600,250.0,2,c22tgk,155,train
170.8998680114746,4,2,5,1,0,3,E+,1,2,1,400,600,250.0,2,c22tgk,156,train
75.83117485046387,4,2,5,1,0,3,E+,1,1,3,400,600,250.0,1,c22tgk,157,train
200.61492919921875,4,2,5,1,0,3,E+,1,3,5,400,600,250.0,3,c22tgk,158,train
26.65996551513672,4,2,5,1,0,3,E+,1,0,4,400,600,250.0,0,c22tgk,159,train
42.511940002441406,4,2,5,1,0,3,E+,1,5,2,400,600,250.0,5,c22tgk,160,train
58.67314338684082,4,2,5,1,0,3,E+,1,5,2,400,600,250.0,5,c22tgk,161,train
251.14703178405762,4,2,5,1,0,3,E+,1,3,5,400,600,250.0,3,c22tgk,162,train
0.12183189392089844,4,2,5,1,0,3,E+,1,5,2,400,600,250.0,5,c22tgk,163,train
266.79015159606934,4,2,5,1,0,3,E+,1,2,1,400,600,250.0,2,c22tgk,164,train
201.83992385864258,4,2,5,1,0,3,E+,1,4,0,400,600,250.0,4,c22tgk,165,train
75.1349925994873,4,2,5,1,0,3,E+,1,5,2,400,600,250.0,5,c22tgk,166,train
187.13617324829102,4,2,5,1,0,3,E+,1,4,0,400,600,250.0,4,c22tgk,167,train
0.17690658569335938,4,2,5,1,0,3,E+,1,5,2,400,600,250.0,5,c22tgk,168,train
137.88080215454102,4,2,5,1,0,3,E+,1,5,2,400,600,250.0,5,c22tgk,169,train
330.95383644104004,4,2,5,1,0,3,E+,1,3,5,400,600,250.0,3,c22tgk,170,train
187.98589706420898,4,2,5,1,0,3,E+,1,0,4,400,600,250.0,0,c22tgk,171,train
138.7619972229004,4,2,5,1,0,3,E+,1,0,4,400,600,250.0,0,c22tgk,172,train
74.60808753967285,4,2,5,1,0,3,E+,1,0,4,400,600,250.0,0,c22tgk,173,train
170.8989143371582,4,2,5,1,0,3,E+,1,3,5,400,600,250.0,3,c22tgk,174,train
106.10795021057129,4,2,5,1,0,3,E+,1,3,5,400,600,250.0,3,c22tgk,175,train
202.78215408325195,4,2,5,1,0,3,E+,1,1,3,400,600,250.0,1,c22tgk,176,train
58.71891975402832,4,2,5,1,0,3,E+,1,3,5,400,600,250.0,3,c22tgk,177,train
0.12803077697753906,4,2,5,1,0,3,E+,1,1,3,400,600,250.0,1,c22tgk,178,train
154.6928882598877,4,2,5,1,0,3,E+,1,1,3,400,600,250.0,1,c22tgk,179,train
139.04404640197754,4,2,5,1,0,3,E+,1,1,3,400,600,250.0,1,c22tgk,180,train
58.65597724914551,4,2,5,1,0,3,E+,1,0,4,400,600,250.0,0,c22tgk,181,train
251.20997428894043,4,2,5,1,0,3,E+,1,5,2,400,600,250.0,5,c22tgk,182,train
27.003049850463867,4,2,5,1,0,3,E+,1,5,2,400,600,250.0,5,c22tgk,183,train
586.5058898925781,4,2,5,1,0,3,E+,1,2,1,400,600,250.0,2,c22tgk,184,train
234.24386978149414,4,2,5,1,0,3,E+,1,0,4,400,600,250.0,0,c22tgk,185,train
91.19987487792969,4,2,5,1,0,3,E+,1,5,2,400,600,250.0,5,c22tgk,186,train
459.1550827026367,4,2,5,1,0,3,E+,1,2,1,400,600,250.0,2,c22tgk,187,train
136.8579864501953,4,2,5,1,0,3,E+,1,0,4,400,600,250.0,0,c22tgk,188,train
330.9330940246582,4,2,5,1,0,3,E+,1,0,4,400,600,250.0,0,c22tgk,189,train
216.60614013671875,4,2,5,1,0,3,E+,1,0,4,400,600,250.0,0,c22tgk,190,train
394.8969841003418,4,2,5,1,0,3,E+,1,5,2,400,600,250.0,5,c22tgk,191,train
395.0650691986084,4,2,5,1,0,3,E+,1,1,3,400,600,250.0,1,c22tgk,192,train
123.09598922729492,4,2,5,1,0,3,E+,1,0,4,400,600,250.0,0,c22tgk,193,train
0.17213821411132812,4,2,5,1,0,3,E+,1,2,1,400,600,250.0,2,c22tgk,194,train
250.48589706420898,4,2,5,1,0,3,E+,1,4,0,400,600,250.0,4,c22tgk,195,train
74.2189884185791,4,2,5,1,0,3,E+,1,0,4,400,600,250.0,0,c22tgk,196,train
474.75409507751465,4,2,5,1,0,3,E+,1,4,0,400,600,250.0,4,c22tgk,197,train
187.09802627563477,4,2,5,1,0,3,E+,1,4,0,400,600,250.0,4,c22tgk,198,train
58.31098556518555,4,2,5,1,0,3,E+,1,4,0,400,600,250.0,4,c22tgk,199,train
202.58188247680664,4,2,5,1,0,3,E+,1,1,3,400,600,250.0,1,c22tgk,200,train
0.1609325408935547,4,2,5,1,0,3,E+,1,2,1,400,600,250.0,2,c22tgk,201,train
363.18302154541016,4,2,5,1,0,3,E+,1,3,5,400,600,250.0,3,c22tgk,202,train
8.247852325439453,4,2,5,1,0,3,E+,1,0,4,400,600,250.0,0,c22tgk,203,train
11.197090148925781,4,2,5,1,0,3,E+,1,5,2,400,600,250.0,5,c22tgk,204,train
11.021137237548828,4,2,5,1,0,3,E+,1,3,5,400,600,250.0,3,c22tgk,205,train
170.86505889892578,4,2,5,1,0,3,E+,1,5,2,400,600,250.0,5,c22tgk,206,train
43.14303398132324,4,2,5,1,0,3,E+,1,3,5,400,600,250.0,3,c22tgk,207,train
11.183977127075195,4,2,5,1,0,3,E+,1,0,4,400,600,250.0,0,c22tgk,208,train
267.35496520996094,4,2,5,1,0,3,E+,1,5,2,400,600,250.0,5,c22tgk,209,train
136.98196411132812,4,2,5,1,0,3,E+,1,3,5,400,600,250.0,3,c22tgk,210,train
107.31101036071777,4,2,5,1,0,3,E+,1,2,1,400,600,250.0,2,c22tgk,211,train
10.769844055175781,4,2,5,1,0,3,E+,0,4,0,400,600,250.0,5,c22tgk,212,train
202.86798477172852,4,2,5,1,0,3,E+,1,2,1,400,600,250.0,2,c22tgk,213,train
0.16999244689941406,4,2,5,1,0,3,E+,1,2,1,400,600,250.0,2,c22tgk,214,train
72.72195816040039,4,2,5,1,0,3,E+,1,5,2,400,600,250.0,5,c22tgk,215,train
91.10808372497559,4,2,5,1,0,3,E+,1,2,1,400,600,250.0,2,c22tgk,216,train
73.29916954040527,4,2,5,1,0,3,E+,1,4,0,400,600,250.0,4,c22tgk,217,train
155.13896942138672,4,2,5,1,0,3,E+,0,2,1,400,600,250.0,3,c22tgk,218,train
168.93696784973145,4,2,5,1,0,3,E+,1,3,5,400,600,250.0,3,c22tgk,219,train
40.11201858520508,4,2,5,1,0,3,E+,1,4,0,400,600,250.0,4,c22tgk,220,train
186.87176704406738,4,2,5,1,0,3,E+,1,4,0,400,600,250.0,4,c22tgk,221,train
106.84990882873535,4,2,5,1,0,3,E+,1,4,0,400,600,250.0,4,c22tgk,222,train
90.75307846069336,4,2,5,1,0,3,E+,1,0,4,400,600,250.0,0,c22tgk,223,train
346.44007682800293,4,2,5,1,0,3,E+,1,3,5,400,600,250.0,3,c22tgk,224,train
59.03196334838867,4,2,5,1,0,3,E+,1,0,4,400,600,250.0,0,c22tgk,225,train
155.0450325012207,4,2,5,1,0,3,E+,1,4,0,400,600,250.0,4,c22tgk,226,train
123.1229305267334,4,2,5,1,0,3,E+,1,5,2,400,600,250.0,5,c22tgk,227,train
24.773836135864258,4,2,5,1,0,3,E+,1,3,5,400,600,250.0,3,c22tgk,228,train
74.94497299194336,4,2,5,1,0,3,E+,1,4,0,400,600,250.0,4,c22tgk,229,train
491.1041259765625,4,2,5,1,0,3,E+,1,0,4,400,600,250.0,0,c22tgk,230,train
266.8890953063965,4,2,5,1,0,3,E+,1,4,0,400,600,250.0,4,c22tgk,231,train
184.72909927368164,4,2,5,1,0,3,E+,1,3,5,400,600,250.0,3,c22tgk,232,train
0.14400482177734375,4,2,5,1,0,3,E+,1,3,5,400,600,250.0,3,c22tgk,233,train
283.04004669189453,4,2,5,1,0,3,E+,1,2,1,400,600,250.0,2,c22tgk,234,train
90.95597267150879,4,2,5,1,0,3,E+,1,5,2,400,600,250.0,5,c22tgk,235,train
282.97996520996094,4,2,5,1,0,3,E+,1,3,5,400,600,250.0,3,c22tgk,236,train
122.92003631591797,4,2,5,1,0,3,E+,1,5,2,400,600,250.0,5,c22tgk,237,train
184.6330165863037,4,2,5,1,0,3,E+,1,2,1,400,600,250.0,2,c22tgk,238,train
185.30988693237305,4,2,5,1,0,3,E+,1,2,1,400,600,250.0,2,c22tgk,239,train
42.77801513671875,4,2,5,1,0,3,E+,1,0,4,400,600,250.0,0,c22tgk,240,train
9.871959686279297,4,2,5,1,0,3,E+,1,0,4,400,600,250.0,0,c22tgk,241,train
104.95185852050781,4,2,5,1,0,3,E+,1,3,5,400,600,250.0,3,c22tgk,242,train
138.69690895080566,4,2,5,1,0,3,E+,1,1,3,400,600,250.0,1,c22tgk,243,train
123.63219261169434,4,2,5,1,0,3,E+,1,1,3,400,600,250.0,1,c22tgk,244,train
456.7279815673828,4,2,5,1,0,3,E+,1,4,0,400,600,250.0,4,c22tgk,245,train
138.41700553894043,4,2,5,1,0,3,E+,1,2,1,400,600,250.0,2,c22tgk,246,train
11.035919189453125,4,2,5,1,0,3,E+,1,0,4,400,600,250.0,0,c22tgk,247,train
186.7809295654297,4,2,5,1,0,3,E+,1,1,3,400,600,250.0,1,c22tgk,248,train
184.71789360046387,4,2,5,1,0,3,E+,1,4,0,400,600,250.0,4,c22tgk,249,train
10305.049896240234,4,2,5,1,0,3,E+,1,3,5,0,1000,250.0,3,c22tgk,250,test
992.9008483886719,4,2,5,1,0,3,E+,1,5,2,0,1000,250.0,5,c22tgk,251,test
1312.5848770141602,4,2,5,1,0,3,E+,1,3,5,0,1000,250.0,3,c22tgk,252,test
2368.466854095459,4,2,5,1,0,3,E+,1,2,1,0,1000,250.0,2,c22tgk,253,test
2496.7288970947266,4,2,5,1,0,3,E+,1,2,1,0,1000,250.0,2,c22tgk,254,test
1520.888090133667,4,2,5,1,0,3,E+,1,0,4,0,1000,250.0,0,c22tgk,255,test
1600.8448600769043,4,2,5,1,0,3,E+,1,3,5,0,1000,250.0,3,c22tgk,256,test
1184.2269897460938,4,2,5,1,0,3,E+,1,1,3,0,1000,250.0,1,c22tgk,257,test
2096.4319705963135,4,2,5,1,0,3,E+,1,2,1,0,1000,250.0,2,c22tgk,258,test
816.7200088500977,4,2,5,1,0,3,E+,1,0,4,0,1000,250.0,0,c22tgk,259,test
783.1099033355713,4,2,5,1,0,3,E+,1,5,2,0,1000,250.0,5,c22tgk,260,test
449.01490211486816,4,2,5,1,0,3,E+,1,4,0,0,1000,250.0,4,c22tgk,261,test
1056.797981262207,4,2,5,1,0,3,E+,1,1,3,0,1000,250.0,1,c22tgk,262,test
1025.0351428985596,4,2,5,1,0,3,E+,0,4,0,0,1000,250.0,5,c22tgk,263,test
1376.5289783477783,4,2,5,1,0,3,E+,1,3,5,0,1000,250.0,3,c22tgk,264,test
704.7069072723389,4,2,5,1,0,3,E+,1,5,2,0,1000,250.0,5,c22tgk,265,test
640.7449245452881,4,2,5,1,0,3,E+,1,5,2,0,1000,250.0,5,c22tgk,266,test
1550.8430004119873,4,2,5,1,0,3,E+,1,2,1,0,1000,250.0,2,c22tgk,267,test
1104.598045349121,4,2,5,1,0,3,E+,1,3,5,0,1000,250.0,3,c22tgk,268,test
1568.7689781188965,4,2,5,1,0,3,E+,1,5,2,0,1000,250.0,5,c22tgk,269,test
1936.7051124572754,4,2,5,1,0,3,E+,1,2,1,0,1000,250.0,2,c22tgk,270,test
1024.9919891357422,4,2,5,1,0,3,E+,1,2,1,0,1000,250.0,2,c22tgk,271,test
2400.8078575134277,4,2,5,1,0,3,E+,1,4,0,0,1000,250.0,4,c22tgk,272,test
704.89501953125,4,2,5,1,0,3,E+,1,5,2,0,1000,250.0,5,c22tgk,273,test
1104.6578884124756,4,2,5,1,0,3,E+,1,2,1,0,1000,250.0,2,c22tgk,274,test
816.8849945068359,4,2,5,1,0,3,E+,1,2,1,0,1000,250.0,2,c22tgk,275,test
2736.7279529571533,4,2,5,1,0,3,E+,1,3,5,0,1000,250.0,3,c22tgk,276,test
1440.816879272461,4,2,5,1,0,3,E+,1,3,5,0,1000,250.0,3,c22tgk,277,test
1008.6770057678223,4,2,5,1,0,3,E+,1,2,1,0,1000,250.0,2,c22tgk,278,test
1520.603895187378,4,2,5,1,0,3,E+,1,4,0,0,1000,250.0,4,c22tgk,279,test
849.0228652954102,4,2,5,1,0,3,E+,1,2,1,0,1000,250.0,2,c22tgk,280,test
912.837028503418,4,2,5,1,0,3,E+,1,2,1,0,1000,250.0,2,c22tgk,281,test
864.872932434082,4,2,5,1,0,3,E+,1,0,4,0,1000,250.0,0,c22tgk,282,test
1118.636131286621,4,2,5,1,0,3,E+,1,4,0,0,1000,250.0,4,c22tgk,283,test
672.8739738464355,4,2,5,1,0,3,E+,1,0,4,0,1000,250.0,0,c22tgk,284,test
512.4239921569824,4,2,5,1,0,3,E+,1,0,4,0,1000,250.0,0,c22tgk,285,test
864.799976348877,4,2,5,1,0,3,E+,1,1,3,0,1000,250.0,1,c22tgk,286,test
705.1739692687988,4,2,5,1,0,3,E+,1,5,2,0,1000,250.0,5,c22tgk,287,test
736.8440628051758,4,2,5,1,0,3,E+,1,1,3,0,1000,250.0,1,c22tgk,288,test
1201.0369300842285,4,2,5,1,0,3,E+,1,4,0,0,1000,250.0,4,c22tgk,289,test
1328.7708759307861,4,2,5,1,0,3,E+,1,3,5,0,1000,250.0,3,c22tgk,290,test
1984.8129749298096,4,2,5,1,0,3,E+,1,2,1,0,1000,250.0,2,c22tgk,291,test
1424.6909618377686,4,2,5,1,0,3,E+,1,3,5,0,1000,250.0,3,c22tgk,292,test
688.0841255187988,4,2,5,1,0,3,E+,1,3,5,0,1000,250.0,3,c22tgk,293,test
609.0531349182129,4,2,5,1,0,3,E+,1,5,2,0,1000,250.0,5,c22tgk,294,test
416.92113876342773,4,2,5,1,0,3,E+,1,4,0,0,1000,250.0,4,c22tgk,295,test
864.854097366333,4,2,5,1,0,3,E+,1,4,0,0,1000,250.0,4,c22tgk,296,test
1152.9619693756104,4,2,5,1,0,3,E+,1,2,1,0,1000,250.0,2,c22tgk,297,test
1183.7658882141113,4,2,5,1,0,3,E+,0,4,0,0,1000,250.0,5,c22tgk,298,test
1120.2001571655273,4,2,5,1,0,3,E+,1,2,1,0,1000,250.0,2,c22tgk,299,test
1440.6960010528564,4,2,5,1,0,3,E+,1,3,5,0,1000,250.0,3,c22tgk,300,test
638.7600898742676,4,2,5,1,0,3,E+,1,0,4,0,1000,250.0,0,c22tgk,301,test
449.0079879760742,4,2,5,1,0,3,E+,1,0,4,0,1000,250.0,0,c22tgk,302,test
784.72900390625,4,2,5,1,0,3,E+,1,2,1,0,1000,250.0,2,c22tgk,303,test
1504.7409534454346,4,2,5,1,0,3,E+,1,3,5,0,1000,250.0,3,c22tgk,304,test
814.824104309082,4,2,5,1,0,3,E+,1,5,2,0,1000,250.0,5,c22tgk,305,test
721.1499214172363,4,2,5,1,0,3,E+,1,1,3,0,1000,250.0,1,c22tgk,306,test
864.5768165588379,4,2,5,1,0,3,E+,1,5,2,0,1000,250.0,5,c22tgk,307,test
688.9619827270508,4,2,5,1,0,3,E+,1,1,3,0,1000,250.0,1,c22tgk,308,test
1089.2748832702637,4,2,5,1,0,3,E+,1,5,2,0,1000,250.0,5,c22tgk,309,test
576.6401290893555,4,2,5,1,0,3,E+,1,0,4,0,1000,250.0,0,c22tgk,310,test
353.14393043518066,4,2,5,1,0,3,E+,1,0,4,0,1000,250.0,0,c22tgk,311,test
736.720085144043,4,2,5,1,0,3,E+,1,1,3,0,1000,250.0,1,c22tgk,312,test
1264.9869918823242,4,2,5,1,0,3,E+,1,3,5,0,1000,250.0,3,c22tgk,313,test
705.0948143005371,4,2,5,1,0,3,E+,1,0,4,0,1000,250.0,0,c22tgk,314,test
1217.0238494873047,4,2,5,1,0,3,E+,1,3,5,0,1000,250.0,3,c22tgk,315,test
688.784122467041,4,2,5,1,0,3,E+,1,3,5,0,1000,250.0,3,c22tgk,316,test
960.7880115509033,4,2,5,1,0,3,E+,1,4,0,0,1000,250.0,4,c22tgk,317,test
688.4160041809082,4,2,5,1,0,3,E+,1,4,0,0,1000,250.0,4,c22tgk,318,test
2417.05322265625,4,2,5,1,0,3,E+,1,3,5,0,1000,250.0,3,c22tgk,319,test
1024.543046951294,4,2,5,1,0,3,E+,1,2,1,0,1000,250.0,2,c22tgk,320,test
1472.9390144348145,4,2,5,1,0,3,E+,1,5,2,0,1000,250.0,5,c22tgk,321,test
896.4910507202148,4,2,5,1,0,3,E+,1,1,3,0,1000,250.0,1,c22tgk,322,test
1328.7479877471924,4,2,5,1,0,3,E+,1,3,5,0,1000,250.0,3,c22tgk,323,test
1182.7139854431152,4,2,5,1,0,3,E+,1,3,5,0,1000,250.0,3,c22tgk,324,test
1632.9951286315918,4,2,5,1,0,3,E+,1,3,5,0,1000,250.0,3,c22tgk,325,test
864.8171424865723,4,2,5,1,0,3,E+,1,3,5,0,1000,250.0,3,c22tgk,326,test
832.7088356018066,4,2,5,1,0,3,E+,1,0,4,0,1000,250.0,0,c22tgk,327,test
1504.6050548553467,4,2,5,1,0,3,E+,1,4,0,0,1000,250.0,4,c22tgk,328,test
736.807107925415,4,2,5,1,0,3,E+,1,2,1,0,1000,250.0,2,c22tgk,329,test
49.61585998535156,4,2,5,1,0,3,E+,0,0,4,0,1000,250.0,2,c22tgk,330,test
801.0029792785645,4,2,5,1,0,3,E+,1,1,3,0,1000,250.0,1,c22tgk,331,test
817.065954208374,4,2,5,1,0,3,E+,1,2,1,0,1000,250.0,2,c22tgk,332,test
782.7160358428955,4,2,5,1,0,3,E+,1,3,5,0,1000,250.0,3,c22tgk,333,test
544.9249744415283,4,2,5,1,0,3,E+,1,5,2,0,1000,250.0,5,c22tgk,334,test
606.8201065063477,4,2,5,1,0,3,E+,1,0,4,0,1000,250.0,0,c22tgk,335,test
625.0338554382324,4,2,5,1,0,3,E+,1,3,5,0,1000,250.0,3,c22tgk,336,test
512.9718780517578,4,2,5,1,0,3,E+,1,5,2,0,1000,250.0,5,c22tgk,337,test
608.8080406188965,4,2,5,1,0,3,E+,1,2,1,0,1000,250.0,2,c22tgk,338,test
513.0209922790527,4,2,5,1,0,3,E+,1,2,1,0,1000,250.0,2,c22tgk,339,test
576.3459205627441,4,2,5,1,0,3,E+,1,2,1,0,1000,250.0,2,c22tgk,340,test
512.2990608215332,4,2,5,1,0,3,E+,1,5,2,0,1000,250.0,5,c22tgk,341,test
752.816915512085,4,2,5,1,0,3,E+,1,4,0,0,1000,250.0,4,c22tgk,342,test
464.4191265106201,4,2,5,1,0,3,E+,1,5,2,0,1000,250.0,5,c22tgk,343,test
561.0160827636719,4,2,5,1,0,3,E+,1,0,4,0,1000,250.0,0,c22tgk,344,test
1024.9290466308594,4,2,5,1,0,3,E+,1,4,0,0,1000,250.0,4,c22tgk,345,test
576.6980648040771,4,2,5,1,0,3,E+,1,0,4,0,1000,250.0,0,c22tgk,346,test
768.9669132232666,4,2,5,1,0,3,E+,1,2,1,0,1000,250.0,2,c22tgk,347,test
528.6040306091309,4,2,5,1,0,3,E+,0,5,2,0,1000,250.0,2,c22tgk,348,test
976.754903793335,4,2,5,1,0,3,E+,1,1,3,0,1000,250.0,1,c22tgk,349,test
560.4839324951172,4,2,5,1,0,3,E+,1,5,2,0,1000,250.0,5,c22tgk,350,test
592.8561687469482,4,2,5,1,0,3,E+,1,0,4,0,1000,250.0,0,c22tgk,351,test
1376.5840530395508,4,2,5,1,0,3,E+,1,2,1,0,1000,250.0,2,c22tgk,352,test
862.7779483795166,4,2,5,1,0,3,E+,1,2,1,0,1000,250.0,2,c22tgk,353,test
720.8619117736816,4,2,5,1,0,3,E+,1,1,3,0,1000,250.0,1,c22tgk,354,test
544.8939800262451,4,2,5,1,0,3,E+,1,5,2,0,1000,250.0,5,c22tgk,355,test
1233.0849170684814,4,2,5,1,0,3,E+,1,2,1,0,1000,250.0,2,c22tgk,356,test
640.3369903564453,4,2,5,1,0,3,E+,1,0,4,0,1000,250.0,0,c22tgk,357,test
672.7170944213867,4,2,5,1,0,3,E+,1,5,2,0,1000,250.0,5,c22tgk,358,test
688.8949871063232,4,2,5,1,0,3,E+,1,5,2,0,1000,250.0,5,c22tgk,359,test
1312.4759197235107,4,2,5,1,0,3,E+,1,4,0,0,1000,250.0,4,c22tgk,360,test
590.7368659973145,4,2,5,1,0,3,E+,1,0,4,0,1000,250.0,0,c22tgk,361,test
992.9778575897217,4,2,5,1,0,3,E+,1,3,5,0,1000,250.0,3,c22tgk,362,test
768.9480781555176,4,2,5,1,0,3,E+,1,4,0,0,1000,250.0,4,c22tgk,363,test
432.7199459075928,4,2,5,1,0,3,E+,1,4,0,0,1000,250.0,4,c22tgk,364,test
496.7939853668213,4,2,5,1,0,3,E+,1,5,2,0,1000,250.0,5,c22tgk,365,test
609.0259552001953,4,2,5,1,0,3,E+,1,1,3,0,1000,250.0,1,c22tgk,366,test
544.9650287628174,4,2,5,1,0,3,E+,1,0,4,0,1000,250.0,0,c22tgk,367,test
656.1739444732666,4,2,5,1,0,3,E+,1,0,4,0,1000,250.0,0,c22tgk,368,test
400.9718894958496,4,2,5,1,0,3,E+,1,0,4,0,1000,250.0,0,c22tgk,369,test
752.983808517456,4,2,5,1,0,3,E+,1,3,5,0,1000,250.0,3,c22tgk,370,test
672.9879379272461,4,2,5,1,0,3,E+,1,1,3,0,1000,250.0,1,c22tgk,371,test
544.7211265563965,4,2,5,1,0,3,E+,1,0,4,0,1000,250.0,0,c22tgk,372,test
1376.7108917236328,4,2,5,1,0,3,E+,1,5,2,0,1000,250.0,5,c22tgk,373,test
689.0149116516113,4,2,5,1,0,3,E+,1,0,4,0,1000,250.0,0,c22tgk,374,test
720.6408977508545,4,2,5,1,0,3,E+,1,3,5,0,1000,250.0,3,c22tgk,375,test
462.5248908996582,4,2,5,1,0,3,E+,1,5,2,0,1000,250.0,5,c22tgk,376,test
1104.5219898223877,4,2,5,1,0,3,E+,1,2,1,0,1000,250.0,2,c22tgk,377,test
624.4370937347412,4,2,5,1,0,3,E+,1,5,2,0,1000,250.0,5,c22tgk,378,test
864.5119667053223,4,2,5,1,0,3,E+,1,4,0,0,1000,250.0,4,c22tgk,379,test
720.9389209747314,4,2,5,1,0,3,E+,1,3,5,0,1000,250.0,3,c22tgk,380,test
896.8930244445801,4,2,5,1,0,3,E+,1,5,2,0,1000,250.0,5,c22tgk,381,test
736.6049289703369,4,2,5,1,0,3,E+,1,5,2,0,1000,250.0,5,c22tgk,382,test
593.0519104003906,4,2,5,1,0,3,E+,1,0,4,0,1000,250.0,0,c22tgk,383,test
1166.672945022583,4,2,5,1,0,3,E+,0,2,1,0,1000,250.0,3,c22tgk,384,test
912.9371643066406,4,2,5,1,0,3,E+,1,4,0,0,1000,250.0,4,c22tgk,385,test
720.6389904022217,4,2,5,1,0,3,E+,1,3,5,0,1000,250.0,3,c22tgk,386,test
926.7520904541016,4,2,5,1,0,3,E+,1,1,3,0,1000,250.0,1,c22tgk,387,test
1264.9860382080078,4,2,5,1,0,3,E+,1,2,1,0,1000,250.0,2,c22tgk,388,test
720.8549976348877,4,2,5,1,0,3,E+,1,5,2,0,1000,250.0,5,c22tgk,389,test
992.6838874816895,4,2,5,1,0,3,E+,1,4,0,0,1000,250.0,4,c22tgk,390,test
1968.932867050171,4,2,5,1,0,3,E+,1,2,1,0,1000,250.0,2,c22tgk,391,test
432.72900581359863,4,2,5,1,0,3,E+,1,2,1,0,1000,250.0,2,c22tgk,392,test
976.6850471496582,4,2,5,1,0,3,E+,1,3,5,0,1000,250.0,3,c22tgk,393,test
1344.5780277252197,4,2,5,1,0,3,E+,1,5,2,0,1000,250.0,5,c22tgk,394,test
640.9571170806885,4,2,5,1,0,3,E+,1,4,0,0,1000,250.0,4,c22tgk,395,test
976.6960144042969,4,2,5,1,0,3,E+,1,5,2,0,1000,250.0,5,c22tgk,396,test
848.4418392181396,4,2,5,1,0,3,E+,1,3,5,0,1000,250.0,3,c22tgk,397,test
592.677116394043,4,2,5,1,0,3,E+,1,3,5,0,1000,250.0,3,c22tgk,398,test
2049.0829944610596,4,2,5,1,0,3,E+,1,2,1,0,1000,250.0,2,c22tgk,399,test
1120.9371089935303,4,2,5,1,0,3,E+,1,4,0,0,1000,250.0,4,c22tgk,400,test
992.5310611724854,4,2,5,1,0,3,E+,0,1,3,0,1000,250.0,0,c22tgk,401,test
527.8420448303223,4,2,5,1,0,3,E+,1,1,3,0,1000,250.0,1,c22tgk,402,test
1198.0481147766113,4,2,5,1,0,3,E+,1,3,5,0,1000,250.0,3,c22tgk,403,test
864.7599220275879,4,2,5,1,0,3,E+,1,5,2,0,1000,250.0,5,c22tgk,404,test
432.81006813049316,4,2,5,1,0,3,E+,1,5,2,0,1000,250.0,5,c22tgk,405,test
416.8980121612549,4,2,5,1,0,3,E+,1,4,0,0,1000,250.0,4,c22tgk,406,test
577.1350860595703,4,2,5,1,0,3,E+,1,5,2,0,1000,250.0,5,c22tgk,407,test
880.9421062469482,4,2,5,1,0,3,E+,1,1,3,0,1000,250.0,1,c22tgk,408,test
1024.3110656738281,4,2,5,1,0,3,E+,1,4,0,0,1000,250.0,4,c22tgk,409,test
590.7979011535645,4,2,5,1,0,3,E+,1,0,4,0,1000,250.0,0,c22tgk,410,test
1056.885004043579,4,2,5,1,0,3,E+,1,5,2,0,1000,250.0,5,c22tgk,411,test
1728.6920547485352,4,2,5,1,0,3,E+,1,1,3,0,1000,250.0,1,c22tgk,412,test
3473.0288982391357,4,2,5,1,0,3,E+,1,3,5,0,1000,250.0,3,c22tgk,413,test
1248.3060359954834,4,2,5,1,0,3,E+,1,2,1,0,1000,250.0,2,c22tgk,414,test
592.8339958190918,4,2,5,1,0,3,E+,1,2,1,0,1000,250.0,2,c22tgk,415,test
1808.6929321289062,4,2,5,1,0,3,E+,1,5,2,0,1000,250.0,5,c22tgk,416,test
560.6300830841064,4,2,5,1,0,3,E+,1,0,4,0,1000,250.0,0,c22tgk,417,test
928.765058517456,4,2,5,1,0,3,E+,1,5,2,0,1000,250.0,5,c22tgk,418,test
464.86496925354004,4,2,5,1,0,3,E+,1,5,2,0,1000,250.0,5,c22tgk,419,test
928.7159442901611,4,2,5,1,0,3,E+,1,3,5,0,1000,250.0,3,c22tgk,420,test
864.6461963653564,4,2,5,1,0,3,E+,1,0,4,0,1000,250.0,0,c22tgk,421,test
1502.7399063110352,4,2,5,1,0,3,E+,1,4,0,0,1000,250.0,4,c22tgk,422,test
846.7199802398682,4,2,5,1,0,3,E+,1,1,3,0,1000,250.0,1,c22tgk,423,test
768.9929008483887,4,2,5,1,0,3,E+,1,5,2,0,1000,250.0,5,c22tgk,424,test
1264.981985092163,4,2,5,1,0,3,E+,1,2,1,0,1000,250.0,2,c22tgk,425,test
848.8731384277344,4,2,5,1,0,3,E+,1,1,3,0,1000,250.0,1,c22tgk,426,test
1568.674087524414,4,2,5,1,0,3,E+,1,4,0,0,1000,250.0,4,c22tgk,427,test
1086.5800380706787,4,2,5,1,0,3,E+,1,1,3,0,1000,250.0,1,c22tgk,428,test
544.7309017181396,4,2,5,1,0,3,E+,1,1,3,0,1000,250.0,1,c22tgk,429,test
592.8041934967041,4,2,5,1,0,3,E+,1,0,4,0,1000,250.0,0,c22tgk,430,test
704.6430110931396,4,2,5,1,0,3,E+,1,3,5,0,1000,250.0,3,c22tgk,431,test
752.9418468475342,4,2,5,1,0,3,E+,1,5,2,0,1000,250.0,5,c22tgk,432,test
702.6231288909912,4,2,5,1,0,3,E+,1,4,0,0,1000,250.0,4,c22tgk,433,test
480.65185546875,4,2,5,1,0,3,E+,1,3,5,0,1000,250.0,3,c22tgk,434,test
992.7000999450684,4,2,5,1,0,3,E+,1,2,1,0,1000,250.0,2,c22tgk,435,test
544.6498394012451,4,2,5,1,0,3,E+,1,0,4,0,1000,250.0,0,c22tgk,436,test
768.7020301818848,4,2,5,1,0,3,E+,1,5,2,0,1000,250.0,5,c22tgk,437,test
481.04310035705566,4,2,5,1,0,3,E+,1,0,4,0,1000,250.0,0,c22tgk,438,test
560.2719783782959,4,2,5,1,0,3,E+,1,3,5,0,1000,250.0,3,c22tgk,439,test
461.51185035705566,4,2,5,1,0,3,E+,0,2,1,0,1000,250.0,5,c22tgk,440,test
1424.7751235961914,4,2,5,1,0,3,E+,1,1,3,0,1000,250.0,1,c22tgk,441,test
656.8911075592041,4,2,5,1,0,3,E+,1,3,5,0,1000,250.0,3,c22tgk,442,test
576.9989490509033,4,2,5,1,0,3,E+,1,5,2,0,1000,250.0,5,c22tgk,443,test
816.9329166412354,4,2,5,1,0,3,E+,1,1,3,0,1000,250.0,1,c22tgk,444,test
512.3059749603271,4,2,5,1,0,3,E+,1,0,4,0,1000,250.0,0,c22tgk,445,test
592.8778648376465,4,2,5,1,0,3,E+,1,5,2,0,1000,250.0,5,c22tgk,446,test
640.68603515625,4,2,5,1,0,3,E+,1,1,3,0,1000,250.0,1,c22tgk,447,test
513.0820274353027,4,2,5,1,0,3,E+,1,0,4,0,1000,250.0,0,c22tgk,448,test
848.9229679107666,4,2,5,1,0,3,E+,1,3,5,0,1000,250.0,3,c22tgk,449,test
944.6148872375488,4,2,5,1,0,3,E+,0,2,1,0,1000,250.0,5,c22tgk,450,test
784.9359512329102,4,2,5,1,0,3,E+,1,4,0,0,1000,250.0,4,c22tgk,451,test
800.2810478210449,4,2,5,1,0,3,E+,1,3,5,0,1000,250.0,3,c22tgk,452,test
848.6630916595459,4,2,5,1,0,3,E+,1,2,1,0,1000,250.0,2,c22tgk,453,test
638.7290954589844,4,2,5,1,0,3,E+,1,0,4,0,1000,250.0,0,c22tgk,454,test
848.8330841064453,4,2,5,1,0,3,E+,1,3,5,0,1000,250.0,3,c22tgk,455,test
1056.7429065704346,4,2,5,1,0,3,E+,1,2,1,0,1000,250.0,2,c22tgk,456,test
802.0229339599609,4,2,5,1,0,3,E+,1,2,1,0,1000,250.0,2,c22tgk,457,test
702.6948928833008,4,2,5,1,0,3,E+,1,5,2,0,1000,250.0,5,c22tgk,458,test
1137.0289325714111,4,2,5,1,0,3,E+,1,3,5,0,1000,250.0,3,c22tgk,459,test
592.911958694458,4,2,5,1,0,3,E+,1,3,5,0,1000,250.0,3,c22tgk,460,test
401.0009765625,4,2,5,1,0,3,E+,1,3,5,0,1000,250.0,3,c22tgk,461,test
529.0060043334961,4,2,5,1,0,3,E+,1,5,2,0,1000,250.0,5,c22tgk,462,test
752.5699138641357,4,2,5,1,0,3,E+,0,1,3,0,1000,250.0,0,c22tgk,463,test
592.7188396453857,4,2,5,1,0,3,E+,1,0,4,0,1000,250.0,0,c22tgk,464,test
752.6199817657471,4,2,5,1,0,3,E+,1,3,5,0,1000,250.0,3,c22tgk,465,test
320.93095779418945,4,2,5,1,0,3,E+,1,4,0,0,1000,250.0,4,c22tgk,466,test
672.7280616760254,4,2,5,1,0,3,E+,0,1,3,0,1000,250.0,0,c22tgk,467,test
1056.9450855255127,4,2,5,1,0,3,E+,1,2,1,0,1000,250.0,2,c22tgk,468,test
672.7340221405029,4,2,5,1,0,3,E+,1,3,5,0,1000,250.0,3,c22tgk,469,test
688.795804977417,4,2,5,1,0,3,E+,1,4,0,0,1000,250.0,4,c22tgk,470,test
1056.9310188293457,4,2,5,1,0,3,E+,1,1,3,0,1000,250.0,1,c22tgk,471,test
736.9339466094971,4,2,5,1,0,3,E+,1,1,3,0,1000,250.0,1,c22tgk,472,test
720.5569744110107,4,2,5,1,0,3,E+,1,5,2,0,1000,250.0,5,c22tgk,473,test
782.6738357543945,4,2,5,1,0,3,E+,1,2,1,0,1000,250.0,2,c22tgk,474,test
910.7410907745361,4,2,5,1,0,3,E+,1,4,0,0,1000,250.0,4,c22tgk,475,test
513.0219459533691,4,2,5,1,0,3,E+,1,4,0,0,1000,250.0,4,c22tgk,476,test
1568.770170211792,4,2,5,1,0,3,E+,1,1,3,0,1000,250.0,1,c22tgk,477,test
704.6201229095459,4,2,5,1,0,3,E+,1,1,3,0,1000,250.0,1,c22tgk,478,test
1040.6079292297363,4,2,5,1,0,3,E+,1,2,1,0,1000,250.0,2,c22tgk,479,test
464.6768569946289,4,2,5,1,0,3,E+,1,2,1,0,1000,250.0,2,c22tgk,480,test
641.0858631134033,4,2,5,1,0,3,E+,1,4,0,0,1000,250.0,4,c22tgk,481,test
480.6358814239502,4,2,5,1,0,3,E+,1,4,0,0,1000,250.0,4,c22tgk,482,test
817.126989364624,4,2,5,1,0,3,E+,1,4,0,0,1000,250.0,4,c22tgk,483,test
752.9559135437012,4,2,5,1,0,3,E+,1,1,3,0,1000,250.0,1,c22tgk,484,test
576.4241218566895,4,2,5,1,0,3,E+,1,0,4,0,1000,250.0,0,c22tgk,485,test
736.9630336761475,4,2,5,1,0,3,E+,1,3,5,0,1000,250.0,3,c22tgk,486,test
798.5389232635498,4,2,5,1,0,3,E+,1,1,3,0,1000,250.0,1,c22tgk,487,test
529.026985168457,4,2,5,1,0,3,E+,1,0,4,0,1000,250.0,0,c22tgk,488,test
1120.56303024292,4,2,5,1,0,3,E+,1,2,1,0,1000,250.0,2,c22tgk,489,test
528.8100242614746,4,2,5,1,0,3,E+,1,4,0,0,1000,250.0,4,c22tgk,490,test
688.9870166778564,4,2,5,1,0,3,E+,1,1,3,0,1000,250.0,1,c22tgk,491,test
944.2870616912842,4,2,5,1,0,3,E+,1,2,1,0,1000,250.0,2,c22tgk,492,test
928.9059638977051,4,2,5,1,0,3,E+,0,3,5,0,1000,250.0,4,c22tgk,493,test
463.3810520172119,4,2,5,1,0,3,E+,1,3,5,0,1000,250.0,3,c22tgk,494,test
720.9570407867432,4,2,5,1,0,3,E+,1,0,4,0,1000,250.0,0,c22tgk,495,test
656.7580699920654,4,2,5,1,0,3,E+,1,5,2,0,1000,250.0,5,c22tgk,496,test
622.7290630340576,4,2,5,1,0,3,E+,1,4,0,0,1000,250.0,4,c22tgk,497,test
544.9259281158447,4,2,5,1,0,3,E+,1,4,0,0,1000,250.0,4,c22tgk,498,test
894.8090076446533,4,2,5,1,0,3,E+,1,3,5,0,1000,250.0,3,c22tgk,499,test
