RT,SRmap_0,SRmap_1,SRmap_2,SRmap_3,SRmap_4,SRmap_5,condition,correct,correct_response,curstim,ms-precue,ms-prestimblank,ntrials,response,subject,trial,type
1408.5960388183594,0,5,1,3,4,2,H-,0,1,2,0,1000,250.0,0,D21HL,0,train
1296.7619895935059,0,5,1,3,4,2,H-,1,0,0,0,1000,250.0,0,D21HL,1,train
752.7778148651123,0,5,1,3,4,2,H-,1,2,5,0,1000,250.0,2,D21HL,2,train
1312.5901222229004,0,5,1,3,4,2,H-,1,5,1,0,1000,250.0,5,D21HL,3,train
1520.6902027130127,0,5,1,3,4,2,H-,1,0,0,0,1000,250.0,0,D21HL,4,train
496.60515785217285,0,5,1,3,4,2,H-,1,0,0,0,1000,250.0,0,D21HL,5,train
976.6409397125244,0,5,1,3,4,2,H-,0,1,2,0,1000,250.0,0,D21HL,6,train
1280.5709838867188,0,5,1,3,4,2,H-,1,4,4,0,1000,250.0,4,D21HL,7,train
1280.6830406188965,0,5,1,3,4,2,H-,1,0,0,0,1000,250.0,0,D21HL,8,train
736.5238666534424,0,5,1,3,4,2,H-,1,2,5,0,1000,250.0,2,D21HL,9,train
1264.596939086914,0,5,1,3,4,2,H-,1,4,4,0,1000,250.0,4,D21HL,10,train
848.6709594726562,0,5,1,3,4,2,H-,1,3,3,0,1000,250.0,3,D21HL,11,train
688.6188983917236,0,5,1,3,4,2,H-,1,0,0,0,1000,250.0,0,D21HL,12,train
864.7642135620117,0,5,1,3,4,2,H-,1,5,1,0,1000,250.0,5,D21HL,13,train
704.6160697937012,0,5,1,3,4,2,H-,1,3,3,0,1000,250.0,3,D21HL,14,train
672.4419593811035,0,5,1,3,4,2,H-,1,5,1,0,1000,250.0,5,D21HL,15,train
880.713939666748,0,5,1,3,4,2,H-,1,0,0,0,1000,250.0,0,D21HL,16,train
1264.6369934082031,0,5,1,3,4,2,H-,1,4,4,0,1000,250.0,4,D21HL,17,train
560.4679584503174,0,5,1,3,4,2,H-,1,4,4,0,1000,250.0,4,D21HL,18,train
624.7129440307617,0,5,1,3,4,2,H-,1,3,3,0,1000,250.0,3,D21HL,19,train
560.5690479278564,0,5,1,3,4,2,H-,1,5,1,0,1000,250.0,5,D21HL,20,train
1104.4399738311768,0,5,1,3,4,2,H-,1,1,2,0,1000,250.0,1,D21HL,21,train
1264.6210193634033,0,5,1,3,4,2,H-,1,2,5,0,1000,250.0,2,D21HL,22,train
848.5748767852783,0,5,1,3,4,2,H-,1,2,5,0,1000,250.0,2,D21HL,23,train
688.6639595031738,0,5,1,3,4,2,H-,0,5,1,0,1000,250.0,4,D21HL,24,train
896.730899810791,0,5,1,3,4,2,H-,1,4,4,0,1000,250.0,4,D21HL,25,train
512.6478672027588,0,5,1,3,4,2,H-,1,5,1,0,1000,250.0,5,D21HL,26,train
800.6420135498047,0,5,1,3,4,2,H-,1,4,4,0,1000,250.0,4,D21HL,27,train
576.5819549560547,0,5,1,3,4,2,H-,0,2,5,0,1000,250.0,3,D21HL,28,train
720.771074295044,0,5,1,3,4,2,H-,1,5,1,0,1000,250.0,5,D21HL,29,train
1200.4499435424805,0,5,1,3,4,2,H-,1,1,2,0,1000,250.0,1,D21HL,30,train
816.735029220581,0,5,1,3,4,2,H-,1,3,3,0,1000,250.0,3,D21HL,31,train
656.5830707550049,0,5,1,3,4,2,H-,1,5,1,0,1000,250.0,5,D21HL,32,train
704.6728134155273,0,5,1,3,4,2,H-,1,2,5,0,1000,250.0,2,D21HL,33,train
384.6769332885742,0,5,1,3,4,2,H-,1,3,3,0,1000,250.0,3,D21HL,34,train
608.5941791534424,0,5,1,3,4,2,H-,1,0,0,0,1000,250.0,0,D21HL,35,train
848.6478328704834,0,5,1,3,4,2,H-,1,1,2,0,1000,250.0,1,D21HL,36,train
624.6488094329834,0,5,1,3,4,2,H-,1,3,3,0,1000,250.0,3,D21HL,37,train
544.6350574493408,0,5,1,3,4,2,H-,1,0,0,0,1000,250.0,0,D21HL,38,train
480.59988021850586,0,5,1,3,4,2,H-,1,1,2,0,1000,250.0,1,D21HL,39,train
496.37508392333984,0,5,1,3,4,2,H-,1,3,3,0,1000,250.0,3,D21HL,40,train
496.845006942749,0,5,1,3,4,2,H-,1,0,0,0,1000,250.0,0,D21HL,41,train
602.125883102417,0,5,1,3,4,2,H-,1,3,3,0,1000,250.0,3,D21HL,42,train
624.7210502624512,0,5,1,3,4,2,H-,1,3,3,0,1000,250.0,3,D21HL,43,train
400.69007873535156,0,5,1,3,4,2,H-,1,3,3,0,1000,250.0,3,D21HL,44,train
560.5959892272949,0,5,1,3,4,2,H-,0,4,4,0,1000,250.0,0,D21HL,45,train
512.6979351043701,0,5,1,3,4,2,H-,1,5,1,0,1000,250.0,5,D21HL,46,train
480.5288314819336,0,5,1,3,4,2,H-,1,5,1,0,1000,250.0,5,D21HL,47,train
896.7118263244629,0,5,1,3,4,2,H-,1,1,2,0,1000,250.0,1,D21HL,48,train
848.6909866333008,0,5,1,3,4,2,H-,1,2,5,0,1000,250.0,2,D21HL,49,train
480.59988021850586,0,5,1,3,4,2,H-,1,2,5,0,1000,250.0,2,D21HL,50,train
624.6988773345947,0,5,1,3,4,2,H-,1,0,0,0,1000,250.0,0,D21HL,51,train
768.6560153961182,0,5,1,3,4,2,H-,0,1,2,0,1000,250.0,0,D21HL,52,train
1072.5181102752686,0,5,1,3,4,2,H-,1,5,1,0,1000,250.0,5,D21HL,53,train
480.59606552124023,0,5,1,3,4,2,H-,1,5,1,0,1000,250.0,5,D21HL,54,train
432.53302574157715,0,5,1,3,4,2,H-,1,5,1,0,1000,250.0,5,D21HL,55,train
896.6341018676758,0,5,1,3,4,2,H-,1,1,2,0,1000,250.0,1,D21HL,56,train
832.6559066772461,0,5,1,3,4,2,H-,1,2,5,0,1000,250.0,2,D21HL,57,train
752.6791095733643,0,5,1,3,4,2,H-,1,1,2,0,1000,250.0,1,D21HL,58,train
704.9920558929443,0,5,1,3,4,2,H-,1,2,5,0,1000,250.0,2,D21HL,59,train
464.8118019104004,0,5,1,3,4,2,H-,0,2,5,0,1000,250.0,1,D21HL,60,train
561.0311031341553,0,5,1,3,4,2,H-,1,1,2,0,1000,250.0,1,D21HL,61,train
704.9548625946045,0,5,1,3,4,2,H-,1,2,5,0,1000,250.0,2,D21HL,62,train
577.049970626831,0,5,1,3,4,2,H-,1,1,2,0,1000,250.0,1,D21HL,63,train
1089.0989303588867,0,5,1,3,4,2,H-,1,5,1,0,1000,250.0,5,D21HL,64,train
816.9360160827637,0,5,1,3,4,2,H-,1,3,3,0,1000,250.0,3,D21HL,65,train
497.08104133605957,0,5,1,3,4,2,H-,1,0,0,0,1000,250.0,0,D21HL,66,train
720.984935760498,0,5,1,3,4,2,H-,1,5,1,0,1000,250.0,5,D21HL,67,train
768.8369750976562,0,5,1,3,4,2,H-,1,1,2,0,1000,250.0,1,D21HL,68,train
593.163013458252,0,5,1,3,4,2,H-,1,5,1,0,1000,250.0,5,D21HL,69,train
641.0200595855713,0,5,1,3,4,2,H-,1,2,5,0,1000,250.0,2,D21HL,70,train
625.079870223999,0,5,1,3,4,2,H-,1,3,3,0,1000,250.0,3,D21HL,71,train
641.0181522369385,0,5,1,3,4,2,H-,1,1,2,0,1000,250.0,1,D21HL,72,train
657.0630073547363,0,5,1,3,4,2,H-,1,3,3,0,1000,250.0,3,D21HL,73,train
865.0341033935547,0,5,1,3,4,2,H-,1,0,0,0,1000,250.0,0,D21HL,74,train
1025.1028537750244,0,5,1,3,4,2,H-,1,4,4,0,1000,250.0,4,D21HL,75,train
945.1010227203369,0,5,1,3,4,2,H-,1,1,2,0,1000,250.0,1,D21HL,76,train
609.0760231018066,0,5,1,3,4,2,H-,1,2,5,0,1000,250.0,2,D21HL,77,train
705.0280570983887,0,5,1,3,4,2,H-,1,0,0,0,1000,250.0,0,D21HL,78,train
656.8732261657715,0,5,1,3,4,2,H-,1,2,5,0,1000,250.0,2,D21HL,79,train
577.0471096038818,0,5,1,3,4,2,H-,1,3,3,0,1000,250.0,3,D21HL,80,train
513.0300521850586,0,5,1,3,4,2,H-,1,5,1,0,1000,250.0,5,D21HL,81,train
384.9308490753174,0,5,1,3,4,2,H-,1,4,4,0,1000,250.0,4,D21HL,82,train
689.1169548034668,0,5,1,3,4,2,H-,1,1,2,0,1000,250.0,1,D21HL,83,train
545.1240539550781,0,5,1,3,4,2,H-,1,5,1,0,1000,250.0,5,D21HL,84,train
529.1879177093506,0,5,1,3,4,2,H-,1,5,1,0,1000,250.0,5,D21HL,85,train
641.0849094390869,0,5,1,3,4,2,H-,1,3,3,0,1000,250.0,3,D21HL,86,train
481.0640811920166,0,5,1,3,4,2,H-,1,3,3,0,1000,250.0,3,D21HL,87,train
529.0040969848633,0,5,1,3,4,2,H-,1,1,2,0,1000,250.0,1,D21HL,88,train
993.0510520935059,0,5,1,3,4,2,H-,1,3,3,0,1000,250.0,3,D21HL,89,train
529.033899307251,0,5,1,3,4,2,H-,1,5,1,0,1000,250.0,5,D21HL,90,train
657.1040153503418,0,5,1,3,4,2,H-,0,4,4,0,1000,250.0,3,D21HL,91,train
577.0881175994873,0,5,1,3,4,2,H-,1,1,2,0,1000,250.0,1,D21HL,92,train
592.9770469665527,0,5,1,3,4,2,H-,1,1,2,0,1000,250.0,1,D21HL,93,train
705.0659656524658,0,5,1,3,4,2,H-,1,3,3,0,1000,250.0,3,D21HL,94,train
448.868989944458,0,5,1,3,4,2,H-,0,0,0,0,1000,250.0,4,D21HL,95,train
785.1791381835938,0,5,1,3,4,2,H-,1,4,4,0,1000,250.0,4,D21HL,96,train
529.1030406951904,0,5,1,3,4,2,H-,1,5,1,0,1000,250.0,5,D21HL,97,train
464.86902236938477,0,5,1,3,4,2,H-,1,5,1,0,1000,250.0,5,D21HL,98,train
993.0629730224609,0,5,1,3,4,2,H-,1,2,5,0,1000,250.0,2,D21HL,99,train
417.0701503753662,0,5,1,3,4,2,H-,1,3,3,0,1000,250.0,3,D21HL,100,train
561.0239505767822,0,5,1,3,4,2,H-,1,5,1,0,1000,250.0,5,D21HL,101,train
641.0529613494873,0,5,1,3,4,2,H-,1,3,3,0,1000,250.0,3,D21HL,102,train
737.0519638061523,0,5,1,3,4,2,H-,1,2,5,0,1000,250.0,2,D21HL,103,train
673.0780601501465,0,5,1,3,4,2,H-,1,4,4,0,1000,250.0,4,D21HL,104,train
977.0619869232178,0,5,1,3,4,2,H-,1,1,2,0,1000,250.0,1,D21HL,105,train
625.0579357147217,0,5,1,3,4,2,H-,1,5,1,0,1000,250.0,5,D21HL,106,train
1009.0680122375488,0,5,1,3,4,2,H-,0,1,2,0,1000,250.0,0,D21HL,107,train
705.1410675048828,0,5,1,3,4,2,H-,1,4,4,0,1000,250.0,4,D21HL,108,train
1168.982982635498,0,5,1,3,4,2,H-,1,0,0,0,1000,250.0,0,D21HL,109,train
656.9778919219971,0,5,1,3,4,2,H-,1,0,0,0,1000,250.0,0,D21HL,110,train
912.9970073699951,0,5,1,3,4,2,H-,1,2,5,0,1000,250.0,2,D21HL,111,train
576.9219398498535,0,5,1,3,4,2,H-,1,0,0,0,1000,250.0,0,D21HL,112,train
817.1381950378418,0,5,1,3,4,2,H-,1,4,4,0,1000,250.0,4,D21HL,113,train
657.1199893951416,0,5,1,3,4,2,H-,1,5,1,0,1000,250.0,5,D21HL,114,train
656.994104385376,0,5,1,3,4,2,H-,1,4,4,0,1000,250.0,4,D21HL,115,train
480.8330535888672,0,5,1,3,4,2,H-,1,5,1,0,1000,250.0,5,D21HL,116,train
625.0450611114502,0,5,1,3,4,2,H-,1,3,3,0,1000,250.0,3,D21HL,117,train
881.019115447998,0,5,1,3,4,2,H-,1,1,2,0,1000,250.0,1,D21HL,118,train
944.9570178985596,0,5,1,3,4,2,H-,1,4,4,0,1000,250.0,4,D21HL,119,train
560.9521865844727,0,5,1,3,4,2,H-,1,3,3,0,1000,250.0,3,D21HL,120,train
529.015064239502,0,5,1,3,4,2,H-,1,5,1,0,1000,250.0,5,D21HL,121,train
961.115837097168,0,5,1,3,4,2,H-,1,0,0,0,1000,250.0,0,D21HL,122,train
576.956033706665,0,5,1,3,4,2,H-,1,5,1,0,1000,250.0,5,D21HL,123,train
641.0808563232422,0,5,1,3,4,2,H-,1,4,4,0,1000,250.0,4,D21HL,124,train
561.0990524291992,0,5,1,3,4,2,H-,1,4,4,0,1000,250.0,4,D21HL,125,train
673.0780601501465,0,5,1,3,4,2,H-,1,1,2,0,1000,250.0,1,D21HL,126,train
545.0639724731445,0,5,1,3,4,2,H-,1,2,5,0,1000,250.0,2,D21HL,127,train
385.12516021728516,0,5,1,3,4,2,H-,1,3,3,0,1000,250.0,3,D21HL,128,train
577.0821571350098,0,5,1,3,4,2,H-,1,0,0,0,1000,250.0,0,D21HL,129,train
561.0082149505615,0,5,1,3,4,2,H-,0,2,5,0,1000,250.0,3,D21HL,130,train
785.1250171661377,0,5,1,3,4,2,H-,1,4,4,0,1000,250.0,4,D21HL,131,train
753.0620098114014,0,5,1,3,4,2,H-,1,5,1,0,1000,250.0,5,D21HL,132,train
768.9831256866455,0,5,1,3,4,2,H-,1,2,5,0,1000,250.0,2,D21HL,133,train
448.9009380340576,0,5,1,3,4,2,H-,1,2,5,0,1000,250.0,2,D21HL,134,train
865.1092052459717,0,5,1,3,4,2,H-,0,1,2,0,1000,250.0,0,D21HL,135,train
545.0668334960938,0,5,1,3,4,2,H-,1,1,2,0,1000,250.0,1,D21HL,136,train
641.1349773406982,0,5,1,3,4,2,H-,1,5,1,0,1000,250.0,5,D21HL,137,train
576.9779682159424,0,5,1,3,4,2,H-,0,2,5,0,1000,250.0,3,D21HL,138,train
1121.2100982666016,0,5,1,3,4,2,H-,1,0,0,0,1000,250.0,0,D21HL,139,train
624.9561309814453,0,5,1,3,4,2,H-,1,2,5,0,1000,250.0,2,D21HL,140,train
848.9680290222168,0,5,1,3,4,2,H-,1,0,0,0,1000,250.0,0,D21HL,141,train
464.9930000305176,0,5,1,3,4,2,H-,1,0,0,0,1000,250.0,0,D21HL,142,train
657.1190357208252,0,5,1,3,4,2,H-,1,4,4,0,1000,250.0,4,D21HL,143,train
721.1909294128418,0,5,1,3,4,2,H-,1,0,0,0,1000,250.0,0,D21HL,144,train
1041.1558151245117,0,5,1,3,4,2,H-,1,0,0,0,1000,250.0,0,D21HL,145,train
449.0511417388916,0,5,1,3,4,2,H-,1,0,0,0,1000,250.0,0,D21HL,146,train
657.0980548858643,0,5,1,3,4,2,H-,1,2,5,0,1000,250.0,2,D21HL,147,train
433.11500549316406,0,5,1,3,4,2,H-,1,2,5,0,1000,250.0,2,D21HL,148,train
817.1098232269287,0,5,1,3,4,2,H-,1,1,2,0,1000,250.0,1,D21HL,149,train
897.087812423706,0,5,1,3,4,2,H-,1,0,0,0,1000,250.0,0,D21HL,150,train
897.0060348510742,0,5,1,3,4,2,H-,1,4,4,0,1000,250.0,4,D21HL,151,train
736.7658615112305,0,5,1,3,4,2,H-,1,0,0,0,1000,250.0,0,D21HL,152,train
768.388032913208,0,5,1,3,4,2,H-,1,3,3,0,1000,250.0,3,D21HL,153,train
432.5859546661377,0,5,1,3,4,2,H-,1,3,3,0,1000,250.0,3,D21HL,154,train
736.253023147583,0,5,1,3,4,2,H-,1,4,4,0,1000,250.0,4,D21HL,155,train
976.1149883270264,0,5,1,3,4,2,H-,1,0,0,0,1000,250.0,0,D21HL,156,train
865.0541305541992,0,5,1,3,4,2,H-,1,2,5,0,1000,250.0,2,D21HL,157,train
849.0869998931885,0,5,1,3,4,2,H-,1,0,0,0,1000,250.0,0,D21HL,158,train
929.0878772735596,0,5,1,3,4,2,H-,1,2,5,0,1000,250.0,2,D21HL,159,train
513.0620002746582,0,5,1,3,4,2,H-,1,2,5,0,1000,250.0,2,D21HL,160,train
801.2008666992188,0,5,1,3,4,2,H-,1,5,1,0,1000,250.0,5,D21HL,161,train
785.2048873901367,0,5,1,3,4,2,H-,1,4,4,0,1000,250.0,4,D21HL,162,train
529.1352272033691,0,5,1,3,4,2,H-,1,5,1,0,1000,250.0,5,D21HL,163,train
705.1091194152832,0,5,1,3,4,2,H-,1,3,3,0,1000,250.0,3,D21HL,164,train
976.9299030303955,0,5,1,3,4,2,H-,1,2,5,0,1000,250.0,2,D21HL,165,train
449.0230083465576,0,5,1,3,4,2,H-,1,2,5,0,1000,250.0,2,D21HL,166,train
561.0189437866211,0,5,1,3,4,2,H-,1,0,0,0,1000,250.0,0,D21HL,167,train
641.1581039428711,0,5,1,3,4,2,H-,1,4,4,0,1000,250.0,4,D21HL,168,train
609.1310977935791,0,5,1,3,4,2,H-,1,2,5,0,1000,250.0,2,D21HL,169,train
577.1551132202148,0,5,1,3,4,2,H-,1,5,1,0,1000,250.0,5,D21HL,170,train
657.1450233459473,0,5,1,3,4,2,H-,1,4,4,0,1000,250.0,4,D21HL,171,train
577.1560668945312,0,5,1,3,4,2,H-,0,3,3,0,1000,250.0,2,D21HL,172,train
976.9918918609619,0,5,1,3,4,2,H-,1,4,4,0,1000,250.0,4,D21HL,173,train
624.9518394470215,0,5,1,3,4,2,H-,1,5,1,0,1000,250.0,5,D21HL,174,train
801.055908203125,0,5,1,3,4,2,H-,1,2,5,0,1000,250.0,2,D21HL,175,train
689.072847366333,0,5,1,3,4,2,H-,1,0,0,0,1000,250.0,0,D21HL,176,train
657.0730209350586,0,5,1,3,4,2,H-,1,3,3,0,1000,250.0,3,D21HL,177,train
753.0519962310791,0,5,1,3,4,2,H-,0,2,5,0,1000,250.0,1,D21HL,178,train
1248.8341331481934,0,5,1,3,4,2,H-,1,1,2,0,1000,250.0,1,D21HL,179,train
497.04694747924805,0,5,1,3,4,2,H-,1,0,0,0,1000,250.0,0,D21HL,180,train
464.98608589172363,0,5,1,3,4,2,H-,1,1,2,0,1000,250.0,1,D21HL,181,train
849.0579128265381,0,5,1,3,4,2,H-,1,0,0,0,1000,250.0,0,D21HL,182,train
608.7970733642578,0,5,1,3,4,2,H-,1,5,1,0,1000,250.0,5,D21HL,183,train
496.8841075897217,0,5,1,3,4,2,H-,1,5,1,0,1000,250.0,5,D21HL,184,train
400.84004402160645,0,5,1,3,4,2,H-,1,5,1,0,1000,250.0,5,D21HL,185,train
608.9670658111572,0,5,1,3,4,2,H-,1,0,0,0,1000,250.0,0,D21HL,186,train
625.0560283660889,0,5,1,3,4,2,H-,1,1,2,0,1000,250.0,1,D21HL,187,train
464.94603157043457,0,5,1,3,4,2,H-,1,0,0,0,1000,250.0,0,D21HL,188,train
929.0738105773926,0,5,1,3,4,2,H-,1,4,4,0,1000,250.0,4,D21HL,189,train
497.12610244750977,0,5,1,3,4,2,H-,1,5,1,0,1000,250.0,5,D21HL,190,train
465.03686904907227,0,5,1,3,4,2,H-,1,3,3,0,1000,250.0,3,D21HL,191,train
657.1030616760254,0,5,1,3,4,2,H-,1,0,0,0,1000,250.0,0,D21HL,192,train
673.0191707611084,0,5,1,3,4,2,H-,1,3,3,0,1000,250.0,3,D21HL,193,train
737.0059490203857,0,5,1,3,4,2,H-,1,4,4,0,1000,250.0,4,D21HL,194,train
481.0528755187988,0,5,1,3,4,2,H-,1,5,1,0,1000,250.0,5,D21HL,195,train
913.1619930267334,0,5,1,3,4,2,H-,0,1,2,0,1000,250.0,0,D21HL,196,train
481.0478687286377,0,5,1,3,4,2,H-,1,1,2,0,1000,250.0,1,D21HL,197,train
689.0528202056885,0,5,1,3,4,2,H-,1,3,3,0,1000,250.0,3,D21HL,198,train
864.9659156799316,0,5,1,3,4,2,H-,1,0,0,0,1000,250.0,0,D21HL,199,train
577.0840644836426,0,5,1,3,4,2,H-,1,5,1,0,1000,250.0,5,D21HL,200,train
640.9850120544434,0,5,1,3,4,2,H-,1,5,1,0,1000,250.0,5,D21HL,201,train
705.0869464874268,0,5,1,3,4,2,H-,1,0,0,0,1000,250.0,0,D21HL,202,train
833.2469463348389,0,5,1,3,4,2,H-,1,0,0,0,1000,250.0,0,D21HL,203,train
769.2041397094727,0,5,1,3,4,2,H-,1,4,4,0,1000,250.0,4,D21HL,204,train
609.0419292449951,0,5,1,3,4,2,H-,1,0,0,0,1000,250.0,0,D21HL,205,train
529.1130542755127,0,5,1,3,4,2,H-,1,5,1,0,1000,250.0,5,D21HL,206,train
657.069206237793,0,5,1,3,4,2,H-,1,2,5,0,1000,250.0,2,D21HL,207,train
385.0359916687012,0,5,1,3,4,2,H-,1,3,3,0,1000,250.0,3,D21HL,208,train
432.9850673675537,0,5,1,3,4,2,H-,1,5,1,0,1000,250.0,5,D21HL,209,train
977.2069454193115,0,5,1,3,4,2,H-,1,1,2,0,1000,250.0,1,D21HL,210,train
817.1792030334473,0,5,1,3,4,2,H-,1,2,5,0,1000,250.0,2,D21HL,211,train
577.1510601043701,0,5,1,3,4,2,H-,1,5,1,0,1000,250.0,5,D21HL,212,train
609.1709136962891,0,5,1,3,4,2,H-,1,3,3,0,1000,250.0,3,D21HL,213,train
641.1600112915039,0,5,1,3,4,2,H-,1,2,5,0,1000,250.0,2,D21HL,214,train
625.1800060272217,0,5,1,3,4,2,H-,1,1,2,0,1000,250.0,1,D21HL,215,train
673.1541156768799,0,5,1,3,4,2,H-,1,2,5,0,1000,250.0,2,D21HL,216,train
545.1521873474121,0,5,1,3,4,2,H-,1,0,0,0,1000,250.0,0,D21HL,217,train
673.1979846954346,0,5,1,3,4,2,H-,1,4,4,0,1000,250.0,4,D21HL,218,train
641.0698890686035,0,5,1,3,4,2,H-,1,2,5,0,1000,250.0,2,D21HL,219,train
513.1609439849854,0,5,1,3,4,2,H-,1,2,5,0,1000,250.0,2,D21HL,220,train
465.130090713501,0,5,1,3,4,2,H-,1,2,5,0,1000,250.0,2,D21HL,221,train
657.0608615875244,0,5,1,3,4,2,H-,1,1,2,0,1000,250.0,1,D21HL,222,train
528.9890766143799,0,5,1,3,4,2,H-,1,1,2,0,1000,250.0,1,D21HL,223,train
480.9269905090332,0,5,1,3,4,2,H-,1,5,1,0,1000,250.0,5,D21HL,224,train
529.1187763214111,0,5,1,3,4,2,H-,1,0,0,0,1000,250.0,0,D21HL,225,train
705.1301002502441,0,5,1,3,4,2,H-,1,4,4,0,1000,250.0,4,D21HL,226,train
609.166145324707,0,5,1,3,4,2,H-,1,0,0,0,1000,250.0,0,D21HL,227,train
561.0179901123047,0,5,1,3,4,2,H-,1,3,3,0,1000,250.0,3,D21HL,228,train
753.1640529632568,0,5,1,3,4,2,H-,1,1,2,0,1000,250.0,1,D21HL,229,train
609.0288162231445,0,5,1,3,4,2,H-,1,4,4,0,1000,250.0,4,D21HL,230,train
865.2400970458984,0,5,1,3,4,2,H-,1,1,2,0,1000,250.0,1,D21HL,231,train
624.8698234558105,0,5,1,3,4,2,H-,1,3,3,0,1000,250.0,3,D21HL,232,train
609.1430187225342,0,5,1,3,4,2,H-,1,0,0,0,1000,250.0,0,D21HL,233,train
609.140157699585,0,5,1,3,4,2,H-,1,2,5,0,1000,250.0,2,D21HL,234,train
513.0479335784912,0,5,1,3,4,2,H-,1,3,3,0,1000,250.0,3,D21HL,235,train
560.7340335845947,0,5,1,3,4,2,H-,1,5,1,0,1000,250.0,5,D21HL,236,train
400.64191818237305,0,5,1,3,4,2,H-,1,5,1,0,1000,250.0,5,D21HL,237,train
512.8200054168701,0,5,1,3,4,2,H-,1,5,1,0,1000,250.0,5,D21HL,238,train
848.8640785217285,0,5,1,3,4,2,H-,1,3,3,0,1000,250.0,3,D21HL,239,train
576.6379833221436,0,5,1,3,4,2,H-,1,5,1,0,1000,250.0,5,D21HL,240,train
688.7500286102295,0,5,1,3,4,2,H-,1,1,2,0,1000,250.0,1,D21HL,241,train
784.6379280090332,0,5,1,3,4,2,H-,1,2,5,0,1000,250.0,2,D21HL,242,train
656.7380428314209,0,5,1,3,4,2,H-,1,4,4,0,1000,250.0,4,D21HL,243,train
688.856840133667,0,5,1,3,4,2,H-,1,3,3,0,1000,250.0,3,D21HL,244,train
640.3250694274902,0,5,1,3,4,2,H-,1,4,4,0,1000,250.0,4,D21HL,245,train
832.6749801635742,0,5,1,3,4,2,H-,1,3,3,0,1000,250.0,3,D21HL,246,train
656.6047668457031,0,5,1,3,4,2,H-,1,3,3,0,1000,250.0,3,D21HL,247,train
432.5530529022217,0,5,1,3,4,2,H-,1,3,3,0,1000,250.0,3,D21HL,248,train
640.6509876251221,0,5,1,3,4,2,H-,1,0,0,0,1000,250.0,0,D21HL,249,train
1504.7318935394287,2,4,1,3,0,5,H-,1,5,5,0,1000,250.0,5,D21HL,250,test
832.6189517974854,2,4,1,3,0,5,H-,1,4,1,0,1000,250.0,4,D21HL,251,test
1040.7769680023193,2,4,1,3,0,5,H-,1,0,4,0,1000,250.0,0,D21HL,252,test
800.0781536102295,2,4,1,3,0,5,H-,1,3,3,0,1000,250.0,3,D21HL,253,test
864.753007888794,2,4,1,3,0,5,H-,1,4,1,0,1000,250.0,4,D21HL,254,test
928.7300109863281,2,4,1,3,0,5,H-,1,3,3,0,1000,250.0,3,D21HL,255,test
720.7059860229492,2,4,1,3,0,5,H-,1,2,0,0,1000,250.0,2,D21HL,256,test
656.745195388794,2,4,1,3,0,5,H-,1,3,3,0,1000,250.0,3,D21HL,257,test
480.6971549987793,2,4,1,3,0,5,H-,1,1,2,0,1000,250.0,1,D21HL,258,test
400.76518058776855,2,4,1,3,0,5,H-,0,2,0,0,1000,250.0,0,D21HL,259,test
928.7660121917725,2,4,1,3,0,5,H-,1,5,5,0,1000,250.0,5,D21HL,260,test
704.6868801116943,2,4,1,3,0,5,H-,1,1,2,0,1000,250.0,1,D21HL,261,test
656.606912612915,2,4,1,3,0,5,H-,1,0,4,0,1000,250.0,0,D21HL,262,test
608.7360382080078,2,4,1,3,0,5,H-,1,3,3,0,1000,250.0,3,D21HL,263,test
544.7111129760742,2,4,1,3,0,5,H-,1,3,3,0,1000,250.0,3,D21HL,264,test
800.6598949432373,2,4,1,3,0,5,H-,1,5,5,0,1000,250.0,5,D21HL,265,test
784.6980094909668,2,4,1,3,0,5,H-,1,2,0,0,1000,250.0,2,D21HL,266,test
704.7531604766846,2,4,1,3,0,5,H-,1,3,3,0,1000,250.0,3,D21HL,267,test
592.5939083099365,2,4,1,3,0,5,H-,1,3,3,0,1000,250.0,3,D21HL,268,test
912.6558303833008,2,4,1,3,0,5,H-,1,2,0,0,1000,250.0,2,D21HL,269,test
368.67785453796387,2,4,1,3,0,5,H-,1,0,4,0,1000,250.0,0,D21HL,270,test
736.5319728851318,2,4,1,3,0,5,H-,0,3,3,0,1000,250.0,2,D21HL,271,test
720.7460403442383,2,4,1,3,0,5,H-,1,4,1,0,1000,250.0,4,D21HL,272,test
560.6160163879395,2,4,1,3,0,5,H-,1,4,1,0,1000,250.0,4,D21HL,273,test
656.7060947418213,2,4,1,3,0,5,H-,1,4,1,0,1000,250.0,4,D21HL,274,test
512.800931930542,2,4,1,3,0,5,H-,1,4,1,0,1000,250.0,4,D21HL,275,test
832.6959609985352,2,4,1,3,0,5,H-,1,1,2,0,1000,250.0,1,D21HL,276,test
816.5879249572754,2,4,1,3,0,5,H-,1,2,0,0,1000,250.0,2,D21HL,277,test
800.3780841827393,2,4,1,3,0,5,H-,1,1,2,0,1000,250.0,1,D21HL,278,test
992.7449226379395,2,4,1,3,0,5,H-,1,2,0,0,1000,250.0,2,D21HL,279,test
544.6760654449463,2,4,1,3,0,5,H-,1,2,0,0,1000,250.0,2,D21HL,280,test
1104.665994644165,2,4,1,3,0,5,H-,1,4,1,0,1000,250.0,4,D21HL,281,test
929.1441440582275,2,4,1,3,0,5,H-,1,5,5,0,1000,250.0,5,D21HL,282,test
656.6300392150879,2,4,1,3,0,5,H-,1,3,3,0,1000,250.0,3,D21HL,283,test
976.6261577606201,2,4,1,3,0,5,H-,1,5,5,0,1000,250.0,5,D21HL,284,test
768.7861919403076,2,4,1,3,0,5,H-,1,1,2,0,1000,250.0,1,D21HL,285,test
800.5599975585938,2,4,1,3,0,5,H-,1,3,3,0,1000,250.0,3,D21HL,286,test
1248.6979961395264,2,4,1,3,0,5,H-,1,2,0,0,1000,250.0,2,D21HL,287,test
688.6248588562012,2,4,1,3,0,5,H-,1,4,1,0,1000,250.0,4,D21HL,288,test
976.6659736633301,2,4,1,3,0,5,H-,1,5,5,0,1000,250.0,5,D21HL,289,test
720.6578254699707,2,4,1,3,0,5,H-,0,1,2,0,1000,250.0,0,D21HL,290,test
656.8441390991211,2,4,1,3,0,5,H-,1,1,2,0,1000,250.0,1,D21HL,291,test
768.6350345611572,2,4,1,3,0,5,H-,1,4,1,0,1000,250.0,4,D21HL,292,test
656.7020416259766,2,4,1,3,0,5,H-,1,3,3,0,1000,250.0,3,D21HL,293,test
608.7400913238525,2,4,1,3,0,5,H-,1,4,1,0,1000,250.0,4,D21HL,294,test
592.7200317382812,2,4,1,3,0,5,H-,1,3,3,0,1000,250.0,3,D21HL,295,test
656.7049026489258,2,4,1,3,0,5,H-,1,0,4,0,1000,250.0,0,D21HL,296,test
1232.741117477417,2,4,1,3,0,5,H-,1,5,5,0,1000,250.0,5,D21HL,297,test
832.5889110565186,2,4,1,3,0,5,H-,1,0,4,0,1000,250.0,0,D21HL,298,test
1296.5919971466064,2,4,1,3,0,5,H-,1,0,4,0,1000,250.0,0,D21HL,299,test
800.6598949432373,2,4,1,3,0,5,H-,1,3,3,0,1000,250.0,3,D21HL,300,test
608.7589263916016,2,4,1,3,0,5,H-,1,4,1,0,1000,250.0,4,D21HL,301,test
656.6400527954102,2,4,1,3,0,5,H-,1,0,4,0,1000,250.0,0,D21HL,302,test
480.6780815124512,2,4,1,3,0,5,H-,1,0,4,0,1000,250.0,0,D21HL,303,test
1136.7239952087402,2,4,1,3,0,5,H-,1,5,5,0,1000,250.0,5,D21HL,304,test
864.7079467773438,2,4,1,3,0,5,H-,1,1,2,0,1000,250.0,1,D21HL,305,test
848.6158847808838,2,4,1,3,0,5,H-,1,3,3,0,1000,250.0,3,D21HL,306,test
1408.6449146270752,2,4,1,3,0,5,H-,1,0,4,0,1000,250.0,0,D21HL,307,test
960.9241485595703,2,4,1,3,0,5,H-,0,2,0,0,1000,250.0,3,D21HL,308,test
624.7389316558838,2,4,1,3,0,5,H-,1,3,3,0,1000,250.0,3,D21HL,309,test
1024.899959564209,2,4,1,3,0,5,H-,1,5,5,0,1000,250.0,5,D21HL,310,test
656.5718650817871,2,4,1,3,0,5,H-,1,0,4,0,1000,250.0,0,D21HL,311,test
576.7078399658203,2,4,1,3,0,5,H-,0,2,0,0,1000,250.0,0,D21HL,312,test
1152.7800559997559,2,4,1,3,0,5,H-,1,5,5,0,1000,250.0,5,D21HL,313,test
624.6399879455566,2,4,1,3,0,5,H-,1,3,3,0,1000,250.0,3,D21HL,314,test
544.6040630340576,2,4,1,3,0,5,H-,1,3,3,0,1000,250.0,3,D21HL,315,test
1536.5710258483887,2,4,1,3,0,5,H-,1,0,4,0,1000,250.0,0,D21HL,316,test
816.6348934173584,2,4,1,3,0,5,H-,1,4,1,0,1000,250.0,4,D21HL,317,test
848.7679958343506,2,4,1,3,0,5,H-,1,3,3,0,1000,250.0,3,D21HL,318,test
928.4999370574951,2,4,1,3,0,5,H-,1,1,2,0,1000,250.0,1,D21HL,319,test
608.7610721588135,2,4,1,3,0,5,H-,1,1,2,0,1000,250.0,1,D21HL,320,test
912.6830101013184,2,4,1,3,0,5,H-,1,3,3,0,1000,250.0,3,D21HL,321,test
560.5258941650391,2,4,1,3,0,5,H-,1,3,3,0,1000,250.0,3,D21HL,322,test
1152.7009010314941,2,4,1,3,0,5,H-,1,2,0,0,1000,250.0,2,D21HL,323,test
976.6860008239746,2,4,1,3,0,5,H-,0,2,0,0,1000,250.0,0,D21HL,324,test
768.82004737854,2,4,1,3,0,5,H-,0,5,5,0,1000,250.0,2,D21HL,325,test
896.7587947845459,2,4,1,3,0,5,H-,1,0,4,0,1000,250.0,0,D21HL,326,test
752.6381015777588,2,4,1,3,0,5,H-,1,5,5,0,1000,250.0,5,D21HL,327,test
544.5420742034912,2,4,1,3,0,5,H-,1,5,5,0,1000,250.0,5,D21HL,328,test
1360.4938983917236,2,4,1,3,0,5,H-,1,2,0,0,1000,250.0,2,D21HL,329,test
544.7390079498291,2,4,1,3,0,5,H-,1,0,4,0,1000,250.0,0,D21HL,330,test
496.5541362762451,2,4,1,3,0,5,H-,1,0,4,0,1000,250.0,0,D21HL,331,test
832.8919410705566,2,4,1,3,0,5,H-,1,5,5,0,1000,250.0,5,D21HL,332,test
880.6741237640381,2,4,1,3,0,5,H-,1,2,0,0,1000,250.0,2,D21HL,333,test
688.7969970703125,2,4,1,3,0,5,H-,1,5,5,0,1000,250.0,5,D21HL,334,test
928.8668632507324,2,4,1,3,0,5,H-,1,2,0,0,1000,250.0,2,D21HL,335,test
944.6849822998047,2,4,1,3,0,5,H-,1,4,1,0,1000,250.0,4,D21HL,336,test
832.7770233154297,2,4,1,3,0,5,H-,1,2,0,0,1000,250.0,2,D21HL,337,test
704.7209739685059,2,4,1,3,0,5,H-,1,3,3,0,1000,250.0,3,D21HL,338,test
688.7190341949463,2,4,1,3,0,5,H-,1,1,2,0,1000,250.0,1,D21HL,339,test
1216.7198657989502,2,4,1,3,0,5,H-,1,5,5,0,1000,250.0,5,D21HL,340,test
432.57904052734375,2,4,1,3,0,5,H-,1,5,5,0,1000,250.0,5,D21HL,341,test
768.8150405883789,2,4,1,3,0,5,H-,1,1,2,0,1000,250.0,1,D21HL,342,test
560.7059001922607,2,4,1,3,0,5,H-,1,3,3,0,1000,250.0,3,D21HL,343,test
672.7149486541748,2,4,1,3,0,5,H-,0,5,5,0,1000,250.0,2,D21HL,344,test
720.6888198852539,2,4,1,3,0,5,H-,1,1,2,0,1000,250.0,1,D21HL,345,test
1089.245080947876,2,4,1,3,0,5,H-,1,5,5,0,1000,250.0,5,D21HL,346,test
576.5202045440674,2,4,1,3,0,5,H-,1,3,3,0,1000,250.0,3,D21HL,347,test
448.7569332122803,2,4,1,3,0,5,H-,1,4,1,0,1000,250.0,4,D21HL,348,test
640.8560276031494,2,4,1,3,0,5,H-,1,1,2,0,1000,250.0,1,D21HL,349,test
640.8610343933105,2,4,1,3,0,5,H-,1,0,4,0,1000,250.0,0,D21HL,350,test
480.78083992004395,2,4,1,3,0,5,H-,1,2,0,0,1000,250.0,2,D21HL,351,test
624.7470378875732,2,4,1,3,0,5,H-,1,3,3,0,1000,250.0,3,D21HL,352,test
544.543981552124,2,4,1,3,0,5,H-,1,3,3,0,1000,250.0,3,D21HL,353,test
928.8170337677002,2,4,1,3,0,5,H-,1,1,2,0,1000,250.0,1,D21HL,354,test
800.7321357727051,2,4,1,3,0,5,H-,0,4,1,0,1000,250.0,5,D21HL,355,test
384.74202156066895,2,4,1,3,0,5,H-,1,4,1,0,1000,250.0,4,D21HL,356,test
1088.724136352539,2,4,1,3,0,5,H-,1,2,0,0,1000,250.0,2,D21HL,357,test
864.5598888397217,2,4,1,3,0,5,H-,1,4,1,0,1000,250.0,4,D21HL,358,test
624.7138977050781,2,4,1,3,0,5,H-,1,4,1,0,1000,250.0,4,D21HL,359,test
800.76003074646,2,4,1,3,0,5,H-,1,0,4,0,1000,250.0,0,D21HL,360,test
720.7059860229492,2,4,1,3,0,5,H-,1,5,5,0,1000,250.0,5,D21HL,361,test
1360.6581687927246,2,4,1,3,0,5,H-,1,2,0,0,1000,250.0,2,D21HL,362,test
1392.8420543670654,2,4,1,3,0,5,H-,1,5,5,0,1000,250.0,5,D21HL,363,test
720.7000255584717,2,4,1,3,0,5,H-,0,5,5,0,1000,250.0,2,D21HL,364,test
1360.671043395996,2,4,1,3,0,5,H-,1,2,0,0,1000,250.0,2,D21HL,365,test
864.8169040679932,2,4,1,3,0,5,H-,1,0,4,0,1000,250.0,0,D21HL,366,test
592.5590991973877,2,4,1,3,0,5,H-,1,0,4,0,1000,250.0,0,D21HL,367,test
1008.7459087371826,2,4,1,3,0,5,H-,1,2,0,0,1000,250.0,2,D21HL,368,test
944.547176361084,2,4,1,3,0,5,H-,1,1,2,0,1000,250.0,1,D21HL,369,test
960.5910778045654,2,4,1,3,0,5,H-,1,0,4,0,1000,250.0,0,D21HL,370,test
975.9609699249268,2,4,1,3,0,5,H-,1,4,1,0,1000,250.0,4,D21HL,371,test
672.7080345153809,2,4,1,3,0,5,H-,1,5,5,0,1000,250.0,5,D21HL,372,test
1200.744867324829,2,4,1,3,0,5,H-,1,2,0,0,1000,250.0,2,D21HL,373,test
976.6919612884521,2,4,1,3,0,5,H-,1,5,5,0,1000,250.0,5,D21HL,374,test
864.6829128265381,2,4,1,3,0,5,H-,1,4,1,0,1000,250.0,4,D21HL,375,test
736.670970916748,2,4,1,3,0,5,H-,1,2,0,0,1000,250.0,2,D21HL,376,test
560.6279373168945,2,4,1,3,0,5,H-,0,4,1,0,1000,250.0,5,D21HL,377,test
1680.7379722595215,2,4,1,3,0,5,H-,1,2,0,0,1000,250.0,2,D21HL,378,test
736.8090152740479,2,4,1,3,0,5,H-,1,3,3,0,1000,250.0,3,D21HL,379,test
1744.6491718292236,2,4,1,3,0,5,H-,1,2,0,0,1000,250.0,2,D21HL,380,test
528.7058353424072,2,4,1,3,0,5,H-,1,2,0,0,1000,250.0,2,D21HL,381,test
416.60404205322266,2,4,1,3,0,5,H-,1,2,0,0,1000,250.0,2,D21HL,382,test
1024.5659351348877,2,4,1,3,0,5,H-,1,1,2,0,1000,250.0,1,D21HL,383,test
752.6729106903076,2,4,1,3,0,5,H-,1,3,3,0,1000,250.0,3,D21HL,384,test
704.7069072723389,2,4,1,3,0,5,H-,1,4,1,0,1000,250.0,4,D21HL,385,test
896.3890075683594,2,4,1,3,0,5,H-,1,3,3,0,1000,250.0,3,D21HL,386,test
1040.923833847046,2,4,1,3,0,5,H-,1,1,2,0,1000,250.0,1,D21HL,387,test
720.6671237945557,2,4,1,3,0,5,H-,1,3,3,0,1000,250.0,3,D21HL,388,test
1440.4590129852295,2,4,1,3,0,5,H-,1,0,4,0,1000,250.0,0,D21HL,389,test
880.8531761169434,2,4,1,3,0,5,H-,1,4,1,0,1000,250.0,4,D21HL,390,test
528.8758277893066,2,4,1,3,0,5,H-,1,4,1,0,1000,250.0,4,D21HL,391,test
481.02402687072754,2,4,1,3,0,5,H-,1,4,1,0,1000,250.0,4,D21HL,392,test
609.0631484985352,2,4,1,3,0,5,H-,1,5,5,0,1000,250.0,5,D21HL,393,test
481.01806640625,2,4,1,3,0,5,H-,1,3,3,0,1000,250.0,3,D21HL,394,test
705.1610946655273,2,4,1,3,0,5,H-,1,4,1,0,1000,250.0,4,D21HL,395,test
465.1339054107666,2,4,1,3,0,5,H-,1,2,0,0,1000,250.0,2,D21HL,396,test
576.9228935241699,2,4,1,3,0,5,H-,1,0,4,0,1000,250.0,0,D21HL,397,test
817.1889781951904,2,4,1,3,0,5,H-,1,0,4,0,1000,250.0,0,D21HL,398,test
481.154203414917,2,4,1,3,0,5,H-,1,1,2,0,1000,250.0,1,D21HL,399,test
689.2209053039551,2,4,1,3,0,5,H-,1,2,0,0,1000,250.0,2,D21HL,400,test
897.0239162445068,2,4,1,3,0,5,H-,1,4,1,0,1000,250.0,4,D21HL,401,test
705.0309181213379,2,4,1,3,0,5,H-,1,2,0,0,1000,250.0,2,D21HL,402,test
592.9789543151855,2,4,1,3,0,5,H-,1,0,4,0,1000,250.0,0,D21HL,403,test
592.9830074310303,2,4,1,3,0,5,H-,1,4,1,0,1000,250.0,4,D21HL,404,test
752.9451847076416,2,4,1,3,0,5,H-,1,0,4,0,1000,250.0,0,D21HL,405,test
801.1898994445801,2,4,1,3,0,5,H-,1,1,2,0,1000,250.0,1,D21HL,406,test
593.195915222168,2,4,1,3,0,5,H-,1,3,3,0,1000,250.0,3,D21HL,407,test
928.9867877960205,2,4,1,3,0,5,H-,0,2,0,0,1000,250.0,0,D21HL,408,test
593.1248664855957,2,4,1,3,0,5,H-,1,4,1,0,1000,250.0,4,D21HL,409,test
753.242015838623,2,4,1,3,0,5,H-,1,4,1,0,1000,250.0,4,D21HL,410,test
688.9629364013672,2,4,1,3,0,5,H-,1,0,4,0,1000,250.0,0,D21HL,411,test
368.82901191711426,2,4,1,3,0,5,H-,1,0,4,0,1000,250.0,0,D21HL,412,test
561.1779689788818,2,4,1,3,0,5,H-,1,4,1,0,1000,250.0,4,D21HL,413,test
1185.1000785827637,2,4,1,3,0,5,H-,1,5,5,0,1000,250.0,5,D21HL,414,test
609.1110706329346,2,4,1,3,0,5,H-,1,0,4,0,1000,250.0,0,D21HL,415,test
609.0679168701172,2,4,1,3,0,5,H-,1,5,5,0,1000,250.0,5,D21HL,416,test
865.0550842285156,2,4,1,3,0,5,H-,1,1,2,0,1000,250.0,1,D21HL,417,test
673.1641292572021,2,4,1,3,0,5,H-,0,3,3,0,1000,250.0,2,D21HL,418,test
753.1318664550781,2,4,1,3,0,5,H-,1,1,2,0,1000,250.0,1,D21HL,419,test
609.2019081115723,2,4,1,3,0,5,H-,1,4,1,0,1000,250.0,4,D21HL,420,test
673.1491088867188,2,4,1,3,0,5,H-,1,1,2,0,1000,250.0,1,D21HL,421,test
673.2218265533447,2,4,1,3,0,5,H-,1,2,0,0,1000,250.0,2,D21HL,422,test
1153.2371044158936,2,4,1,3,0,5,H-,1,5,5,0,1000,250.0,5,D21HL,423,test
785.2098941802979,2,4,1,3,0,5,H-,1,1,2,0,1000,250.0,1,D21HL,424,test
417.1578884124756,2,4,1,3,0,5,H-,1,5,5,0,1000,250.0,5,D21HL,425,test
465.1648998260498,2,4,1,3,0,5,H-,1,5,5,0,1000,250.0,5,D21HL,426,test
721.2018966674805,2,4,1,3,0,5,H-,1,1,2,0,1000,250.0,1,D21HL,427,test
945.1849460601807,2,4,1,3,0,5,H-,1,2,0,0,1000,250.0,2,D21HL,428,test
641.3741111755371,2,4,1,3,0,5,H-,1,1,2,0,1000,250.0,1,D21HL,429,test
513.1909847259521,2,4,1,3,0,5,H-,1,1,2,0,1000,250.0,1,D21HL,430,test
1249.0949630737305,2,4,1,3,0,5,H-,1,3,3,0,1000,250.0,3,D21HL,431,test
753.2129287719727,2,4,1,3,0,5,H-,1,4,1,0,1000,250.0,4,D21HL,432,test
513.1649971008301,2,4,1,3,0,5,H-,1,5,5,0,1000,250.0,5,D21HL,433,test
593.1928157806396,2,4,1,3,0,5,H-,1,4,1,0,1000,250.0,4,D21HL,434,test
689.1341209411621,2,4,1,3,0,5,H-,1,3,3,0,1000,250.0,3,D21HL,435,test
641.2138938903809,2,4,1,3,0,5,H-,1,0,4,0,1000,250.0,0,D21HL,436,test
640.6340599060059,2,4,1,3,0,5,H-,1,1,2,0,1000,250.0,1,D21HL,437,test
816.835880279541,2,4,1,3,0,5,H-,1,3,3,0,1000,250.0,3,D21HL,438,test
689.2831325531006,2,4,1,3,0,5,H-,1,0,4,0,1000,250.0,0,D21HL,439,test
528.7761688232422,2,4,1,3,0,5,H-,1,0,4,0,1000,250.0,0,D21HL,440,test
464.7479057312012,2,4,1,3,0,5,H-,1,0,4,0,1000,250.0,0,D21HL,441,test
928.7059307098389,2,4,1,3,0,5,H-,1,2,0,0,1000,250.0,2,D21HL,442,test
416.6979789733887,2,4,1,3,0,5,H-,1,2,0,0,1000,250.0,2,D21HL,443,test
608.7379455566406,2,4,1,3,0,5,H-,1,4,1,0,1000,250.0,4,D21HL,444,test
1088.8440608978271,2,4,1,3,0,5,H-,1,3,3,0,1000,250.0,3,D21HL,445,test
592.5841331481934,2,4,1,3,0,5,H-,1,4,1,0,1000,250.0,4,D21HL,446,test
400.7720947265625,2,4,1,3,0,5,H-,1,5,5,0,1000,250.0,5,D21HL,447,test
384.62090492248535,2,4,1,3,0,5,H-,1,3,3,0,1000,250.0,3,D21HL,448,test
752.4747848510742,2,4,1,3,0,5,H-,1,0,4,0,1000,250.0,0,D21HL,449,test
1120.7661628723145,2,4,1,3,0,5,H-,1,1,2,0,1000,250.0,1,D21HL,450,test
624.6559619903564,2,4,1,3,0,5,H-,1,4,1,0,1000,250.0,4,D21HL,451,test
704.6751976013184,2,4,1,3,0,5,H-,1,0,4,0,1000,250.0,0,D21HL,452,test
544.795036315918,2,4,1,3,0,5,H-,1,4,1,0,1000,250.0,4,D21HL,453,test
672.813892364502,2,4,1,3,0,5,H-,1,1,2,0,1000,250.0,1,D21HL,454,test
640.8140659332275,2,4,1,3,0,5,H-,1,0,4,0,1000,250.0,0,D21HL,455,test
576.7500400543213,2,4,1,3,0,5,H-,1,4,1,0,1000,250.0,4,D21HL,456,test
672.8000640869141,2,4,1,3,0,5,H-,1,0,4,0,1000,250.0,0,D21HL,457,test
624.5179176330566,2,4,1,3,0,5,H-,1,4,1,0,1000,250.0,4,D21HL,458,test
656.8410396575928,2,4,1,3,0,5,H-,1,1,2,0,1000,250.0,1,D21HL,459,test
976.6638278961182,2,4,1,3,0,5,H-,1,5,5,0,1000,250.0,5,D21HL,460,test
736.7198467254639,2,4,1,3,0,5,H-,1,5,5,0,1000,250.0,5,D21HL,461,test
976.7279624938965,2,4,1,3,0,5,H-,1,0,4,0,1000,250.0,0,D21HL,462,test
784.700870513916,2,4,1,3,0,5,H-,1,1,2,0,1000,250.0,1,D21HL,463,test
1200.5150318145752,2,4,1,3,0,5,H-,1,0,4,0,1000,250.0,0,D21HL,464,test
672.7590560913086,2,4,1,3,0,5,H-,1,1,2,0,1000,250.0,1,D21HL,465,test
496.71316146850586,2,4,1,3,0,5,H-,1,0,4,0,1000,250.0,0,D21HL,466,test
832.8721523284912,2,4,1,3,0,5,H-,1,3,3,0,1000,250.0,3,D21HL,467,test
672.7101802825928,2,4,1,3,0,5,H-,1,4,1,0,1000,250.0,4,D21HL,468,test
816.7910575866699,2,4,1,3,0,5,H-,1,5,5,0,1000,250.0,5,D21HL,469,test
688.6699199676514,2,4,1,3,0,5,H-,1,2,0,0,1000,250.0,2,D21HL,470,test
896.7499732971191,2,4,1,3,0,5,H-,1,2,0,0,1000,250.0,2,D21HL,471,test
576.6561031341553,2,4,1,3,0,5,H-,1,4,1,0,1000,250.0,4,D21HL,472,test
832.6029777526855,2,4,1,3,0,5,H-,1,2,0,0,1000,250.0,2,D21HL,473,test
576.6658782958984,2,4,1,3,0,5,H-,1,2,0,0,1000,250.0,2,D21HL,474,test
912.5971794128418,2,4,1,3,0,5,H-,1,3,3,0,1000,250.0,3,D21HL,475,test
704.679012298584,2,4,1,3,0,5,H-,1,2,0,0,1000,250.0,2,D21HL,476,test
592.8280353546143,2,4,1,3,0,5,H-,1,1,2,0,1000,250.0,1,D21HL,477,test
672.9168891906738,2,4,1,3,0,5,H-,1,2,0,0,1000,250.0,2,D21HL,478,test
832.6120376586914,2,4,1,3,0,5,H-,1,4,1,0,1000,250.0,4,D21HL,479,test
912.8589630126953,2,4,1,3,0,5,H-,1,2,0,0,1000,250.0,2,D21HL,480,test
592.8258895874023,2,4,1,3,0,5,H-,1,0,4,0,1000,250.0,0,D21HL,481,test
704.7479152679443,2,4,1,3,0,5,H-,1,2,0,0,1000,250.0,2,D21HL,482,test
688.6699199676514,2,4,1,3,0,5,H-,1,0,4,0,1000,250.0,0,D21HL,483,test
1216.7730331420898,2,4,1,3,0,5,H-,1,5,5,0,1000,250.0,5,D21HL,484,test
560.7190132141113,2,4,1,3,0,5,H-,1,4,1,0,1000,250.0,4,D21HL,485,test
448.7900733947754,2,4,1,3,0,5,H-,1,5,5,0,1000,250.0,5,D21HL,486,test
864.799976348877,2,4,1,3,0,5,H-,1,1,2,0,1000,250.0,1,D21HL,487,test
672.8560924530029,2,4,1,3,0,5,H-,1,5,5,0,1000,250.0,5,D21HL,488,test
880.7969093322754,2,4,1,3,0,5,H-,1,2,0,0,1000,250.0,2,D21HL,489,test
784.8279476165771,2,4,1,3,0,5,H-,1,1,2,0,1000,250.0,1,D21HL,490,test
560.6889724731445,2,4,1,3,0,5,H-,0,3,3,0,1000,250.0,2,D21HL,491,test
640.7148838043213,2,4,1,3,0,5,H-,1,0,4,0,1000,250.0,0,D21HL,492,test
992.7520751953125,2,4,1,3,0,5,H-,1,5,5,0,1000,250.0,5,D21HL,493,test
688.8558864593506,2,4,1,3,0,5,H-,1,0,4,0,1000,250.0,0,D21HL,494,test
1136.7762088775635,2,4,1,3,0,5,H-,1,0,4,0,1000,250.0,0,D21HL,495,test
1024.8520374298096,2,4,1,3,0,5,H-,1,0,4,0,1000,250.0,0,D21HL,496,test
1104.902982711792,2,4,1,3,0,5,H-,1,2,0,0,1000,250.0,2,D21HL,497,test
592.7457809448242,2,4,1,3,0,5,H-,1,2,0,0,1000,250.0,2,D21HL,498,test
560.8510971069336,2,4,1,3,0,5,H-,1,2,0,0,1000,250.0,2,D21HL,499,test
