RT,SRmap_0,SRmap_1,SRmap_2,SRmap_3,SRmap_4,SRmap_5,condition,correct,correct_response,curstim,ms-precue,ms-prestimblank,ntrials,response,subject,trial,type
4217.962026596069,1,0,4,2,3,5,E-,1,0,1,400,600,250.0,0,c16tc,0,train
1866.6019439697266,1,0,4,2,3,5,E-,1,3,4,400,600,250.0,3,c16tc,1,train
298.3551025390625,1,0,4,2,3,5,E-,0,1,0,400,600,250.0,0,c16tc,2,train
251.06501579284668,1,0,4,2,3,5,E-,1,1,0,400,600,250.0,1,c16tc,3,train
1082.746982574463,1,0,4,2,3,5,E-,1,3,4,400,600,250.0,3,c16tc,4,train
2090.1899337768555,1,0,4,2,3,5,E-,1,4,2,400,600,250.0,4,c16tc,5,train
538.4538173675537,1,0,4,2,3,5,E-,1,0,1,400,600,250.0,0,c16tc,6,train
491.0118579864502,1,0,4,2,3,5,E-,1,4,2,400,600,250.0,4,c16tc,7,train
379.14395332336426,1,0,4,2,3,5,E-,1,0,1,400,600,250.0,0,c16tc,8,train
810.3330135345459,1,0,4,2,3,5,E-,1,1,0,400,600,250.0,1,c16tc,9,train
250.4141330718994,1,0,4,2,3,5,E-,1,1,0,400,600,250.0,1,c16tc,10,train
1050.4109859466553,1,0,4,2,3,5,E-,1,3,4,400,600,250.0,3,c16tc,11,train
778.9840698242188,1,0,4,2,3,5,E-,0,2,3,400,600,250.0,1,c16tc,12,train
602.3948192596436,1,0,4,2,3,5,E-,1,4,2,400,600,250.0,4,c16tc,13,train
1082.6399326324463,1,0,4,2,3,5,E-,1,2,3,400,600,250.0,2,c16tc,14,train
1450.5789279937744,1,0,4,2,3,5,E-,0,4,2,400,600,250.0,3,c16tc,15,train
570.3458786010742,1,0,4,2,3,5,E-,1,4,2,400,600,250.0,4,c16tc,16,train
442.1670436859131,1,0,4,2,3,5,E-,1,5,5,400,600,250.0,5,c16tc,17,train
586.3649845123291,1,0,4,2,3,5,E-,1,3,4,400,600,250.0,3,c16tc,18,train
619.1399097442627,1,0,4,2,3,5,E-,1,2,3,400,600,250.0,2,c16tc,19,train
1434.818983078003,1,0,4,2,3,5,E-,1,4,2,400,600,250.0,4,c16tc,20,train
602.4069786071777,1,0,4,2,3,5,E-,1,5,5,400,600,250.0,5,c16tc,21,train
379.1677951812744,1,0,4,2,3,5,E-,1,5,5,400,600,250.0,5,c16tc,22,train
1080.6238651275635,1,0,4,2,3,5,E-,1,1,0,400,600,250.0,1,c16tc,23,train
618.5410022735596,1,0,4,2,3,5,E-,1,1,0,400,600,250.0,1,c16tc,24,train
250.46586990356445,1,0,4,2,3,5,E-,1,0,1,400,600,250.0,0,c16tc,25,train
810.3837966918945,1,0,4,2,3,5,E-,1,3,4,400,600,250.0,3,c16tc,26,train
810.3461265563965,1,0,4,2,3,5,E-,1,1,0,400,600,250.0,1,c16tc,27,train
314.6350383758545,1,0,4,2,3,5,E-,1,3,4,400,600,250.0,3,c16tc,28,train
410.6311798095703,1,0,4,2,3,5,E-,1,4,2,400,600,250.0,4,c16tc,29,train
282.5770378112793,1,0,4,2,3,5,E-,1,0,1,400,600,250.0,0,c16tc,30,train
715.10910987854,1,0,4,2,3,5,E-,1,2,3,400,600,250.0,2,c16tc,31,train
298.3071804046631,1,0,4,2,3,5,E-,1,1,0,400,600,250.0,1,c16tc,32,train
138.74316215515137,1,0,4,2,3,5,E-,1,1,0,400,600,250.0,1,c16tc,33,train
394.5810794830322,1,0,4,2,3,5,E-,1,5,5,400,600,250.0,5,c16tc,34,train
299.07989501953125,1,0,4,2,3,5,E-,1,4,2,400,600,250.0,4,c16tc,35,train
154.4210910797119,1,0,4,2,3,5,E-,1,5,5,400,600,250.0,5,c16tc,36,train
170.9132194519043,1,0,4,2,3,5,E-,1,0,1,400,600,250.0,0,c16tc,37,train
363.25907707214355,1,0,4,2,3,5,E-,1,3,4,400,600,250.0,3,c16tc,38,train
154.2367935180664,1,0,4,2,3,5,E-,1,1,0,400,600,250.0,1,c16tc,39,train
27.220964431762695,1,0,4,2,3,5,E-,1,0,1,400,600,250.0,0,c16tc,40,train
347.28002548217773,1,0,4,2,3,5,E-,1,3,4,400,600,250.0,3,c16tc,41,train
74.60403442382812,1,0,4,2,3,5,E-,1,0,1,400,600,250.0,0,c16tc,42,train
250.89597702026367,1,0,4,2,3,5,E-,1,2,3,400,600,250.0,2,c16tc,43,train
58.36009979248047,1,0,4,2,3,5,E-,1,2,3,400,600,250.0,2,c16tc,44,train
75.13809204101562,1,0,4,2,3,5,E-,1,1,0,400,600,250.0,1,c16tc,45,train
27.22311019897461,1,0,4,2,3,5,E-,1,1,0,400,600,250.0,1,c16tc,46,train
137.87102699279785,1,0,4,2,3,5,E-,1,2,3,400,600,250.0,2,c16tc,47,train
139.20307159423828,1,0,4,2,3,5,E-,1,3,4,400,600,250.0,3,c16tc,48,train
139.32013511657715,1,0,4,2,3,5,E-,1,3,4,400,600,250.0,3,c16tc,49,train
234.65490341186523,1,0,4,2,3,5,E-,1,5,5,400,600,250.0,5,c16tc,50,train
313.92884254455566,1,0,4,2,3,5,E-,1,2,3,400,600,250.0,2,c16tc,51,train
123.46315383911133,1,0,4,2,3,5,E-,1,2,3,400,600,250.0,2,c16tc,52,train
154.62803840637207,1,0,4,2,3,5,E-,1,0,1,400,600,250.0,0,c16tc,53,train
138.624906539917,1,0,4,2,3,5,E-,0,5,5,400,600,250.0,3,c16tc,54,train
554.926872253418,1,0,4,2,3,5,E-,1,2,3,400,600,250.0,2,c16tc,55,train
202.5449275970459,1,0,4,2,3,5,E-,1,2,3,400,600,250.0,2,c16tc,56,train
90.00396728515625,1,0,4,2,3,5,E-,1,2,3,400,600,250.0,2,c16tc,57,train
234.5719337463379,1,0,4,2,3,5,E-,1,0,1,400,600,250.0,0,c16tc,58,train
170.5038547515869,1,0,4,2,3,5,E-,1,0,1,400,600,250.0,0,c16tc,59,train
88.47999572753906,1,0,4,2,3,5,E-,1,2,3,400,600,250.0,2,c16tc,60,train
58.55202674865723,1,0,4,2,3,5,E-,1,2,3,400,600,250.0,2,c16tc,61,train
74.60498809814453,1,0,4,2,3,5,E-,1,0,1,400,600,250.0,0,c16tc,62,train
0.1308917999267578,1,0,4,2,3,5,E-,1,1,0,400,600,250.0,1,c16tc,63,train
410.8281135559082,1,0,4,2,3,5,E-,1,4,2,400,600,250.0,4,c16tc,64,train
171.2651252746582,1,0,4,2,3,5,E-,1,2,3,400,600,250.0,2,c16tc,65,train
74.53107833862305,1,0,4,2,3,5,E-,1,3,4,400,600,250.0,3,c16tc,66,train
232.70010948181152,1,0,4,2,3,5,E-,1,1,0,400,600,250.0,1,c16tc,67,train
186.5849494934082,1,0,4,2,3,5,E-,1,5,5,400,600,250.0,5,c16tc,68,train
378.7808418273926,1,0,4,2,3,5,E-,1,2,3,400,600,250.0,2,c16tc,69,train
42.716026306152344,1,0,4,2,3,5,E-,1,2,3,400,600,250.0,2,c16tc,70,train
202.47793197631836,1,0,4,2,3,5,E-,1,4,2,400,600,250.0,4,c16tc,71,train
186.86914443969727,1,0,4,2,3,5,E-,1,2,3,400,600,250.0,2,c16tc,72,train
107.35201835632324,1,0,4,2,3,5,E-,1,1,0,400,600,250.0,1,c16tc,73,train
442.9168701171875,1,0,4,2,3,5,E-,1,4,2,400,600,250.0,4,c16tc,74,train
10.699033737182617,1,0,4,2,3,5,E-,1,5,5,400,600,250.0,5,c16tc,75,train
218.18304061889648,1,0,4,2,3,5,E-,0,3,4,400,600,250.0,2,c16tc,76,train
26.585817337036133,1,0,4,2,3,5,E-,1,3,4,400,600,250.0,3,c16tc,77,train
202.3642063140869,1,0,4,2,3,5,E-,1,1,0,400,600,250.0,1,c16tc,78,train
202.36897468566895,1,0,4,2,3,5,E-,1,5,5,400,600,250.0,5,c16tc,79,train
138.7641429901123,1,0,4,2,3,5,E-,1,0,1,400,600,250.0,0,c16tc,80,train
10.455846786499023,1,0,4,2,3,5,E-,1,5,5,400,600,250.0,5,c16tc,81,train
90.10195732116699,1,0,4,2,3,5,E-,0,2,3,400,600,250.0,1,c16tc,82,train
235.04304885864258,1,0,4,2,3,5,E-,1,4,2,400,600,250.0,4,c16tc,83,train
459.1851234436035,1,0,4,2,3,5,E-,1,1,0,400,600,250.0,1,c16tc,84,train
298.5820770263672,1,0,4,2,3,5,E-,1,4,2,400,600,250.0,4,c16tc,85,train
234.39908027648926,1,0,4,2,3,5,E-,1,5,5,400,600,250.0,5,c16tc,86,train
234.6210479736328,1,0,4,2,3,5,E-,1,4,2,400,600,250.0,4,c16tc,87,train
202.24809646606445,1,0,4,2,3,5,E-,1,3,4,400,600,250.0,3,c16tc,88,train
298.687219619751,1,0,4,2,3,5,E-,1,2,3,400,600,250.0,2,c16tc,89,train
279.9530029296875,1,0,4,2,3,5,E-,1,5,5,400,600,250.0,5,c16tc,90,train
491.192102432251,1,0,4,2,3,5,E-,1,3,4,400,600,250.0,3,c16tc,91,train
91.28808975219727,1,0,4,2,3,5,E-,1,5,5,400,600,250.0,5,c16tc,92,train
442.6569938659668,1,0,4,2,3,5,E-,1,2,3,400,600,250.0,2,c16tc,93,train
251.04188919067383,1,0,4,2,3,5,E-,1,4,2,400,600,250.0,4,c16tc,94,train
347.0139503479004,1,0,4,2,3,5,E-,0,3,4,400,600,250.0,2,c16tc,95,train
170.42899131774902,1,0,4,2,3,5,E-,1,4,2,400,600,250.0,4,c16tc,96,train
90.33799171447754,1,0,4,2,3,5,E-,1,5,5,400,600,250.0,5,c16tc,97,train
251.1579990386963,1,0,4,2,3,5,E-,1,0,1,400,600,250.0,0,c16tc,98,train
90.46196937561035,1,0,4,2,3,5,E-,1,0,1,400,600,250.0,0,c16tc,99,train
90.90590476989746,1,0,4,2,3,5,E-,1,5,5,400,600,250.0,5,c16tc,100,train
26.354074478149414,1,0,4,2,3,5,E-,1,4,2,400,600,250.0,4,c16tc,101,train
250.52404403686523,1,0,4,2,3,5,E-,1,2,3,400,600,250.0,2,c16tc,102,train
90.46220779418945,1,0,4,2,3,5,E-,1,2,3,400,600,250.0,2,c16tc,103,train
186.58113479614258,1,0,4,2,3,5,E-,1,3,4,400,600,250.0,3,c16tc,104,train
186.7220401763916,1,0,4,2,3,5,E-,1,2,3,400,600,250.0,2,c16tc,105,train
202.8191089630127,1,0,4,2,3,5,E-,1,0,1,400,600,250.0,0,c16tc,106,train
42.61302947998047,1,0,4,2,3,5,E-,1,1,0,400,600,250.0,1,c16tc,107,train
219.0549373626709,1,0,4,2,3,5,E-,1,4,2,400,600,250.0,4,c16tc,108,train
154.8290252685547,1,0,4,2,3,5,E-,1,1,0,400,600,250.0,1,c16tc,109,train
266.85094833374023,1,0,4,2,3,5,E-,0,3,4,400,600,250.0,2,c16tc,110,train
107.03301429748535,1,0,4,2,3,5,E-,1,1,0,400,600,250.0,1,c16tc,111,train
123.0919361114502,1,0,4,2,3,5,E-,1,1,0,400,600,250.0,1,c16tc,112,train
216.69697761535645,1,0,4,2,3,5,E-,1,2,3,400,600,250.0,2,c16tc,113,train
554.5060634613037,1,0,4,2,3,5,E-,1,4,2,400,600,250.0,4,c16tc,114,train
203.06706428527832,1,0,4,2,3,5,E-,1,1,0,400,600,250.0,1,c16tc,115,train
490.3140068054199,1,0,4,2,3,5,E-,1,3,4,400,600,250.0,3,c16tc,116,train
362.98322677612305,1,0,4,2,3,5,E-,1,2,3,400,600,250.0,2,c16tc,117,train
282.18698501586914,1,0,4,2,3,5,E-,1,4,2,400,600,250.0,4,c16tc,118,train
106.61911964416504,1,0,4,2,3,5,E-,1,0,1,400,600,250.0,0,c16tc,119,train
90.46602249145508,1,0,4,2,3,5,E-,1,0,1,400,600,250.0,0,c16tc,120,train
217.6370620727539,1,0,4,2,3,5,E-,1,2,3,400,600,250.0,2,c16tc,121,train
91.0038948059082,1,0,4,2,3,5,E-,1,4,2,400,600,250.0,4,c16tc,122,train
120.82290649414062,1,0,4,2,3,5,E-,1,5,5,400,600,250.0,5,c16tc,123,train
74.48291778564453,1,0,4,2,3,5,E-,1,4,2,400,600,250.0,4,c16tc,124,train
91.00484848022461,1,0,4,2,3,5,E-,1,5,5,400,600,250.0,5,c16tc,125,train
283.0488681793213,1,0,4,2,3,5,E-,1,2,3,400,600,250.0,2,c16tc,126,train
91.03894233703613,1,0,4,2,3,5,E-,1,2,3,400,600,250.0,2,c16tc,127,train
410.9618663787842,1,0,4,2,3,5,E-,1,4,2,400,600,250.0,4,c16tc,128,train
155.47585487365723,1,0,4,2,3,5,E-,1,4,2,400,600,250.0,4,c16tc,129,train
251.11794471740723,1,0,4,2,3,5,E-,1,3,4,400,600,250.0,3,c16tc,130,train
284.15584564208984,1,0,4,2,3,5,E-,1,2,3,400,600,250.0,2,c16tc,131,train
75.7589340209961,1,0,4,2,3,5,E-,1,2,3,400,600,250.0,2,c16tc,132,train
219.07496452331543,1,0,4,2,3,5,E-,1,4,2,400,600,250.0,4,c16tc,133,train
330.8401107788086,1,0,4,2,3,5,E-,1,5,5,400,600,250.0,5,c16tc,134,train
58.646202087402344,1,0,4,2,3,5,E-,1,4,2,400,600,250.0,4,c16tc,135,train
249.13406372070312,1,0,4,2,3,5,E-,1,2,3,400,600,250.0,2,c16tc,136,train
106.59503936767578,1,0,4,2,3,5,E-,1,5,5,400,600,250.0,5,c16tc,137,train
282.25111961364746,1,0,4,2,3,5,E-,1,0,1,400,600,250.0,0,c16tc,138,train
106.44102096557617,1,0,4,2,3,5,E-,1,0,1,400,600,250.0,0,c16tc,139,train
410.97187995910645,1,0,4,2,3,5,E-,1,3,4,400,600,250.0,3,c16tc,140,train
155.0600528717041,1,0,4,2,3,5,E-,1,0,1,400,600,250.0,0,c16tc,141,train
442.08598136901855,1,0,4,2,3,5,E-,1,4,2,400,600,250.0,4,c16tc,142,train
90.9719467163086,1,0,4,2,3,5,E-,1,4,2,400,600,250.0,4,c16tc,143,train
331.21299743652344,1,0,4,2,3,5,E-,1,2,3,400,600,250.0,2,c16tc,144,train
73.80294799804688,1,0,4,2,3,5,E-,1,2,3,400,600,250.0,2,c16tc,145,train
154.89602088928223,1,0,4,2,3,5,E-,1,0,1,400,600,250.0,0,c16tc,146,train
154.62183952331543,1,0,4,2,3,5,E-,0,1,0,400,600,250.0,0,c16tc,147,train
218.23501586914062,1,0,4,2,3,5,E-,1,4,2,400,600,250.0,4,c16tc,148,train
266.54601097106934,1,0,4,2,3,5,E-,0,3,4,400,600,250.0,4,c16tc,149,train
714.9670124053955,1,0,4,2,3,5,E-,1,4,2,400,600,250.0,4,c16tc,150,train
314.5418167114258,1,0,4,2,3,5,E-,1,2,3,400,600,250.0,2,c16tc,151,train
123.25096130371094,1,0,4,2,3,5,E-,1,4,2,400,600,250.0,4,c16tc,152,train
123.45385551452637,1,0,4,2,3,5,E-,1,5,5,400,600,250.0,5,c16tc,153,train
586.6880416870117,1,0,4,2,3,5,E-,1,2,3,400,600,250.0,2,c16tc,154,train
122.45702743530273,1,0,4,2,3,5,E-,1,5,5,400,600,250.0,5,c16tc,155,train
522.4170684814453,1,0,4,2,3,5,E-,1,3,4,400,600,250.0,3,c16tc,156,train
251.30796432495117,1,0,4,2,3,5,E-,1,4,2,400,600,250.0,4,c16tc,157,train
59.19003486633301,1,0,4,2,3,5,E-,1,1,0,400,600,250.0,1,c16tc,158,train
1418.0970191955566,1,0,4,2,3,5,E-,1,0,1,400,600,250.0,0,c16tc,159,train
170.94707489013672,1,0,4,2,3,5,E-,1,5,5,400,600,250.0,5,c16tc,160,train
363.10505867004395,1,0,4,2,3,5,E-,1,2,3,400,600,250.0,2,c16tc,161,train
91.01390838623047,1,0,4,2,3,5,E-,1,0,1,400,600,250.0,0,c16tc,162,train
138.77201080322266,1,0,4,2,3,5,E-,1,5,5,400,600,250.0,5,c16tc,163,train
59.07702445983887,1,0,4,2,3,5,E-,1,5,5,400,600,250.0,5,c16tc,164,train
217.7591323852539,1,0,4,2,3,5,E-,1,1,0,400,600,250.0,1,c16tc,165,train
74.96404647827148,1,0,4,2,3,5,E-,1,5,5,400,600,250.0,5,c16tc,166,train
107.06305503845215,1,0,4,2,3,5,E-,1,0,1,400,600,250.0,0,c16tc,167,train
1211.2400531768799,1,0,4,2,3,5,E-,1,0,1,400,600,250.0,0,c16tc,168,train
154.96587753295898,1,0,4,2,3,5,E-,1,4,2,400,600,250.0,4,c16tc,169,train
11.00921630859375,1,0,4,2,3,5,E-,1,4,2,400,600,250.0,4,c16tc,170,train
40.647029876708984,1,0,4,2,3,5,E-,1,5,5,400,600,250.0,5,c16tc,171,train
74.63407516479492,1,0,4,2,3,5,E-,1,0,1,400,600,250.0,0,c16tc,172,train
839.4968509674072,1,0,4,2,3,5,E-,1,0,1,400,600,250.0,0,c16tc,173,train
59.05890464782715,1,0,4,2,3,5,E-,1,1,0,400,600,250.0,1,c16tc,174,train
442.89588928222656,1,0,4,2,3,5,E-,1,3,4,400,600,250.0,3,c16tc,175,train
74.4941234588623,1,0,4,2,3,5,E-,1,0,1,400,600,250.0,0,c16tc,176,train
58.537960052490234,1,0,4,2,3,5,E-,1,1,0,400,600,250.0,1,c16tc,177,train
138.6709213256836,1,0,4,2,3,5,E-,1,5,5,400,600,250.0,5,c16tc,178,train
122.74789810180664,1,0,4,2,3,5,E-,0,2,3,400,600,250.0,1,c16tc,179,train
283.2181453704834,1,0,4,2,3,5,E-,1,3,4,400,600,250.0,3,c16tc,180,train
267.17686653137207,1,0,4,2,3,5,E-,1,2,3,400,600,250.0,2,c16tc,181,train
170.27783393859863,1,0,4,2,3,5,E-,1,2,3,400,600,250.0,2,c16tc,182,train
75.13594627380371,1,0,4,2,3,5,E-,1,0,1,400,600,250.0,0,c16tc,183,train
251.03092193603516,1,0,4,2,3,5,E-,1,3,4,400,600,250.0,3,c16tc,184,train
123.27909469604492,1,0,4,2,3,5,E-,1,2,3,400,600,250.0,2,c16tc,185,train
75.10209083557129,1,0,4,2,3,5,E-,1,0,1,400,600,250.0,0,c16tc,186,train
602.9930114746094,1,0,4,2,3,5,E-,1,2,3,400,600,250.0,2,c16tc,187,train
26.900053024291992,1,0,4,2,3,5,E-,1,0,1,400,600,250.0,0,c16tc,188,train
554.9638271331787,1,0,4,2,3,5,E-,1,0,1,400,600,250.0,0,c16tc,189,train
395.07293701171875,1,0,4,2,3,5,E-,1,0,1,400,600,250.0,0,c16tc,190,train
187.06512451171875,1,0,4,2,3,5,E-,1,2,3,400,600,250.0,2,c16tc,191,train
139.01591300964355,1,0,4,2,3,5,E-,1,3,4,400,600,250.0,3,c16tc,192,train
74.84102249145508,1,0,4,2,3,5,E-,1,1,0,400,600,250.0,1,c16tc,193,train
0.15997886657714844,1,0,4,2,3,5,E-,1,1,0,400,600,250.0,1,c16tc,194,train
250.82015991210938,1,0,4,2,3,5,E-,1,2,3,400,600,250.0,2,c16tc,195,train
138.97395133972168,1,0,4,2,3,5,E-,0,4,2,400,600,250.0,3,c16tc,196,train
26.443004608154297,1,0,4,2,3,5,E-,1,0,1,400,600,250.0,0,c16tc,197,train
522.9299068450928,1,0,4,2,3,5,E-,1,0,1,400,600,250.0,0,c16tc,198,train
219.35606002807617,1,0,4,2,3,5,E-,1,3,4,400,600,250.0,3,c16tc,199,train
106.71591758728027,1,0,4,2,3,5,E-,0,2,3,400,600,250.0,1,c16tc,200,train
42.8318977355957,1,0,4,2,3,5,E-,1,0,1,400,600,250.0,0,c16tc,201,train
59.05795097351074,1,0,4,2,3,5,E-,1,0,1,400,600,250.0,0,c16tc,202,train
138.95487785339355,1,0,4,2,3,5,E-,1,2,3,400,600,250.0,2,c16tc,203,train
75.23608207702637,1,0,4,2,3,5,E-,1,1,0,400,600,250.0,1,c16tc,204,train
250.90503692626953,1,0,4,2,3,5,E-,1,4,2,400,600,250.0,4,c16tc,205,train
106.89377784729004,1,0,4,2,3,5,E-,1,1,0,400,600,250.0,1,c16tc,206,train
74.38302040100098,1,0,4,2,3,5,E-,0,3,4,400,600,250.0,2,c16tc,207,train
155.08699417114258,1,0,4,2,3,5,E-,1,2,3,400,600,250.0,2,c16tc,208,train
106.9791316986084,1,0,4,2,3,5,E-,1,5,5,400,600,250.0,5,c16tc,209,train
0.23508071899414062,1,0,4,2,3,5,E-,1,5,5,400,600,250.0,5,c16tc,210,train
139.0080451965332,1,0,4,2,3,5,E-,1,2,3,400,600,250.0,2,c16tc,211,train
26.72410011291504,1,0,4,2,3,5,E-,1,0,1,400,600,250.0,0,c16tc,212,train
715.0089740753174,1,0,4,2,3,5,E-,1,1,0,400,600,250.0,1,c16tc,213,train
442.9512023925781,1,0,4,2,3,5,E-,1,1,0,400,600,250.0,1,c16tc,214,train
474.2920398712158,1,0,4,2,3,5,E-,1,1,0,400,600,250.0,1,c16tc,215,train
424.59988594055176,1,0,4,2,3,5,E-,1,1,0,400,600,250.0,1,c16tc,216,train
571.0558891296387,1,0,4,2,3,5,E-,1,3,4,400,600,250.0,3,c16tc,217,train
171.13685607910156,1,0,4,2,3,5,E-,1,3,4,400,600,250.0,3,c16tc,218,train
122.62082099914551,1,0,4,2,3,5,E-,1,5,5,400,600,250.0,5,c16tc,219,train
43.39599609375,1,0,4,2,3,5,E-,1,0,1,400,600,250.0,0,c16tc,220,train
10.335922241210938,1,0,4,2,3,5,E-,1,1,0,400,600,250.0,1,c16tc,221,train
43.06912422180176,1,0,4,2,3,5,E-,1,0,1,400,600,250.0,0,c16tc,222,train
74.96309280395508,1,0,4,2,3,5,E-,1,5,5,400,600,250.0,5,c16tc,223,train
490.82493782043457,1,0,4,2,3,5,E-,1,5,5,400,600,250.0,5,c16tc,224,train
315.1278495788574,1,0,4,2,3,5,E-,1,3,4,400,600,250.0,3,c16tc,225,train
202.8329372406006,1,0,4,2,3,5,E-,0,2,3,400,600,250.0,1,c16tc,226,train
25.630950927734375,1,0,4,2,3,5,E-,1,2,3,400,600,250.0,2,c16tc,227,train
91.01700782775879,1,0,4,2,3,5,E-,1,5,5,400,600,250.0,5,c16tc,228,train
186.83695793151855,1,0,4,2,3,5,E-,1,4,2,400,600,250.0,4,c16tc,229,train
315.187931060791,1,0,4,2,3,5,E-,1,4,2,400,600,250.0,4,c16tc,230,train
554.3179512023926,1,0,4,2,3,5,E-,1,4,2,400,600,250.0,4,c16tc,231,train
43.109893798828125,1,0,4,2,3,5,E-,1,4,2,400,600,250.0,4,c16tc,232,train
154.45804595947266,1,0,4,2,3,5,E-,1,0,1,400,600,250.0,0,c16tc,233,train
123.00705909729004,1,0,4,2,3,5,E-,1,4,2,400,600,250.0,4,c16tc,234,train
506.7291259765625,1,0,4,2,3,5,E-,1,2,3,400,600,250.0,2,c16tc,235,train
266.9229507446289,1,0,4,2,3,5,E-,1,3,4,400,600,250.0,3,c16tc,236,train
234.82894897460938,1,0,4,2,3,5,E-,0,1,0,400,600,250.0,0,c16tc,237,train
267.0140266418457,1,0,4,2,3,5,E-,1,2,3,400,600,250.0,2,c16tc,238,train
603.1420230865479,1,0,4,2,3,5,E-,1,2,3,400,600,250.0,2,c16tc,239,train
56.546926498413086,1,0,4,2,3,5,E-,1,4,2,400,600,250.0,4,c16tc,240,train
75.07610321044922,1,0,4,2,3,5,E-,1,5,5,400,600,250.0,5,c16tc,241,train
154.9050807952881,1,0,4,2,3,5,E-,1,1,0,400,600,250.0,1,c16tc,242,train
520.7870006561279,1,0,4,2,3,5,E-,1,5,5,400,600,250.0,5,c16tc,243,train
123.67701530456543,1,0,4,2,3,5,E-,1,4,2,400,600,250.0,4,c16tc,244,train
121.5369701385498,1,0,4,2,3,5,E-,1,3,4,400,600,250.0,3,c16tc,245,train
58.81786346435547,1,0,4,2,3,5,E-,1,0,1,400,600,250.0,0,c16tc,246,train
42.714834213256836,1,0,4,2,3,5,E-,1,1,0,400,600,250.0,1,c16tc,247,train
107.13791847229004,1,0,4,2,3,5,E-,1,4,2,400,600,250.0,4,c16tc,248,train
91.0189151763916,1,0,4,2,3,5,E-,1,0,1,400,600,250.0,0,c16tc,249,train
2737.074136734009,0,2,3,1,4,5,E-,0,1,3,0,1000,250.0,2,c16tc,250,test
3088.5608196258545,0,2,3,1,4,5,E-,1,4,4,0,1000,250.0,4,c16tc,251,test
590.4130935668945,0,2,3,1,4,5,E-,1,4,4,0,1000,250.0,4,c16tc,252,test
849.0080833435059,0,2,3,1,4,5,E-,1,4,4,0,1000,250.0,4,c16tc,253,test
2176.7141819000244,0,2,3,1,4,5,E-,1,5,5,0,1000,250.0,5,c16tc,254,test
1313.080072402954,0,2,3,1,4,5,E-,1,1,3,0,1000,250.0,1,c16tc,255,test
496.9520568847656,0,2,3,1,4,5,E-,1,5,5,0,1000,250.0,5,c16tc,256,test
608.7560653686523,0,2,3,1,4,5,E-,1,1,3,0,1000,250.0,1,c16tc,257,test
1359.0857982635498,0,2,3,1,4,5,E-,1,0,0,0,1000,250.0,0,c16tc,258,test
977.3170948028564,0,2,3,1,4,5,E-,1,2,1,0,1000,250.0,2,c16tc,259,test
1136.9428634643555,0,2,3,1,4,5,E-,1,1,3,0,1000,250.0,1,c16tc,260,test
529.13498878479,0,2,3,1,4,5,E-,1,1,3,0,1000,250.0,1,c16tc,261,test
849.1928577423096,0,2,3,1,4,5,E-,1,0,0,0,1000,250.0,0,c16tc,262,test
1297.050952911377,0,2,3,1,4,5,E-,1,5,5,0,1000,250.0,5,c16tc,263,test
864.9649620056152,0,2,3,1,4,5,E-,1,3,2,0,1000,250.0,3,c16tc,264,test
417.12403297424316,0,2,3,1,4,5,E-,0,0,0,0,1000,250.0,4,c16tc,265,test
689.0780925750732,0,2,3,1,4,5,E-,1,0,0,0,1000,250.0,0,c16tc,266,test
640.7589912414551,0,2,3,1,4,5,E-,1,3,2,0,1000,250.0,3,c16tc,267,test
624.9711513519287,0,2,3,1,4,5,E-,1,3,2,0,1000,250.0,3,c16tc,268,test
448.93789291381836,0,2,3,1,4,5,E-,1,3,2,0,1000,250.0,3,c16tc,269,test
784.6300601959229,0,2,3,1,4,5,E-,1,0,0,0,1000,250.0,0,c16tc,270,test
752.7439594268799,0,2,3,1,4,5,E-,1,3,2,0,1000,250.0,3,c16tc,271,test
384.57703590393066,0,2,3,1,4,5,E-,1,3,2,0,1000,250.0,3,c16tc,272,test
1073.1079578399658,0,2,3,1,4,5,E-,1,2,1,0,1000,250.0,2,c16tc,273,test
2961.132049560547,0,2,3,1,4,5,E-,1,5,5,0,1000,250.0,5,c16tc,274,test
769.0901756286621,0,2,3,1,4,5,E-,1,0,0,0,1000,250.0,0,c16tc,275,test
545.1359748840332,0,2,3,1,4,5,E-,1,1,3,0,1000,250.0,1,c16tc,276,test
368.9999580383301,0,2,3,1,4,5,E-,1,1,3,0,1000,250.0,1,c16tc,277,test
912.9741191864014,0,2,3,1,4,5,E-,1,4,4,0,1000,250.0,4,c16tc,278,test
864.5980358123779,0,2,3,1,4,5,E-,1,0,0,0,1000,250.0,0,c16tc,279,test
400.831937789917,0,2,3,1,4,5,E-,0,1,3,0,1000,250.0,5,c16tc,280,test
784.5749855041504,0,2,3,1,4,5,E-,1,0,0,0,1000,250.0,0,c16tc,281,test
430.6681156158447,0,2,3,1,4,5,E-,1,0,0,0,1000,250.0,0,c16tc,282,test
928.4999370574951,0,2,3,1,4,5,E-,1,2,1,0,1000,250.0,2,c16tc,283,test
736.8860244750977,0,2,3,1,4,5,E-,1,4,4,0,1000,250.0,4,c16tc,284,test
672.9469299316406,0,2,3,1,4,5,E-,1,0,0,0,1000,250.0,0,c16tc,285,test
768.9878940582275,0,2,3,1,4,5,E-,0,4,4,0,1000,250.0,3,c16tc,286,test
608.529806137085,0,2,3,1,4,5,E-,1,0,0,0,1000,250.0,0,c16tc,287,test
736.9351387023926,0,2,3,1,4,5,E-,1,2,1,0,1000,250.0,2,c16tc,288,test
1264.902114868164,0,2,3,1,4,5,E-,1,4,4,0,1000,250.0,4,c16tc,289,test
609.0059280395508,0,2,3,1,4,5,E-,1,0,0,0,1000,250.0,0,c16tc,290,test
704.7989368438721,0,2,3,1,4,5,E-,1,1,3,0,1000,250.0,1,c16tc,291,test
576.4899253845215,0,2,3,1,4,5,E-,0,5,5,0,1000,250.0,0,c16tc,292,test
624.9699592590332,0,2,3,1,4,5,E-,1,1,3,0,1000,250.0,1,c16tc,293,test
608.9420318603516,0,2,3,1,4,5,E-,1,3,2,0,1000,250.0,3,c16tc,294,test
432.7101707458496,0,2,3,1,4,5,E-,1,3,2,0,1000,250.0,3,c16tc,295,test
705.1398754119873,0,2,3,1,4,5,E-,1,4,4,0,1000,250.0,4,c16tc,296,test
592.5521850585938,0,2,3,1,4,5,E-,1,3,2,0,1000,250.0,3,c16tc,297,test
624.7048377990723,0,2,3,1,4,5,E-,0,2,1,0,1000,250.0,1,c16tc,298,test
592.8969383239746,0,2,3,1,4,5,E-,1,3,2,0,1000,250.0,3,c16tc,299,test
673.0048656463623,0,2,3,1,4,5,E-,1,0,0,0,1000,250.0,0,c16tc,300,test
833.184003829956,0,2,3,1,4,5,E-,1,5,5,0,1000,250.0,5,c16tc,301,test
416.81694984436035,0,2,3,1,4,5,E-,1,0,0,0,1000,250.0,0,c16tc,302,test
641.0689353942871,0,2,3,1,4,5,E-,1,1,3,0,1000,250.0,1,c16tc,303,test
704.9381732940674,0,2,3,1,4,5,E-,1,0,0,0,1000,250.0,0,c16tc,304,test
542.633056640625,0,2,3,1,4,5,E-,1,5,5,0,1000,250.0,5,c16tc,305,test
656.8210124969482,0,2,3,1,4,5,E-,1,1,3,0,1000,250.0,1,c16tc,306,test
528.8739204406738,0,2,3,1,4,5,E-,1,0,0,0,1000,250.0,0,c16tc,307,test
976.9439697265625,0,2,3,1,4,5,E-,1,5,5,0,1000,250.0,5,c16tc,308,test
720.1039791107178,0,2,3,1,4,5,E-,1,5,5,0,1000,250.0,5,c16tc,309,test
816.6961669921875,0,2,3,1,4,5,E-,1,4,4,0,1000,250.0,4,c16tc,310,test
688.9948844909668,0,2,3,1,4,5,E-,1,0,0,0,1000,250.0,0,c16tc,311,test
625.1819133758545,0,2,3,1,4,5,E-,1,1,3,0,1000,250.0,1,c16tc,312,test
528.1460285186768,0,2,3,1,4,5,E-,1,1,3,0,1000,250.0,1,c16tc,313,test
433.1820011138916,0,2,3,1,4,5,E-,1,1,3,0,1000,250.0,1,c16tc,314,test
560.8210563659668,0,2,3,1,4,5,E-,1,3,2,0,1000,250.0,3,c16tc,315,test
913.1598472595215,0,2,3,1,4,5,E-,1,5,5,0,1000,250.0,5,c16tc,316,test
577.0092010498047,0,2,3,1,4,5,E-,1,1,3,0,1000,250.0,1,c16tc,317,test
400.83909034729004,0,2,3,1,4,5,E-,1,1,3,0,1000,250.0,1,c16tc,318,test
705.0511837005615,0,2,3,1,4,5,E-,1,2,1,0,1000,250.0,2,c16tc,319,test
560.8720779418945,0,2,3,1,4,5,E-,1,1,3,0,1000,250.0,1,c16tc,320,test
577.1811008453369,0,2,3,1,4,5,E-,1,0,0,0,1000,250.0,0,c16tc,321,test
721.1408615112305,0,2,3,1,4,5,E-,1,4,4,0,1000,250.0,4,c16tc,322,test
593.1391716003418,0,2,3,1,4,5,E-,1,1,3,0,1000,250.0,1,c16tc,323,test
784.3937873840332,0,2,3,1,4,5,E-,0,4,4,0,1000,250.0,3,c16tc,324,test
576.0610103607178,0,2,3,1,4,5,E-,1,0,0,0,1000,250.0,0,c16tc,325,test
545.1490879058838,0,2,3,1,4,5,E-,1,0,0,0,1000,250.0,0,c16tc,326,test
688.4469985961914,0,2,3,1,4,5,E-,0,5,5,0,1000,250.0,0,c16tc,327,test
609.1480255126953,0,2,3,1,4,5,E-,1,0,0,0,1000,250.0,0,c16tc,328,test
480.7748794555664,0,2,3,1,4,5,E-,1,1,3,0,1000,250.0,1,c16tc,329,test
576.9031047821045,0,2,3,1,4,5,E-,1,5,5,0,1000,250.0,5,c16tc,330,test
497.1117973327637,0,2,3,1,4,5,E-,1,3,2,0,1000,250.0,3,c16tc,331,test
448.98104667663574,0,2,3,1,4,5,E-,1,5,5,0,1000,250.0,5,c16tc,332,test
577.1229267120361,0,2,3,1,4,5,E-,1,2,1,0,1000,250.0,2,c16tc,333,test
478.61385345458984,0,2,3,1,4,5,E-,1,1,3,0,1000,250.0,1,c16tc,334,test
464.993953704834,0,2,3,1,4,5,E-,1,3,2,0,1000,250.0,3,c16tc,335,test
385.0109577178955,0,2,3,1,4,5,E-,0,1,3,0,1000,250.0,5,c16tc,336,test
673.1100082397461,0,2,3,1,4,5,E-,1,2,1,0,1000,250.0,2,c16tc,337,test
736.915111541748,0,2,3,1,4,5,E-,1,5,5,0,1000,250.0,5,c16tc,338,test
480.97681999206543,0,2,3,1,4,5,E-,1,3,2,0,1000,250.0,3,c16tc,339,test
593.0509567260742,0,2,3,1,4,5,E-,1,0,0,0,1000,250.0,0,c16tc,340,test
496.8149662017822,0,2,3,1,4,5,E-,1,3,2,0,1000,250.0,3,c16tc,341,test
449.0702152252197,0,2,3,1,4,5,E-,1,3,2,0,1000,250.0,3,c16tc,342,test
689.0339851379395,0,2,3,1,4,5,E-,1,1,3,0,1000,250.0,1,c16tc,343,test
544.9848175048828,0,2,3,1,4,5,E-,1,3,2,0,1000,250.0,3,c16tc,344,test
497.089147567749,0,2,3,1,4,5,E-,1,3,2,0,1000,250.0,3,c16tc,345,test
720.8919525146484,0,2,3,1,4,5,E-,1,4,4,0,1000,250.0,4,c16tc,346,test
656.9838523864746,0,2,3,1,4,5,E-,1,0,0,0,1000,250.0,0,c16tc,347,test
561.0530376434326,0,2,3,1,4,5,E-,1,2,1,0,1000,250.0,2,c16tc,348,test
529.1509628295898,0,2,3,1,4,5,E-,1,1,3,0,1000,250.0,1,c16tc,349,test
721.0428714752197,0,2,3,1,4,5,E-,1,5,5,0,1000,250.0,5,c16tc,350,test
513.1499767303467,0,2,3,1,4,5,E-,1,3,2,0,1000,250.0,3,c16tc,351,test
640.8770084381104,0,2,3,1,4,5,E-,1,4,4,0,1000,250.0,4,c16tc,352,test
513.0159854888916,0,2,3,1,4,5,E-,1,4,4,0,1000,250.0,4,c16tc,353,test
496.8850612640381,0,2,3,1,4,5,E-,1,3,2,0,1000,250.0,3,c16tc,354,test
672.9950904846191,0,2,3,1,4,5,E-,1,0,0,0,1000,250.0,0,c16tc,355,test
640.9850120544434,0,2,3,1,4,5,E-,1,3,2,0,1000,250.0,3,c16tc,356,test
559.0400695800781,0,2,3,1,4,5,E-,1,1,3,0,1000,250.0,1,c16tc,357,test
817.039966583252,0,2,3,1,4,5,E-,1,4,4,0,1000,250.0,4,c16tc,358,test
497.1880912780762,0,2,3,1,4,5,E-,1,1,3,0,1000,250.0,1,c16tc,359,test
574.8059749603271,0,2,3,1,4,5,E-,1,4,4,0,1000,250.0,4,c16tc,360,test
416.9800281524658,0,2,3,1,4,5,E-,1,4,4,0,1000,250.0,4,c16tc,361,test
401.25203132629395,0,2,3,1,4,5,E-,1,4,4,0,1000,250.0,4,c16tc,362,test
496.33193016052246,0,2,3,1,4,5,E-,1,3,2,0,1000,250.0,3,c16tc,363,test
542.780876159668,0,2,3,1,4,5,E-,1,4,4,0,1000,250.0,4,c16tc,364,test
496.96803092956543,0,2,3,1,4,5,E-,1,1,3,0,1000,250.0,1,c16tc,365,test
577.0421028137207,0,2,3,1,4,5,E-,1,5,5,0,1000,250.0,5,c16tc,366,test
433.2468509674072,0,2,3,1,4,5,E-,1,0,0,0,1000,250.0,0,c16tc,367,test
577.2089958190918,0,2,3,1,4,5,E-,1,1,3,0,1000,250.0,1,c16tc,368,test
832.8771591186523,0,2,3,1,4,5,E-,1,5,5,0,1000,250.0,5,c16tc,369,test
497.01690673828125,0,2,3,1,4,5,E-,1,2,1,0,1000,250.0,2,c16tc,370,test
673.0670928955078,0,2,3,1,4,5,E-,1,0,0,0,1000,250.0,0,c16tc,371,test
641.1659717559814,0,2,3,1,4,5,E-,0,5,5,0,1000,250.0,0,c16tc,372,test
865.1530742645264,0,2,3,1,4,5,E-,1,3,2,0,1000,250.0,3,c16tc,373,test
704.8819065093994,0,2,3,1,4,5,E-,1,1,3,0,1000,250.0,1,c16tc,374,test
880.8748722076416,0,2,3,1,4,5,E-,1,0,0,0,1000,250.0,0,c16tc,375,test
736.8440628051758,0,2,3,1,4,5,E-,1,4,4,0,1000,250.0,4,c16tc,376,test
512.8860473632812,0,2,3,1,4,5,E-,1,3,2,0,1000,250.0,3,c16tc,377,test
481.0969829559326,0,2,3,1,4,5,E-,1,3,2,0,1000,250.0,3,c16tc,378,test
689.1250610351562,0,2,3,1,4,5,E-,1,5,5,0,1000,250.0,5,c16tc,379,test
785.1641178131104,0,2,3,1,4,5,E-,1,2,1,0,1000,250.0,2,c16tc,380,test
529.2689800262451,0,2,3,1,4,5,E-,1,3,2,0,1000,250.0,3,c16tc,381,test
448.93407821655273,0,2,3,1,4,5,E-,1,3,2,0,1000,250.0,3,c16tc,382,test
641.1020755767822,0,2,3,1,4,5,E-,1,0,0,0,1000,250.0,0,c16tc,383,test
608.9601516723633,0,2,3,1,4,5,E-,1,1,3,0,1000,250.0,1,c16tc,384,test
849.1919040679932,0,2,3,1,4,5,E-,1,5,5,0,1000,250.0,5,c16tc,385,test
641.5321826934814,0,2,3,1,4,5,E-,1,2,1,0,1000,250.0,2,c16tc,386,test
769.2501544952393,0,2,3,1,4,5,E-,1,2,1,0,1000,250.0,2,c16tc,387,test
576.9970417022705,0,2,3,1,4,5,E-,1,1,3,0,1000,250.0,1,c16tc,388,test
593.2090282440186,0,2,3,1,4,5,E-,1,4,4,0,1000,250.0,4,c16tc,389,test
449.1281509399414,0,2,3,1,4,5,E-,1,4,4,0,1000,250.0,4,c16tc,390,test
560.8508586883545,0,2,3,1,4,5,E-,1,3,2,0,1000,250.0,3,c16tc,391,test
529.1860103607178,0,2,3,1,4,5,E-,1,1,3,0,1000,250.0,1,c16tc,392,test
401.15904808044434,0,2,3,1,4,5,E-,1,1,3,0,1000,250.0,1,c16tc,393,test
528.8059711456299,0,2,3,1,4,5,E-,1,4,4,0,1000,250.0,4,c16tc,394,test
545.10498046875,0,2,3,1,4,5,E-,1,3,2,0,1000,250.0,3,c16tc,395,test
497.1320629119873,0,2,3,1,4,5,E-,1,1,3,0,1000,250.0,1,c16tc,396,test
545.0398921966553,0,2,3,1,4,5,E-,1,4,4,0,1000,250.0,4,c16tc,397,test
625.0979900360107,0,2,3,1,4,5,E-,0,2,1,0,1000,250.0,1,c16tc,398,test
704.9560546875,0,2,3,1,4,5,E-,1,0,0,0,1000,250.0,0,c16tc,399,test
625.1721382141113,0,2,3,1,4,5,E-,1,2,1,0,1000,250.0,2,c16tc,400,test
544.8369979858398,0,2,3,1,4,5,E-,1,4,4,0,1000,250.0,4,c16tc,401,test
784.9171161651611,0,2,3,1,4,5,E-,1,5,5,0,1000,250.0,5,c16tc,402,test
769.0260410308838,0,2,3,1,4,5,E-,1,1,3,0,1000,250.0,1,c16tc,403,test
769.4618701934814,0,2,3,1,4,5,E-,1,0,0,0,1000,250.0,0,c16tc,404,test
625.0178813934326,0,2,3,1,4,5,E-,1,2,1,0,1000,250.0,2,c16tc,405,test
481.10413551330566,0,2,3,1,4,5,E-,1,2,1,0,1000,250.0,2,c16tc,406,test
544.9669361114502,0,2,3,1,4,5,E-,1,4,4,0,1000,250.0,4,c16tc,407,test
497.1909523010254,0,2,3,1,4,5,E-,1,4,4,0,1000,250.0,4,c16tc,408,test
607.3651313781738,0,2,3,1,4,5,E-,1,5,5,0,1000,250.0,5,c16tc,409,test
545.0839996337891,0,2,3,1,4,5,E-,1,3,2,0,1000,250.0,3,c16tc,410,test
513.0090713500977,0,2,3,1,4,5,E-,1,3,2,0,1000,250.0,3,c16tc,411,test
561.1181259155273,0,2,3,1,4,5,E-,1,1,3,0,1000,250.0,1,c16tc,412,test
465.07883071899414,0,2,3,1,4,5,E-,0,5,5,0,1000,250.0,4,c16tc,413,test
513.1330490112305,0,2,3,1,4,5,E-,1,4,4,0,1000,250.0,4,c16tc,414,test
433.0010414123535,0,2,3,1,4,5,E-,1,4,4,0,1000,250.0,4,c16tc,415,test
481.1830520629883,0,2,3,1,4,5,E-,0,3,2,0,1000,250.0,4,c16tc,416,test
561.1188411712646,0,2,3,1,4,5,E-,1,2,1,0,1000,250.0,2,c16tc,417,test
753.1468868255615,0,2,3,1,4,5,E-,1,0,0,0,1000,250.0,0,c16tc,418,test
625.0400543212891,0,2,3,1,4,5,E-,1,1,3,0,1000,250.0,1,c16tc,419,test
592.9892063140869,0,2,3,1,4,5,E-,1,4,4,0,1000,250.0,4,c16tc,420,test
577.1889686584473,0,2,3,1,4,5,E-,1,2,1,0,1000,250.0,2,c16tc,421,test
465.00301361083984,0,2,3,1,4,5,E-,1,2,1,0,1000,250.0,2,c16tc,422,test
544.9979305267334,0,2,3,1,4,5,E-,1,1,3,0,1000,250.0,1,c16tc,423,test
593.0571556091309,0,2,3,1,4,5,E-,1,3,2,0,1000,250.0,3,c16tc,424,test
577.1570205688477,0,2,3,1,4,5,E-,1,4,4,0,1000,250.0,4,c16tc,425,test
385.1749897003174,0,2,3,1,4,5,E-,1,4,4,0,1000,250.0,4,c16tc,426,test
592.9851531982422,0,2,3,1,4,5,E-,1,0,0,0,1000,250.0,0,c16tc,427,test
609.1010570526123,0,2,3,1,4,5,E-,1,1,3,0,1000,250.0,1,c16tc,428,test
720.8781242370605,0,2,3,1,4,5,E-,1,2,1,0,1000,250.0,2,c16tc,429,test
529.0341377258301,0,2,3,1,4,5,E-,1,4,4,0,1000,250.0,4,c16tc,430,test
449.0981101989746,0,2,3,1,4,5,E-,1,4,4,0,1000,250.0,4,c16tc,431,test
657.1738719940186,0,2,3,1,4,5,E-,1,3,2,0,1000,250.0,3,c16tc,432,test
655.0281047821045,0,2,3,1,4,5,E-,1,4,4,0,1000,250.0,4,c16tc,433,test
529.033899307251,0,2,3,1,4,5,E-,1,3,2,0,1000,250.0,3,c16tc,434,test
480.95107078552246,0,2,3,1,4,5,E-,1,4,4,0,1000,250.0,4,c16tc,435,test
561.021089553833,0,2,3,1,4,5,E-,1,3,2,0,1000,250.0,3,c16tc,436,test
657.0930480957031,0,2,3,1,4,5,E-,1,0,0,0,1000,250.0,0,c16tc,437,test
913.0668640136719,0,2,3,1,4,5,E-,1,5,5,0,1000,250.0,5,c16tc,438,test
593.1799411773682,0,2,3,1,4,5,E-,1,2,1,0,1000,250.0,2,c16tc,439,test
432.9719543457031,0,2,3,1,4,5,E-,1,2,1,0,1000,250.0,2,c16tc,440,test
400.8629322052002,0,2,3,1,4,5,E-,1,2,1,0,1000,250.0,2,c16tc,441,test
577.1811008453369,0,2,3,1,4,5,E-,1,1,3,0,1000,250.0,1,c16tc,442,test
513.0479335784912,0,2,3,1,4,5,E-,1,0,0,0,1000,250.0,0,c16tc,443,test
561.1259937286377,0,2,3,1,4,5,E-,1,1,3,0,1000,250.0,1,c16tc,444,test
497.17187881469727,0,2,3,1,4,5,E-,1,3,2,0,1000,250.0,3,c16tc,445,test
673.2320785522461,0,2,3,1,4,5,E-,1,5,5,0,1000,250.0,5,c16tc,446,test
497.1499443054199,0,2,3,1,4,5,E-,1,1,3,0,1000,250.0,1,c16tc,447,test
625.1740455627441,0,2,3,1,4,5,E-,1,0,0,0,1000,250.0,0,c16tc,448,test
673.1739044189453,0,2,3,1,4,5,E-,1,5,5,0,1000,250.0,5,c16tc,449,test
561.1610412597656,0,2,3,1,4,5,E-,1,2,1,0,1000,250.0,2,c16tc,450,test
433.1488609313965,0,2,3,1,4,5,E-,0,5,5,0,1000,250.0,4,c16tc,451,test
769.0169811248779,0,2,3,1,4,5,E-,1,5,5,0,1000,250.0,5,c16tc,452,test
880.7790279388428,0,2,3,1,4,5,E-,1,4,4,0,1000,250.0,4,c16tc,453,test
561.150074005127,0,2,3,1,4,5,E-,1,3,2,0,1000,250.0,3,c16tc,454,test
448.9729404449463,0,2,3,1,4,5,E-,1,3,2,0,1000,250.0,3,c16tc,455,test
561.1329078674316,0,2,3,1,4,5,E-,1,1,3,0,1000,250.0,1,c16tc,456,test
673.3310222625732,0,2,3,1,4,5,E-,1,5,5,0,1000,250.0,5,c16tc,457,test
689.115047454834,0,2,3,1,4,5,E-,1,2,1,0,1000,250.0,2,c16tc,458,test
624.8137950897217,0,2,3,1,4,5,E-,1,5,5,0,1000,250.0,5,c16tc,459,test
512.9029750823975,0,2,3,1,4,5,E-,1,3,2,0,1000,250.0,3,c16tc,460,test
609.0879440307617,0,2,3,1,4,5,E-,1,5,5,0,1000,250.0,5,c16tc,461,test
464.98680114746094,0,2,3,1,4,5,E-,1,5,5,0,1000,250.0,5,c16tc,462,test
545.2017784118652,0,2,3,1,4,5,E-,1,2,1,0,1000,250.0,2,c16tc,463,test
625.0741481781006,0,2,3,1,4,5,E-,1,2,1,0,1000,250.0,2,c16tc,464,test
609.1551780700684,0,2,3,1,4,5,E-,1,1,3,0,1000,250.0,1,c16tc,465,test
640.9659385681152,0,2,3,1,4,5,E-,1,0,0,0,1000,250.0,0,c16tc,466,test
561.168909072876,0,2,3,1,4,5,E-,1,2,1,0,1000,250.0,2,c16tc,467,test
400.9110927581787,0,2,3,1,4,5,E-,1,2,1,0,1000,250.0,2,c16tc,468,test
544.9450016021729,0,2,3,1,4,5,E-,1,5,5,0,1000,250.0,5,c16tc,469,test
401.16381645202637,0,2,3,1,4,5,E-,1,5,5,0,1000,250.0,5,c16tc,470,test
464.80298042297363,0,2,3,1,4,5,E-,1,4,4,0,1000,250.0,4,c16tc,471,test
400.68888664245605,0,2,3,1,4,5,E-,1,4,4,0,1000,250.0,4,c16tc,472,test
494.6331977844238,0,2,3,1,4,5,E-,1,5,5,0,1000,250.0,5,c16tc,473,test
577.0351886749268,0,2,3,1,4,5,E-,0,1,3,0,1000,250.0,2,c16tc,474,test
512.9921436309814,0,2,3,1,4,5,E-,1,5,5,0,1000,250.0,5,c16tc,475,test
590.6391143798828,0,2,3,1,4,5,E-,1,2,1,0,1000,250.0,2,c16tc,476,test
593.0008888244629,0,2,3,1,4,5,E-,1,5,5,0,1000,250.0,5,c16tc,477,test
417.09017753601074,0,2,3,1,4,5,E-,1,5,5,0,1000,250.0,5,c16tc,478,test
449.21016693115234,0,2,3,1,4,5,E-,1,4,4,0,1000,250.0,4,c16tc,479,test
672.6579666137695,0,2,3,1,4,5,E-,1,0,0,0,1000,250.0,0,c16tc,480,test
609.0810298919678,0,2,3,1,4,5,E-,1,1,3,0,1000,250.0,1,c16tc,481,test
544.8818206787109,0,2,3,1,4,5,E-,1,3,2,0,1000,250.0,3,c16tc,482,test
512.937068939209,0,2,3,1,4,5,E-,1,5,5,0,1000,250.0,5,c16tc,483,test
559.5419406890869,0,2,3,1,4,5,E-,1,2,1,0,1000,250.0,2,c16tc,484,test
512.840986251831,0,2,3,1,4,5,E-,1,5,5,0,1000,250.0,5,c16tc,485,test
609.0199947357178,0,2,3,1,4,5,E-,1,1,3,0,1000,250.0,1,c16tc,486,test
449.2149353027344,0,2,3,1,4,5,E-,0,3,2,0,1000,250.0,2,c16tc,487,test
641.002893447876,0,2,3,1,4,5,E-,1,4,4,0,1000,250.0,4,c16tc,488,test
400.96592903137207,0,2,3,1,4,5,E-,1,4,4,0,1000,250.0,4,c16tc,489,test
528.8259983062744,0,2,3,1,4,5,E-,0,5,5,0,1000,250.0,4,c16tc,490,test
416.4130687713623,0,2,3,1,4,5,E-,0,4,4,0,1000,250.0,5,c16tc,491,test
592.9210186004639,0,2,3,1,4,5,E-,1,1,3,0,1000,250.0,1,c16tc,492,test
657.0320129394531,0,2,3,1,4,5,E-,1,0,0,0,1000,250.0,0,c16tc,493,test
529.0989875793457,0,2,3,1,4,5,E-,1,1,3,0,1000,250.0,1,c16tc,494,test
449.1839408874512,0,2,3,1,4,5,E-,1,5,5,0,1000,250.0,5,c16tc,495,test
576.9681930541992,0,2,3,1,4,5,E-,1,2,1,0,1000,250.0,2,c16tc,496,test
641.1111354827881,0,2,3,1,4,5,E-,1,0,0,0,1000,250.0,0,c16tc,497,test
417.09089279174805,0,2,3,1,4,5,E-,1,0,0,0,1000,250.0,0,c16tc,498,test
1041.0420894622803,0,2,3,1,4,5,E-,1,1,3,0,1000,250.0,1,c16tc,499,test
