RT,SRmap_0,SRmap_1,SRmap_2,SRmap_3,SRmap_4,SRmap_5,condition,correct,correct_response,curstim,ms-precue,ms-prestimblank,ntrials,response,subject,trial,type
3372.8621006011963,2,3,4,5,0,1,H-,1,0,4,0,1000,250.0,0,d18rm,0,train
1760.9148025512695,2,3,4,5,0,1,H-,1,1,5,0,1000,250.0,1,d18rm,1,train
3584.9499702453613,2,3,4,5,0,1,H-,0,2,0,0,1000,250.0,3,d18rm,2,train
1664.9019718170166,2,3,4,5,0,1,H-,1,0,4,0,1000,250.0,0,d18rm,3,train
2097.0749855041504,2,3,4,5,0,1,H-,0,2,0,0,1000,250.0,3,d18rm,4,train
1440.9518241882324,2,3,4,5,0,1,H-,1,2,0,0,1000,250.0,2,d18rm,5,train
656.9530963897705,2,3,4,5,0,1,H-,1,2,0,0,1000,250.0,2,d18rm,6,train
704.9050331115723,2,3,4,5,0,1,H-,1,2,0,0,1000,250.0,2,d18rm,7,train
1392.930030822754,2,3,4,5,0,1,H-,1,5,3,0,1000,250.0,5,d18rm,8,train
1136.850118637085,2,3,4,5,0,1,H-,1,5,3,0,1000,250.0,5,d18rm,9,train
720.4651832580566,2,3,4,5,0,1,H-,1,5,3,0,1000,250.0,5,d18rm,10,train
656.4218997955322,2,3,4,5,0,1,H-,1,5,3,0,1000,250.0,5,d18rm,11,train
1872.3461627960205,2,3,4,5,0,1,H-,1,1,5,0,1000,250.0,1,d18rm,12,train
768.416166305542,2,3,4,5,0,1,H-,1,5,3,0,1000,250.0,5,d18rm,13,train
512.4561786651611,2,3,4,5,0,1,H-,1,5,3,0,1000,250.0,5,d18rm,14,train
592.4310684204102,2,3,4,5,0,1,H-,1,5,3,0,1000,250.0,5,d18rm,15,train
624.3329048156738,2,3,4,5,0,1,H-,1,5,3,0,1000,250.0,5,d18rm,16,train
1296.3829040527344,2,3,4,5,0,1,H-,1,1,5,0,1000,250.0,1,d18rm,17,train
752.3808479309082,2,3,4,5,0,1,H-,1,2,0,0,1000,250.0,2,d18rm,18,train
848.3841419219971,2,3,4,5,0,1,H-,1,1,5,0,1000,250.0,1,d18rm,19,train
1648.3547687530518,2,3,4,5,0,1,H-,1,4,2,0,1000,250.0,4,d18rm,20,train
896.4660167694092,2,3,4,5,0,1,H-,1,5,3,0,1000,250.0,5,d18rm,21,train
672.3830699920654,2,3,4,5,0,1,H-,1,5,3,0,1000,250.0,5,d18rm,22,train
1024.4011878967285,2,3,4,5,0,1,H-,0,2,0,0,1000,250.0,1,d18rm,23,train
672.4808216094971,2,3,4,5,0,1,H-,1,2,0,0,1000,250.0,2,d18rm,24,train
960.4141712188721,2,3,4,5,0,1,H-,1,1,5,0,1000,250.0,1,d18rm,25,train
960.4151248931885,2,3,4,5,0,1,H-,1,0,4,0,1000,250.0,0,d18rm,26,train
832.4260711669922,2,3,4,5,0,1,H-,1,5,3,0,1000,250.0,5,d18rm,27,train
1824.4659900665283,2,3,4,5,0,1,H-,1,3,1,0,1000,250.0,3,d18rm,28,train
1280.4598808288574,2,3,4,5,0,1,H-,0,2,0,0,1000,250.0,1,d18rm,29,train
720.4439640045166,2,3,4,5,0,1,H-,1,1,5,0,1000,250.0,1,d18rm,30,train
1408.447027206421,2,3,4,5,0,1,H-,1,3,1,0,1000,250.0,3,d18rm,31,train
736.4139556884766,2,3,4,5,0,1,H-,1,3,1,0,1000,250.0,3,d18rm,32,train
1104.4871807098389,2,3,4,5,0,1,H-,1,0,4,0,1000,250.0,0,d18rm,33,train
1584.4330787658691,2,3,4,5,0,1,H-,1,3,1,0,1000,250.0,3,d18rm,34,train
848.5150337219238,2,3,4,5,0,1,H-,1,5,3,0,1000,250.0,5,d18rm,35,train
1088.4079933166504,2,3,4,5,0,1,H-,1,1,5,0,1000,250.0,1,d18rm,36,train
1632.4341297149658,2,3,4,5,0,1,H-,1,4,2,0,1000,250.0,4,d18rm,37,train
736.1478805541992,2,3,4,5,0,1,H-,1,5,3,0,1000,250.0,5,d18rm,38,train
1136.4760398864746,2,3,4,5,0,1,H-,1,0,4,0,1000,250.0,0,d18rm,39,train
1216.9218063354492,2,3,4,5,0,1,H-,1,3,1,0,1000,250.0,3,d18rm,40,train
448.5349655151367,2,3,4,5,0,1,H-,1,3,1,0,1000,250.0,3,d18rm,41,train
640.4819488525391,2,3,4,5,0,1,H-,1,3,1,0,1000,250.0,3,d18rm,42,train
880.3668022155762,2,3,4,5,0,1,H-,1,0,4,0,1000,250.0,0,d18rm,43,train
544.356107711792,2,3,4,5,0,1,H-,1,0,4,0,1000,250.0,0,d18rm,44,train
752.4089813232422,2,3,4,5,0,1,H-,1,0,4,0,1000,250.0,0,d18rm,45,train
544.435977935791,2,3,4,5,0,1,H-,1,1,5,0,1000,250.0,1,d18rm,46,train
688.4510517120361,2,3,4,5,0,1,H-,1,3,1,0,1000,250.0,3,d18rm,47,train
736.443042755127,2,3,4,5,0,1,H-,1,5,3,0,1000,250.0,5,d18rm,48,train
1232.2840690612793,2,3,4,5,0,1,H-,1,2,0,0,1000,250.0,2,d18rm,49,train
880.4371356964111,2,3,4,5,0,1,H-,1,3,1,0,1000,250.0,3,d18rm,50,train
1152.3168087005615,2,3,4,5,0,1,H-,1,4,2,0,1000,250.0,4,d18rm,51,train
528.311014175415,2,3,4,5,0,1,H-,1,4,2,0,1000,250.0,4,d18rm,52,train
1696.4168548583984,2,3,4,5,0,1,H-,1,5,3,0,1000,250.0,5,d18rm,53,train
1024.487018585205,2,3,4,5,0,1,H-,1,1,5,0,1000,250.0,1,d18rm,54,train
912.4879837036133,2,3,4,5,0,1,H-,1,0,4,0,1000,250.0,0,d18rm,55,train
1040.4679775238037,2,3,4,5,0,1,H-,1,1,5,0,1000,250.0,1,d18rm,56,train
560.3311061859131,2,3,4,5,0,1,H-,1,1,5,0,1000,250.0,1,d18rm,57,train
880.3651332855225,2,3,4,5,0,1,H-,1,0,4,0,1000,250.0,0,d18rm,58,train
1008.8450908660889,2,3,4,5,0,1,H-,1,3,1,0,1000,250.0,3,d18rm,59,train
912.3978614807129,2,3,4,5,0,1,H-,1,0,4,0,1000,250.0,0,d18rm,60,train
1376.4312267303467,2,3,4,5,0,1,H-,0,4,2,0,1000,250.0,5,d18rm,61,train
2112.3640537261963,2,3,4,5,0,1,H-,1,2,0,0,1000,250.0,2,d18rm,62,train
1456.4039707183838,2,3,4,5,0,1,H-,1,4,2,0,1000,250.0,4,d18rm,63,train
1168.4989929199219,2,3,4,5,0,1,H-,1,2,0,0,1000,250.0,2,d18rm,64,train
656.4130783081055,2,3,4,5,0,1,H-,1,1,5,0,1000,250.0,1,d18rm,65,train
784.4531536102295,2,3,4,5,0,1,H-,1,0,4,0,1000,250.0,0,d18rm,66,train
1008.8050365447998,2,3,4,5,0,1,H-,1,2,0,0,1000,250.0,2,d18rm,67,train
1376.465082168579,2,3,4,5,0,1,H-,1,5,3,0,1000,250.0,5,d18rm,68,train
592.4420356750488,2,3,4,5,0,1,H-,1,5,3,0,1000,250.0,5,d18rm,69,train
768.4261798858643,2,3,4,5,0,1,H-,1,5,3,0,1000,250.0,5,d18rm,70,train
1328.428030014038,2,3,4,5,0,1,H-,1,2,0,0,1000,250.0,2,d18rm,71,train
817.0008659362793,2,3,4,5,0,1,H-,1,3,1,0,1000,250.0,3,d18rm,72,train
768.9788341522217,2,3,4,5,0,1,H-,1,0,4,0,1000,250.0,0,d18rm,73,train
1264.9519443511963,2,3,4,5,0,1,H-,0,4,2,0,1000,250.0,5,d18rm,74,train
800.9369373321533,2,3,4,5,0,1,H-,1,3,1,0,1000,250.0,3,d18rm,75,train
1280.8990478515625,2,3,4,5,0,1,H-,1,2,0,0,1000,250.0,2,d18rm,76,train
1137.002944946289,2,3,4,5,0,1,H-,1,1,5,0,1000,250.0,1,d18rm,77,train
1040.9998893737793,2,3,4,5,0,1,H-,1,1,5,0,1000,250.0,1,d18rm,78,train
1393.0010795593262,2,3,4,5,0,1,H-,1,4,2,0,1000,250.0,4,d18rm,79,train
513.0178928375244,2,3,4,5,0,1,H-,1,4,2,0,1000,250.0,4,d18rm,80,train
752.9599666595459,2,3,4,5,0,1,H-,1,2,0,0,1000,250.0,2,d18rm,81,train
832.5910568237305,2,3,4,5,0,1,H-,1,5,3,0,1000,250.0,5,d18rm,82,train
848.477840423584,2,3,4,5,0,1,H-,1,1,5,0,1000,250.0,1,d18rm,83,train
768.4330940246582,2,3,4,5,0,1,H-,1,2,0,0,1000,250.0,2,d18rm,84,train
928.4789562225342,2,3,4,5,0,1,H-,0,4,2,0,1000,250.0,5,d18rm,85,train
1136.9857788085938,2,3,4,5,0,1,H-,1,2,0,0,1000,250.0,2,d18rm,86,train
992.5510883331299,2,3,4,5,0,1,H-,1,5,3,0,1000,250.0,5,d18rm,87,train
817.0309066772461,2,3,4,5,0,1,H-,1,0,4,0,1000,250.0,0,d18rm,88,train
704.9529552459717,2,3,4,5,0,1,H-,1,0,4,0,1000,250.0,0,d18rm,89,train
528.8288593292236,2,3,4,5,0,1,H-,1,0,4,0,1000,250.0,0,d18rm,90,train
528.980016708374,2,3,4,5,0,1,H-,1,0,4,0,1000,250.0,0,d18rm,91,train
945.0469017028809,2,3,4,5,0,1,H-,1,1,5,0,1000,250.0,1,d18rm,92,train
528.4159183502197,2,3,4,5,0,1,H-,1,1,5,0,1000,250.0,1,d18rm,93,train
944.4570541381836,2,3,4,5,0,1,H-,1,5,3,0,1000,250.0,5,d18rm,94,train
768.4929370880127,2,3,4,5,0,1,H-,1,2,0,0,1000,250.0,2,d18rm,95,train
816.4448738098145,2,3,4,5,0,1,H-,1,1,5,0,1000,250.0,1,d18rm,96,train
672.4739074707031,2,3,4,5,0,1,H-,1,0,4,0,1000,250.0,0,d18rm,97,train
752.6068687438965,2,3,4,5,0,1,H-,1,4,2,0,1000,250.0,4,d18rm,98,train
576.4350891113281,2,3,4,5,0,1,H-,1,4,2,0,1000,250.0,4,d18rm,99,train
688.1790161132812,2,3,4,5,0,1,H-,1,2,0,0,1000,250.0,2,d18rm,100,train
976.4771461486816,2,3,4,5,0,1,H-,1,3,1,0,1000,250.0,3,d18rm,101,train
912.4841690063477,2,3,4,5,0,1,H-,1,1,5,0,1000,250.0,1,d18rm,102,train
1296.3910102844238,2,3,4,5,0,1,H-,1,4,2,0,1000,250.0,4,d18rm,103,train
1120.5310821533203,2,3,4,5,0,1,H-,1,5,3,0,1000,250.0,5,d18rm,104,train
1216.3209915161133,2,3,4,5,0,1,H-,1,2,0,0,1000,250.0,2,d18rm,105,train
624.3560314178467,2,3,4,5,0,1,H-,1,2,0,0,1000,250.0,2,d18rm,106,train
768.3811187744141,2,3,4,5,0,1,H-,1,5,3,0,1000,250.0,5,d18rm,107,train
592.4520492553711,2,3,4,5,0,1,H-,1,5,3,0,1000,250.0,5,d18rm,108,train
640.2750015258789,2,3,4,5,0,1,H-,1,4,2,0,1000,250.0,4,d18rm,109,train
768.3839797973633,2,3,4,5,0,1,H-,1,0,4,0,1000,250.0,0,d18rm,110,train
800.4529476165771,2,3,4,5,0,1,H-,1,5,3,0,1000,250.0,5,d18rm,111,train
928.4889698028564,2,3,4,5,0,1,H-,1,0,4,0,1000,250.0,0,d18rm,112,train
1088.3889198303223,2,3,4,5,0,1,H-,1,5,3,0,1000,250.0,5,d18rm,113,train
1888.7920379638672,2,3,4,5,0,1,H-,1,3,1,0,1000,250.0,3,d18rm,114,train
656.4719676971436,2,3,4,5,0,1,H-,1,5,3,0,1000,250.0,5,d18rm,115,train
800.4240989685059,2,3,4,5,0,1,H-,1,4,2,0,1000,250.0,4,d18rm,116,train
576.4281749725342,2,3,4,5,0,1,H-,1,5,3,0,1000,250.0,5,d18rm,117,train
736.320972442627,2,3,4,5,0,1,H-,0,1,5,0,1000,250.0,0,d18rm,118,train
752.8069019317627,2,3,4,5,0,1,H-,1,0,4,0,1000,250.0,0,d18rm,119,train
1040.113925933838,2,3,4,5,0,1,H-,1,3,1,0,1000,250.0,3,d18rm,120,train
1040.4579639434814,2,3,4,5,0,1,H-,1,2,0,0,1000,250.0,2,d18rm,121,train
768.4569358825684,2,3,4,5,0,1,H-,1,0,4,0,1000,250.0,0,d18rm,122,train
976.4080047607422,2,3,4,5,0,1,H-,1,5,3,0,1000,250.0,5,d18rm,123,train
704.4360637664795,2,3,4,5,0,1,H-,1,0,4,0,1000,250.0,0,d18rm,124,train
1072.4239349365234,2,3,4,5,0,1,H-,1,1,5,0,1000,250.0,1,d18rm,125,train
784.4769954681396,2,3,4,5,0,1,H-,1,0,4,0,1000,250.0,0,d18rm,126,train
960.500955581665,2,3,4,5,0,1,H-,1,2,0,0,1000,250.0,2,d18rm,127,train
1104.809045791626,2,3,4,5,0,1,H-,1,4,2,0,1000,250.0,4,d18rm,128,train
1040.4648780822754,2,3,4,5,0,1,H-,1,2,0,0,1000,250.0,2,d18rm,129,train
832.482099533081,2,3,4,5,0,1,H-,1,5,3,0,1000,250.0,5,d18rm,130,train
656.4719676971436,2,3,4,5,0,1,H-,1,5,3,0,1000,250.0,5,d18rm,131,train
736.4859580993652,2,3,4,5,0,1,H-,1,0,4,0,1000,250.0,0,d18rm,132,train
624.4421005249023,2,3,4,5,0,1,H-,1,0,4,0,1000,250.0,0,d18rm,133,train
1120.4710006713867,2,3,4,5,0,1,H-,1,5,3,0,1000,250.0,5,d18rm,134,train
1088.5460376739502,2,3,4,5,0,1,H-,1,2,0,0,1000,250.0,2,d18rm,135,train
688.385009765625,2,3,4,5,0,1,H-,1,5,3,0,1000,250.0,5,d18rm,136,train
849.2629528045654,2,3,4,5,0,1,H-,1,2,0,0,1000,250.0,2,d18rm,137,train
640.4409408569336,2,3,4,5,0,1,H-,1,0,4,0,1000,250.0,0,d18rm,138,train
768.4528827667236,2,3,4,5,0,1,H-,0,3,1,0,1000,250.0,4,d18rm,139,train
1424.2420196533203,2,3,4,5,0,1,H-,1,4,2,0,1000,250.0,4,d18rm,140,train
752.9289722442627,2,3,4,5,0,1,H-,1,0,4,0,1000,250.0,0,d18rm,141,train
1328.916072845459,2,3,4,5,0,1,H-,1,4,2,0,1000,250.0,4,d18rm,142,train
2113.020896911621,2,3,4,5,0,1,H-,1,2,0,0,1000,250.0,2,d18rm,143,train
1440.950870513916,2,3,4,5,0,1,H-,1,0,4,0,1000,250.0,0,d18rm,144,train
833.0099582672119,2,3,4,5,0,1,H-,1,1,5,0,1000,250.0,1,d18rm,145,train
865.0119304656982,2,3,4,5,0,1,H-,1,3,1,0,1000,250.0,3,d18rm,146,train
769.0739631652832,2,3,4,5,0,1,H-,1,0,4,0,1000,250.0,0,d18rm,147,train
928.9278984069824,2,3,4,5,0,1,H-,1,4,2,0,1000,250.0,4,d18rm,148,train
1888.3049488067627,2,3,4,5,0,1,H-,1,3,1,0,1000,250.0,3,d18rm,149,train
704.6689987182617,2,3,4,5,0,1,H-,1,0,4,0,1000,250.0,0,d18rm,150,train
705.0528526306152,2,3,4,5,0,1,H-,1,0,4,0,1000,250.0,0,d18rm,151,train
736.9511127471924,2,3,4,5,0,1,H-,1,0,4,0,1000,250.0,0,d18rm,152,train
672.9860305786133,2,3,4,5,0,1,H-,1,0,4,0,1000,250.0,0,d18rm,153,train
977.0009517669678,2,3,4,5,0,1,H-,1,3,1,0,1000,250.0,3,d18rm,154,train
1137.0089054107666,2,3,4,5,0,1,H-,1,0,4,0,1000,250.0,0,d18rm,155,train
896.9860076904297,2,3,4,5,0,1,H-,1,1,5,0,1000,250.0,1,d18rm,156,train
560.9819889068604,2,3,4,5,0,1,H-,1,1,5,0,1000,250.0,1,d18rm,157,train
752.9749870300293,2,3,4,5,0,1,H-,1,5,3,0,1000,250.0,5,d18rm,158,train
609.0559959411621,2,3,4,5,0,1,H-,1,1,5,0,1000,250.0,1,d18rm,159,train
544.888973236084,2,3,4,5,0,1,H-,1,1,5,0,1000,250.0,1,d18rm,160,train
448.8399028778076,2,3,4,5,0,1,H-,1,1,5,0,1000,250.0,1,d18rm,161,train
801.0280132293701,2,3,4,5,0,1,H-,1,3,1,0,1000,250.0,3,d18rm,162,train
544.8451042175293,2,3,4,5,0,1,H-,1,1,5,0,1000,250.0,1,d18rm,163,train
880.9711933135986,2,3,4,5,0,1,H-,1,2,0,0,1000,250.0,2,d18rm,164,train
576.9619941711426,2,3,4,5,0,1,H-,1,0,4,0,1000,250.0,0,d18rm,165,train
896.9650268554688,2,3,4,5,0,1,H-,1,3,1,0,1000,250.0,3,d18rm,166,train
800.9679317474365,2,3,4,5,0,1,H-,1,2,0,0,1000,250.0,2,d18rm,167,train
1089.0488624572754,2,3,4,5,0,1,H-,1,5,3,0,1000,250.0,5,d18rm,168,train
848.9549160003662,2,3,4,5,0,1,H-,1,2,0,0,1000,250.0,2,d18rm,169,train
689.0029907226562,2,3,4,5,0,1,H-,1,0,4,0,1000,250.0,0,d18rm,170,train
880.9530735015869,2,3,4,5,0,1,H-,1,1,5,0,1000,250.0,1,d18rm,171,train
1248.9240169525146,2,3,4,5,0,1,H-,0,4,2,0,1000,250.0,5,d18rm,172,train
657.0000648498535,2,3,4,5,0,1,H-,1,3,1,0,1000,250.0,3,d18rm,173,train
672.9929447174072,2,3,4,5,0,1,H-,1,5,3,0,1000,250.0,5,d18rm,174,train
1104.943037033081,2,3,4,5,0,1,H-,1,4,2,0,1000,250.0,4,d18rm,175,train
1488.9750480651855,2,3,4,5,0,1,H-,1,5,3,0,1000,250.0,5,d18rm,176,train
1552.992820739746,2,3,4,5,0,1,H-,1,2,0,0,1000,250.0,2,d18rm,177,train
608.96897315979,2,3,4,5,0,1,H-,1,0,4,0,1000,250.0,0,d18rm,178,train
976.8719673156738,2,3,4,5,0,1,H-,1,5,3,0,1000,250.0,5,d18rm,179,train
1008.8498592376709,2,3,4,5,0,1,H-,1,3,1,0,1000,250.0,3,d18rm,180,train
737.0550632476807,2,3,4,5,0,1,H-,1,0,4,0,1000,250.0,0,d18rm,181,train
976.963996887207,2,3,4,5,0,1,H-,1,4,2,0,1000,250.0,4,d18rm,182,train
512.8839015960693,2,3,4,5,0,1,H-,1,3,1,0,1000,250.0,3,d18rm,183,train
624.9749660491943,2,3,4,5,0,1,H-,1,0,4,0,1000,250.0,0,d18rm,184,train
721.031904220581,2,3,4,5,0,1,H-,0,4,2,0,1000,250.0,5,d18rm,185,train
801.0339736938477,2,3,4,5,0,1,H-,1,4,2,0,1000,250.0,4,d18rm,186,train
1313.0199909210205,2,3,4,5,0,1,H-,1,2,0,0,1000,250.0,2,d18rm,187,train
800.9960651397705,2,3,4,5,0,1,H-,1,2,0,0,1000,250.0,2,d18rm,188,train
1040.6630039215088,2,3,4,5,0,1,H-,1,3,1,0,1000,250.0,3,d18rm,189,train
751.3549327850342,2,3,4,5,0,1,H-,1,2,0,0,1000,250.0,2,d18rm,190,train
784.44504737854,2,3,4,5,0,1,H-,1,4,2,0,1000,250.0,4,d18rm,191,train
1088.474988937378,2,3,4,5,0,1,H-,1,3,1,0,1000,250.0,3,d18rm,192,train
736.4349365234375,2,3,4,5,0,1,H-,1,2,0,0,1000,250.0,2,d18rm,193,train
976.4330387115479,2,3,4,5,0,1,H-,1,3,1,0,1000,250.0,3,d18rm,194,train
1008.3920955657959,2,3,4,5,0,1,H-,1,2,0,0,1000,250.0,2,d18rm,195,train
928.3490180969238,2,3,4,5,0,1,H-,1,3,1,0,1000,250.0,3,d18rm,196,train
704.3068408966064,2,3,4,5,0,1,H-,1,5,3,0,1000,250.0,5,d18rm,197,train
816.4219856262207,2,3,4,5,0,1,H-,1,2,0,0,1000,250.0,2,d18rm,198,train
1232.3789596557617,2,3,4,5,0,1,H-,1,4,2,0,1000,250.0,4,d18rm,199,train
1232.3698997497559,2,3,4,5,0,1,H-,1,0,4,0,1000,250.0,0,d18rm,200,train
656.4500331878662,2,3,4,5,0,1,H-,1,2,0,0,1000,250.0,2,d18rm,201,train
960.4709148406982,2,3,4,5,0,1,H-,1,4,2,0,1000,250.0,4,d18rm,202,train
640.4159069061279,2,3,4,5,0,1,H-,1,5,3,0,1000,250.0,5,d18rm,203,train
688.4760856628418,2,3,4,5,0,1,H-,1,2,0,0,1000,250.0,2,d18rm,204,train
560.4228973388672,2,3,4,5,0,1,H-,1,2,0,0,1000,250.0,2,d18rm,205,train
704.3898105621338,2,3,4,5,0,1,H-,1,4,2,0,1000,250.0,4,d18rm,206,train
896.4600563049316,2,3,4,5,0,1,H-,1,1,5,0,1000,250.0,1,d18rm,207,train
896.4459896087646,2,3,4,5,0,1,H-,1,2,0,0,1000,250.0,2,d18rm,208,train
672.3930835723877,2,3,4,5,0,1,H-,1,0,4,0,1000,250.0,0,d18rm,209,train
640.4690742492676,2,3,4,5,0,1,H-,1,1,5,0,1000,250.0,1,d18rm,210,train
672.4369525909424,2,3,4,5,0,1,H-,1,4,2,0,1000,250.0,4,d18rm,211,train
752.3849010467529,2,3,4,5,0,1,H-,1,2,0,0,1000,250.0,2,d18rm,212,train
896.6109752655029,2,3,4,5,0,1,H-,1,1,5,0,1000,250.0,1,d18rm,213,train
945.0118541717529,2,3,4,5,0,1,H-,1,3,1,0,1000,250.0,3,d18rm,214,train
721.0159301757812,2,3,4,5,0,1,H-,1,4,2,0,1000,250.0,4,d18rm,215,train
720.952033996582,2,3,4,5,0,1,H-,1,0,4,0,1000,250.0,0,d18rm,216,train
720.9179401397705,2,3,4,5,0,1,H-,1,3,1,0,1000,250.0,3,d18rm,217,train
784.9669456481934,2,3,4,5,0,1,H-,1,0,4,0,1000,250.0,0,d18rm,218,train
1121.062994003296,2,3,4,5,0,1,H-,1,3,1,0,1000,250.0,3,d18rm,219,train
865.0598526000977,2,3,4,5,0,1,H-,1,2,0,0,1000,250.0,2,d18rm,220,train
704.8490047454834,2,3,4,5,0,1,H-,1,3,1,0,1000,250.0,3,d18rm,221,train
737.0560169219971,2,3,4,5,0,1,H-,1,4,2,0,1000,250.0,4,d18rm,222,train
737.0388507843018,2,3,4,5,0,1,H-,1,5,3,0,1000,250.0,5,d18rm,223,train
832.9188823699951,2,3,4,5,0,1,H-,0,1,5,0,1000,250.0,2,d18rm,224,train
944.4618225097656,2,3,4,5,0,1,H-,1,3,1,0,1000,250.0,3,d18rm,225,train
592.4410820007324,2,3,4,5,0,1,H-,0,4,2,0,1000,250.0,5,d18rm,226,train
768.5589790344238,2,3,4,5,0,1,H-,1,0,4,0,1000,250.0,0,d18rm,227,train
720.4470634460449,2,3,4,5,0,1,H-,1,2,0,0,1000,250.0,2,d18rm,228,train
672.7828979492188,2,3,4,5,0,1,H-,1,2,0,0,1000,250.0,2,d18rm,229,train
816.399097442627,2,3,4,5,0,1,H-,1,4,2,0,1000,250.0,4,d18rm,230,train
688.4510517120361,2,3,4,5,0,1,H-,1,4,2,0,1000,250.0,4,d18rm,231,train
608.3989143371582,2,3,4,5,0,1,H-,1,4,2,0,1000,250.0,4,d18rm,232,train
688.399076461792,2,3,4,5,0,1,H-,1,2,0,0,1000,250.0,2,d18rm,233,train
639.4398212432861,2,3,4,5,0,1,H-,1,2,0,0,1000,250.0,2,d18rm,234,train
800.4560470581055,2,3,4,5,0,1,H-,1,3,1,0,1000,250.0,3,d18rm,235,train
848.4489917755127,2,3,4,5,0,1,H-,1,2,0,0,1000,250.0,2,d18rm,236,train
640.4049396514893,2,3,4,5,0,1,H-,1,0,4,0,1000,250.0,0,d18rm,237,train
528.4061431884766,2,3,4,5,0,1,H-,1,0,4,0,1000,250.0,0,d18rm,238,train
1008.4290504455566,2,3,4,5,0,1,H-,1,4,2,0,1000,250.0,4,d18rm,239,train
576.3309001922607,2,3,4,5,0,1,H-,1,3,1,0,1000,250.0,3,d18rm,240,train
784.4579219818115,2,3,4,5,0,1,H-,1,4,2,0,1000,250.0,4,d18rm,241,train
752.4209022521973,2,3,4,5,0,1,H-,1,0,4,0,1000,250.0,0,d18rm,242,train
560.4100227355957,2,3,4,5,0,1,H-,1,0,4,0,1000,250.0,0,d18rm,243,train
704.4360637664795,2,3,4,5,0,1,H-,1,2,0,0,1000,250.0,2,d18rm,244,train
848.4628200531006,2,3,4,5,0,1,H-,1,5,3,0,1000,250.0,5,d18rm,245,train
736.386775970459,2,3,4,5,0,1,H-,1,4,2,0,1000,250.0,4,d18rm,246,train
624.396800994873,2,3,4,5,0,1,H-,1,5,3,0,1000,250.0,5,d18rm,247,train
800.4240989685059,2,3,4,5,0,1,H-,1,0,4,0,1000,250.0,0,d18rm,248,train
864.4230365753174,2,3,4,5,0,1,H-,1,1,5,0,1000,250.0,1,d18rm,249,train
2224.442958831787,1,0,3,5,4,2,H-,1,1,0,0,1000,250.0,1,d18rm,250,test
1312.873125076294,1,0,3,5,4,2,H-,1,3,2,0,1000,250.0,3,d18rm,251,test
1600.7390022277832,1,0,3,5,4,2,H-,1,1,0,0,1000,250.0,1,d18rm,252,test
1152.9622077941895,1,0,3,5,4,2,H-,1,3,2,0,1000,250.0,3,d18rm,253,test
1424.9179363250732,1,0,3,5,4,2,H-,1,0,1,0,1000,250.0,0,d18rm,254,test
928.9660453796387,1,0,3,5,4,2,H-,1,1,0,0,1000,250.0,1,d18rm,255,test
912.9128456115723,1,0,3,5,4,2,H-,1,3,2,0,1000,250.0,3,d18rm,256,test
1168.4880256652832,1,0,3,5,4,2,H-,1,1,0,0,1000,250.0,1,d18rm,257,test
1184.3559741973877,1,0,3,5,4,2,H-,1,3,2,0,1000,250.0,3,d18rm,258,test
1552.3347854614258,1,0,3,5,4,2,H-,1,4,4,0,1000,250.0,4,d18rm,259,test
1120.4710006713867,1,0,3,5,4,2,H-,1,3,2,0,1000,250.0,3,d18rm,260,test
624.4149208068848,1,0,3,5,4,2,H-,1,3,2,0,1000,250.0,3,d18rm,261,test
704.3969631195068,1,0,3,5,4,2,H-,1,5,3,0,1000,250.0,5,d18rm,262,test
992.405891418457,1,0,3,5,4,2,H-,1,4,4,0,1000,250.0,4,d18rm,263,test
1136.4569664001465,1,0,3,5,4,2,H-,1,3,2,0,1000,250.0,3,d18rm,264,test
1040.4858589172363,1,0,3,5,4,2,H-,1,1,0,0,1000,250.0,1,d18rm,265,test
1088.4368419647217,1,0,3,5,4,2,H-,1,3,2,0,1000,250.0,3,d18rm,266,test
944.4949626922607,1,0,3,5,4,2,H-,1,2,5,0,1000,250.0,2,d18rm,267,test
1024.3849754333496,1,0,3,5,4,2,H-,1,5,3,0,1000,250.0,5,d18rm,268,test
1264.4689083099365,1,0,3,5,4,2,H-,1,1,0,0,1000,250.0,1,d18rm,269,test
784.2249870300293,1,0,3,5,4,2,H-,1,2,5,0,1000,250.0,2,d18rm,270,test
1184.6940517425537,1,0,3,5,4,2,H-,1,4,4,0,1000,250.0,4,d18rm,271,test
992.4430847167969,1,0,3,5,4,2,H-,1,2,5,0,1000,250.0,2,d18rm,272,test
992.4399852752686,1,0,3,5,4,2,H-,1,3,2,0,1000,250.0,3,d18rm,273,test
1712.9781246185303,1,0,3,5,4,2,H-,1,1,0,0,1000,250.0,1,d18rm,274,test
688.4429454803467,1,0,3,5,4,2,H-,1,1,0,0,1000,250.0,1,d18rm,275,test
880.4078102111816,1,0,3,5,4,2,H-,1,0,1,0,1000,250.0,0,d18rm,276,test
1264.343023300171,1,0,3,5,4,2,H-,1,4,4,0,1000,250.0,4,d18rm,277,test
720.4329967498779,1,0,3,5,4,2,H-,1,5,3,0,1000,250.0,5,d18rm,278,test
1088.5059833526611,1,0,3,5,4,2,H-,1,4,4,0,1000,250.0,4,d18rm,279,test
976.2399196624756,1,0,3,5,4,2,H-,1,5,3,0,1000,250.0,5,d18rm,280,test
1152.4200439453125,1,0,3,5,4,2,H-,1,3,2,0,1000,250.0,3,d18rm,281,test
1072.36909866333,1,0,3,5,4,2,H-,1,2,5,0,1000,250.0,2,d18rm,282,test
1120.3858852386475,1,0,3,5,4,2,H-,1,0,1,0,1000,250.0,0,d18rm,283,test
928.4608364105225,1,0,3,5,4,2,H-,1,3,2,0,1000,250.0,3,d18rm,284,test
768.4009075164795,1,0,3,5,4,2,H-,1,3,2,0,1000,250.0,3,d18rm,285,test
672.4131107330322,1,0,3,5,4,2,H-,1,0,1,0,1000,250.0,0,d18rm,286,test
688.356876373291,1,0,3,5,4,2,H-,1,5,3,0,1000,250.0,5,d18rm,287,test
976.4509201049805,1,0,3,5,4,2,H-,1,3,2,0,1000,250.0,3,d18rm,288,test
721.045970916748,1,0,3,5,4,2,H-,1,3,2,0,1000,250.0,3,d18rm,289,test
1088.4408950805664,1,0,3,5,4,2,H-,1,2,5,0,1000,250.0,2,d18rm,290,test
1184.3860149383545,1,0,3,5,4,2,H-,1,5,3,0,1000,250.0,5,d18rm,291,test
1232.3760986328125,1,0,3,5,4,2,H-,1,4,4,0,1000,250.0,4,d18rm,292,test
1120.9280490875244,1,0,3,5,4,2,H-,1,1,0,0,1000,250.0,1,d18rm,293,test
816.864013671875,1,0,3,5,4,2,H-,1,3,2,0,1000,250.0,3,d18rm,294,test
769.0441608428955,1,0,3,5,4,2,H-,1,0,1,0,1000,250.0,0,d18rm,295,test
800.9159564971924,1,0,3,5,4,2,H-,1,4,4,0,1000,250.0,4,d18rm,296,test
720.9341526031494,1,0,3,5,4,2,H-,1,3,2,0,1000,250.0,3,d18rm,297,test
2000.9980201721191,1,0,3,5,4,2,H-,1,4,4,0,1000,250.0,4,d18rm,298,test
1089.0069007873535,1,0,3,5,4,2,H-,1,0,1,0,1000,250.0,0,d18rm,299,test
608.9909076690674,1,0,3,5,4,2,H-,1,5,3,0,1000,250.0,5,d18rm,300,test
625.0162124633789,1,0,3,5,4,2,H-,1,5,3,0,1000,250.0,5,d18rm,301,test
672.9419231414795,1,0,3,5,4,2,H-,1,3,2,0,1000,250.0,3,d18rm,302,test
801.0449409484863,1,0,3,5,4,2,H-,1,0,1,0,1000,250.0,0,d18rm,303,test
688.9989376068115,1,0,3,5,4,2,H-,0,4,4,0,1000,250.0,3,d18rm,304,test
689.0830993652344,1,0,3,5,4,2,H-,1,5,3,0,1000,250.0,5,d18rm,305,test
1184.748888015747,1,0,3,5,4,2,H-,1,0,1,0,1000,250.0,0,d18rm,306,test
1057.0919513702393,1,0,3,5,4,2,H-,1,0,1,0,1000,250.0,0,d18rm,307,test
880.7668685913086,1,0,3,5,4,2,H-,1,2,5,0,1000,250.0,2,d18rm,308,test
1153.0330181121826,1,0,3,5,4,2,H-,1,4,4,0,1000,250.0,4,d18rm,309,test
1024.9660015106201,1,0,3,5,4,2,H-,1,1,0,0,1000,250.0,1,d18rm,310,test
753.0179023742676,1,0,3,5,4,2,H-,1,0,1,0,1000,250.0,0,d18rm,311,test
1376.9750595092773,1,0,3,5,4,2,H-,1,4,4,0,1000,250.0,4,d18rm,312,test
881.072998046875,1,0,3,5,4,2,H-,1,0,1,0,1000,250.0,0,d18rm,313,test
1072.9999542236328,1,0,3,5,4,2,H-,1,1,0,0,1000,250.0,1,d18rm,314,test
993.0598735809326,1,0,3,5,4,2,H-,1,3,2,0,1000,250.0,3,d18rm,315,test
1184.4091415405273,1,0,3,5,4,2,H-,1,1,0,0,1000,250.0,1,d18rm,316,test
688.3759498596191,1,0,3,5,4,2,H-,1,5,3,0,1000,250.0,5,d18rm,317,test
576.3928890228271,1,0,3,5,4,2,H-,1,5,3,0,1000,250.0,5,d18rm,318,test
1040.4398441314697,1,0,3,5,4,2,H-,1,2,5,0,1000,250.0,2,d18rm,319,test
608.4110736846924,1,0,3,5,4,2,H-,0,5,3,0,1000,250.0,2,d18rm,320,test
800.421953201294,1,0,3,5,4,2,H-,1,0,1,0,1000,250.0,0,d18rm,321,test
752.626895904541,1,0,3,5,4,2,H-,0,3,2,0,1000,250.0,4,d18rm,322,test
1088.4628295898438,1,0,3,5,4,2,H-,1,1,0,0,1000,250.0,1,d18rm,323,test
688.4689331054688,1,0,3,5,4,2,H-,1,5,3,0,1000,250.0,5,d18rm,324,test
912.3649597167969,1,0,3,5,4,2,H-,1,1,0,0,1000,250.0,1,d18rm,325,test
688.4591579437256,1,0,3,5,4,2,H-,1,5,3,0,1000,250.0,5,d18rm,326,test
816.3659572601318,1,0,3,5,4,2,H-,1,1,0,0,1000,250.0,1,d18rm,327,test
1216.3200378417969,1,0,3,5,4,2,H-,1,0,1,0,1000,250.0,0,d18rm,328,test
736.3989353179932,1,0,3,5,4,2,H-,1,5,3,0,1000,250.0,5,d18rm,329,test
704.3800354003906,1,0,3,5,4,2,H-,1,0,1,0,1000,250.0,0,d18rm,330,test
976.5629768371582,1,0,3,5,4,2,H-,1,1,0,0,1000,250.0,1,d18rm,331,test
1248.3389377593994,1,0,3,5,4,2,H-,1,4,4,0,1000,250.0,4,d18rm,332,test
993.0400848388672,1,0,3,5,4,2,H-,1,1,0,0,1000,250.0,1,d18rm,333,test
736.8957996368408,1,0,3,5,4,2,H-,1,2,5,0,1000,250.0,2,d18rm,334,test
785.0100994110107,1,0,3,5,4,2,H-,0,4,4,0,1000,250.0,0,d18rm,335,test
769.0219879150391,1,0,3,5,4,2,H-,1,0,1,0,1000,250.0,0,d18rm,336,test
577.0430564880371,1,0,3,5,4,2,H-,1,0,1,0,1000,250.0,0,d18rm,337,test
945.0259208679199,1,0,3,5,4,2,H-,1,4,4,0,1000,250.0,4,d18rm,338,test
801.0427951812744,1,0,3,5,4,2,H-,1,1,0,0,1000,250.0,1,d18rm,339,test
880.000114440918,1,0,3,5,4,2,H-,1,4,4,0,1000,250.0,4,d18rm,340,test
944.9679851531982,1,0,3,5,4,2,H-,1,2,5,0,1000,250.0,2,d18rm,341,test
673.0649471282959,1,0,3,5,4,2,H-,1,5,3,0,1000,250.0,5,d18rm,342,test
784.9490642547607,1,0,3,5,4,2,H-,1,1,0,0,1000,250.0,1,d18rm,343,test
721.2400436401367,1,0,3,5,4,2,H-,1,5,3,0,1000,250.0,5,d18rm,344,test
848.9558696746826,1,0,3,5,4,2,H-,1,3,2,0,1000,250.0,3,d18rm,345,test
657.0529937744141,1,0,3,5,4,2,H-,1,0,1,0,1000,250.0,0,d18rm,346,test
704.962968826294,1,0,3,5,4,2,H-,1,5,3,0,1000,250.0,5,d18rm,347,test
1328.859806060791,1,0,3,5,4,2,H-,1,4,4,0,1000,250.0,4,d18rm,348,test
800.9829521179199,1,0,3,5,4,2,H-,1,2,5,0,1000,250.0,2,d18rm,349,test
1505.0251483917236,1,0,3,5,4,2,H-,1,0,1,0,1000,250.0,0,d18rm,350,test
944.0219402313232,1,0,3,5,4,2,H-,1,3,2,0,1000,250.0,3,d18rm,351,test
720.9889888763428,1,0,3,5,4,2,H-,1,2,5,0,1000,250.0,2,d18rm,352,test
705.0800323486328,1,0,3,5,4,2,H-,1,5,3,0,1000,250.0,5,d18rm,353,test
592.979907989502,1,0,3,5,4,2,H-,1,5,3,0,1000,250.0,5,d18rm,354,test
897.0839977264404,1,0,3,5,4,2,H-,1,1,0,0,1000,250.0,1,d18rm,355,test
1008.9352130889893,1,0,3,5,4,2,H-,1,1,0,0,1000,250.0,1,d18rm,356,test
801.0411262512207,1,0,3,5,4,2,H-,1,3,2,0,1000,250.0,3,d18rm,357,test
577.0270824432373,1,0,3,5,4,2,H-,1,3,2,0,1000,250.0,3,d18rm,358,test
1520.970106124878,1,0,3,5,4,2,H-,1,0,1,0,1000,250.0,0,d18rm,359,test
640.7179832458496,1,0,3,5,4,2,H-,0,3,2,0,1000,250.0,0,d18rm,360,test
544.9919700622559,1,0,3,5,4,2,H-,1,3,2,0,1000,250.0,3,d18rm,361,test
769.0310478210449,1,0,3,5,4,2,H-,1,1,0,0,1000,250.0,1,d18rm,362,test
1089.0228748321533,1,0,3,5,4,2,H-,1,0,1,0,1000,250.0,0,d18rm,363,test
1761.0869407653809,1,0,3,5,4,2,H-,1,4,4,0,1000,250.0,4,d18rm,364,test
944.8840618133545,1,0,3,5,4,2,H-,1,3,2,0,1000,250.0,3,d18rm,365,test
992.9530620574951,1,0,3,5,4,2,H-,1,0,1,0,1000,250.0,0,d18rm,366,test
656.9919586181641,1,0,3,5,4,2,H-,1,5,3,0,1000,250.0,5,d18rm,367,test
1360.9309196472168,1,0,3,5,4,2,H-,1,0,1,0,1000,250.0,0,d18rm,368,test
880.9969425201416,1,0,3,5,4,2,H-,1,2,5,0,1000,250.0,2,d18rm,369,test
800.9529113769531,1,0,3,5,4,2,H-,1,4,4,0,1000,250.0,4,d18rm,370,test
736.9608879089355,1,0,3,5,4,2,H-,1,3,2,0,1000,250.0,3,d18rm,371,test
673.0282306671143,1,0,3,5,4,2,H-,1,0,1,0,1000,250.0,0,d18rm,372,test
960.9479904174805,1,0,3,5,4,2,H-,1,1,0,0,1000,250.0,1,d18rm,373,test
704.9648761749268,1,0,3,5,4,2,H-,1,2,5,0,1000,250.0,2,d18rm,374,test
913.0489826202393,1,0,3,5,4,2,H-,1,5,3,0,1000,250.0,5,d18rm,375,test
592.9749011993408,1,0,3,5,4,2,H-,1,5,3,0,1000,250.0,5,d18rm,376,test
673.0251312255859,1,0,3,5,4,2,H-,1,1,0,0,1000,250.0,1,d18rm,377,test
656.5990447998047,1,0,3,5,4,2,H-,1,2,5,0,1000,250.0,2,d18rm,378,test
576.348066329956,1,0,3,5,4,2,H-,1,1,0,0,1000,250.0,1,d18rm,379,test
992.469072341919,1,0,3,5,4,2,H-,1,4,4,0,1000,250.0,4,d18rm,380,test
720.4909324645996,1,0,3,5,4,2,H-,1,2,5,0,1000,250.0,2,d18rm,381,test
624.9940395355225,1,0,3,5,4,2,H-,1,5,3,0,1000,250.0,5,d18rm,382,test
688.8349056243896,1,0,3,5,4,2,H-,1,2,5,0,1000,250.0,2,d18rm,383,test
896.4700698852539,1,0,3,5,4,2,H-,1,3,2,0,1000,250.0,3,d18rm,384,test
1264.2979621887207,1,0,3,5,4,2,H-,1,3,2,0,1000,250.0,3,d18rm,385,test
752.3930072784424,1,0,3,5,4,2,H-,0,4,4,0,1000,250.0,1,d18rm,386,test
672.6028919219971,1,0,3,5,4,2,H-,1,0,1,0,1000,250.0,0,d18rm,387,test
1457.0581912994385,1,0,3,5,4,2,H-,1,4,4,0,1000,250.0,4,d18rm,388,test
753.0279159545898,1,0,3,5,4,2,H-,1,3,2,0,1000,250.0,3,d18rm,389,test
592.9949283599854,1,0,3,5,4,2,H-,1,5,3,0,1000,250.0,5,d18rm,390,test
705.0049304962158,1,0,3,5,4,2,H-,1,3,2,0,1000,250.0,3,d18rm,391,test
736.9880676269531,1,0,3,5,4,2,H-,1,3,2,0,1000,250.0,3,d18rm,392,test
705.0487995147705,1,0,3,5,4,2,H-,1,4,4,0,1000,250.0,4,d18rm,393,test
576.9999027252197,1,0,3,5,4,2,H-,1,1,0,0,1000,250.0,1,d18rm,394,test
577.0659446716309,1,0,3,5,4,2,H-,1,2,5,0,1000,250.0,2,d18rm,395,test
609.0009212493896,1,0,3,5,4,2,H-,1,2,5,0,1000,250.0,2,d18rm,396,test
720.9980487823486,1,0,3,5,4,2,H-,1,5,3,0,1000,250.0,5,d18rm,397,test
865.0319576263428,1,0,3,5,4,2,H-,1,3,2,0,1000,250.0,3,d18rm,398,test
705.0189971923828,1,0,3,5,4,2,H-,1,0,1,0,1000,250.0,0,d18rm,399,test
833.003044128418,1,0,3,5,4,2,H-,1,1,0,0,1000,250.0,1,d18rm,400,test
688.9870166778564,1,0,3,5,4,2,H-,1,5,3,0,1000,250.0,5,d18rm,401,test
897.0749378204346,1,0,3,5,4,2,H-,1,2,5,0,1000,250.0,2,d18rm,402,test
673.0060577392578,1,0,3,5,4,2,H-,1,5,3,0,1000,250.0,5,d18rm,403,test
689.0370845794678,1,0,3,5,4,2,H-,1,0,1,0,1000,250.0,0,d18rm,404,test
544.9769496917725,1,0,3,5,4,2,H-,1,3,2,0,1000,250.0,3,d18rm,405,test
801.0439872741699,1,0,3,5,4,2,H-,1,1,0,0,1000,250.0,1,d18rm,406,test
624.9980926513672,1,0,3,5,4,2,H-,1,2,5,0,1000,250.0,2,d18rm,407,test
801.002025604248,1,0,3,5,4,2,H-,1,0,1,0,1000,250.0,0,d18rm,408,test
769.0489292144775,1,0,3,5,4,2,H-,1,4,4,0,1000,250.0,4,d18rm,409,test
529.0019512176514,1,0,3,5,4,2,H-,1,4,4,0,1000,250.0,4,d18rm,410,test
785.0840091705322,1,0,3,5,4,2,H-,1,4,4,0,1000,250.0,4,d18rm,411,test
672.9550361633301,1,0,3,5,4,2,H-,1,3,2,0,1000,250.0,3,d18rm,412,test
705.0130367279053,1,0,3,5,4,2,H-,1,4,4,0,1000,250.0,4,d18rm,413,test
849.0288257598877,1,0,3,5,4,2,H-,1,3,2,0,1000,250.0,3,d18rm,414,test
961.0660076141357,1,0,3,5,4,2,H-,1,1,0,0,1000,250.0,1,d18rm,415,test
672.9781627655029,1,0,3,5,4,2,H-,1,5,3,0,1000,250.0,5,d18rm,416,test
752.9840469360352,1,0,3,5,4,2,H-,1,1,0,0,1000,250.0,1,d18rm,417,test
640.9990787506104,1,0,3,5,4,2,H-,1,2,5,0,1000,250.0,2,d18rm,418,test
592.9980278015137,1,0,3,5,4,2,H-,1,0,1,0,1000,250.0,0,d18rm,419,test
641.0031318664551,1,0,3,5,4,2,H-,1,4,4,0,1000,250.0,4,d18rm,420,test
592.6790237426758,1,0,3,5,4,2,H-,1,5,3,0,1000,250.0,5,d18rm,421,test
689.0749931335449,1,0,3,5,4,2,H-,1,3,2,0,1000,250.0,3,d18rm,422,test
801.023006439209,1,0,3,5,4,2,H-,1,4,4,0,1000,250.0,4,d18rm,423,test
881.0939788818359,1,0,3,5,4,2,H-,1,5,3,0,1000,250.0,5,d18rm,424,test
624.9990463256836,1,0,3,5,4,2,H-,1,2,5,0,1000,250.0,2,d18rm,425,test
449.04303550720215,1,0,3,5,4,2,H-,1,1,0,0,1000,250.0,1,d18rm,426,test
544.9779033660889,1,0,3,5,4,2,H-,1,2,5,0,1000,250.0,2,d18rm,427,test
432.995080947876,1,0,3,5,4,2,H-,0,2,5,0,1000,250.0,1,d18rm,428,test
656.5570831298828,1,0,3,5,4,2,H-,1,5,3,0,1000,250.0,5,d18rm,429,test
752.4449825286865,1,0,3,5,4,2,H-,1,3,2,0,1000,250.0,3,d18rm,430,test
800.4450798034668,1,0,3,5,4,2,H-,1,1,0,0,1000,250.0,1,d18rm,431,test
464.4320011138916,1,0,3,5,4,2,H-,1,2,5,0,1000,250.0,2,d18rm,432,test
416.8999195098877,1,0,3,5,4,2,H-,1,1,0,0,1000,250.0,1,d18rm,433,test
673.011064529419,1,0,3,5,4,2,H-,1,3,2,0,1000,250.0,3,d18rm,434,test
848.9990234375,1,0,3,5,4,2,H-,1,5,3,0,1000,250.0,5,d18rm,435,test
1248.8939762115479,1,0,3,5,4,2,H-,1,2,5,0,1000,250.0,2,d18rm,436,test
544.4300174713135,1,0,3,5,4,2,H-,1,2,5,0,1000,250.0,2,d18rm,437,test
608.4330081939697,1,0,3,5,4,2,H-,1,3,2,0,1000,250.0,3,d18rm,438,test
1280.37691116333,1,0,3,5,4,2,H-,1,4,4,0,1000,250.0,4,d18rm,439,test
448.42004776000977,1,0,3,5,4,2,H-,1,4,4,0,1000,250.0,4,d18rm,440,test
672.6269721984863,1,0,3,5,4,2,H-,1,2,5,0,1000,250.0,2,d18rm,441,test
801.0849952697754,1,0,3,5,4,2,H-,1,5,3,0,1000,250.0,5,d18rm,442,test
1056.9360256195068,1,0,3,5,4,2,H-,1,4,4,0,1000,250.0,4,d18rm,443,test
656.9089889526367,1,0,3,5,4,2,H-,1,1,0,0,1000,250.0,1,d18rm,444,test
1136.8629932403564,1,0,3,5,4,2,H-,1,2,5,0,1000,250.0,2,d18rm,445,test
608.9880466461182,1,0,3,5,4,2,H-,1,2,5,0,1000,250.0,2,d18rm,446,test
545.0520515441895,1,0,3,5,4,2,H-,1,2,5,0,1000,250.0,2,d18rm,447,test
897.0208168029785,1,0,3,5,4,2,H-,1,3,2,0,1000,250.0,3,d18rm,448,test
1777.0328521728516,1,0,3,5,4,2,H-,1,2,5,0,1000,250.0,2,d18rm,449,test
656.9440364837646,1,0,3,5,4,2,H-,1,0,1,0,1000,250.0,0,d18rm,450,test
592.9651260375977,1,0,3,5,4,2,H-,1,0,1,0,1000,250.0,0,d18rm,451,test
689.0251636505127,1,0,3,5,4,2,H-,1,1,0,0,1000,250.0,1,d18rm,452,test
497.03001976013184,1,0,3,5,4,2,H-,1,1,0,0,1000,250.0,1,d18rm,453,test
992.9289817810059,1,0,3,5,4,2,H-,1,4,4,0,1000,250.0,4,d18rm,454,test
560.8959197998047,1,0,3,5,4,2,H-,1,4,4,0,1000,250.0,4,d18rm,455,test
624.9761581420898,1,0,3,5,4,2,H-,1,3,2,0,1000,250.0,3,d18rm,456,test
512.6659870147705,1,0,3,5,4,2,H-,1,3,2,0,1000,250.0,3,d18rm,457,test
753.0441284179688,1,0,3,5,4,2,H-,1,1,0,0,1000,250.0,1,d18rm,458,test
576.894998550415,1,0,3,5,4,2,H-,1,2,5,0,1000,250.0,2,d18rm,459,test
720.9479808807373,1,0,3,5,4,2,H-,1,5,3,0,1000,250.0,5,d18rm,460,test
1408.9939594268799,1,0,3,5,4,2,H-,1,4,4,0,1000,250.0,4,d18rm,461,test
721.0440635681152,1,0,3,5,4,2,H-,1,0,1,0,1000,250.0,0,d18rm,462,test
624.830961227417,1,0,3,5,4,2,H-,1,5,3,0,1000,250.0,5,d18rm,463,test
656.9390296936035,1,0,3,5,4,2,H-,1,1,0,0,1000,250.0,1,d18rm,464,test
465.00205993652344,1,0,3,5,4,2,H-,1,1,0,0,1000,250.0,1,d18rm,465,test
576.8921375274658,1,0,3,5,4,2,H-,1,0,1,0,1000,250.0,0,d18rm,466,test
641.0088539123535,1,0,3,5,4,2,H-,1,3,2,0,1000,250.0,3,d18rm,467,test
544.9960231781006,1,0,3,5,4,2,H-,1,3,2,0,1000,250.0,3,d18rm,468,test
753.040075302124,1,0,3,5,4,2,H-,1,5,3,0,1000,250.0,5,d18rm,469,test
816.8280124664307,1,0,3,5,4,2,H-,1,4,4,0,1000,250.0,4,d18rm,470,test
704.7619819641113,1,0,3,5,4,2,H-,1,5,3,0,1000,250.0,5,d18rm,471,test
1120.4490661621094,1,0,3,5,4,2,H-,0,2,5,0,1000,250.0,1,d18rm,472,test
608.4120273590088,1,0,3,5,4,2,H-,1,1,0,0,1000,250.0,1,d18rm,473,test
784.4250202178955,1,0,3,5,4,2,H-,1,4,4,0,1000,250.0,4,d18rm,474,test
832.3779106140137,1,0,3,5,4,2,H-,1,2,5,0,1000,250.0,2,d18rm,475,test
736.4470958709717,1,0,3,5,4,2,H-,1,3,2,0,1000,250.0,3,d18rm,476,test
624.3870258331299,1,0,3,5,4,2,H-,1,0,1,0,1000,250.0,0,d18rm,477,test
816.4751529693604,1,0,3,5,4,2,H-,1,4,4,0,1000,250.0,4,d18rm,478,test
656.4199924468994,1,0,3,5,4,2,H-,0,3,2,0,1000,250.0,4,d18rm,479,test
608.4249019622803,1,0,3,5,4,2,H-,1,0,1,0,1000,250.0,0,d18rm,480,test
992.5041198730469,1,0,3,5,4,2,H-,1,2,5,0,1000,250.0,2,d18rm,481,test
672.4421977996826,1,0,3,5,4,2,H-,1,5,3,0,1000,250.0,5,d18rm,482,test
992.455005645752,1,0,3,5,4,2,H-,1,3,2,0,1000,250.0,3,d18rm,483,test
640.40207862854,1,0,3,5,4,2,H-,0,4,4,0,1000,250.0,5,d18rm,484,test
624.7611045837402,1,0,3,5,4,2,H-,1,0,1,0,1000,250.0,0,d18rm,485,test
656.4240455627441,1,0,3,5,4,2,H-,1,2,5,0,1000,250.0,2,d18rm,486,test
688.3659362792969,1,0,3,5,4,2,H-,1,0,1,0,1000,250.0,0,d18rm,487,test
560.4381561279297,1,0,3,5,4,2,H-,1,0,1,0,1000,250.0,0,d18rm,488,test
496.3529109954834,1,0,3,5,4,2,H-,1,0,1,0,1000,250.0,0,d18rm,489,test
672.7368831634521,1,0,3,5,4,2,H-,1,2,5,0,1000,250.0,2,d18rm,490,test
752.7270317077637,1,0,3,5,4,2,H-,1,5,3,0,1000,250.0,5,d18rm,491,test
544.3339347839355,1,0,3,5,4,2,H-,1,3,2,0,1000,250.0,3,d18rm,492,test
481.032133102417,1,0,3,5,4,2,H-,1,3,2,0,1000,250.0,3,d18rm,493,test
704.3910026550293,1,0,3,5,4,2,H-,0,5,3,0,1000,250.0,0,d18rm,494,test
703.5348415374756,1,0,3,5,4,2,H-,1,3,2,0,1000,250.0,3,d18rm,495,test
848.4489917755127,1,0,3,5,4,2,H-,1,0,1,0,1000,250.0,0,d18rm,496,test
768.3849334716797,1,0,3,5,4,2,H-,1,1,0,0,1000,250.0,1,d18rm,497,test
688.8151168823242,1,0,3,5,4,2,H-,1,3,2,0,1000,250.0,3,d18rm,498,test
624.4649887084961,1,0,3,5,4,2,H-,1,3,2,0,1000,250.0,3,d18rm,499,test
