RT,SRmap_0,SRmap_1,SRmap_2,SRmap_3,SRmap_4,SRmap_5,condition,correct,correct_response,curstim,ms-precue,ms-prestimblank,ntrials,response,subject,trial,type
2032.3572158813477,1,4,3,0,5,2,H-,1,0,3,0,1000,250.0,0,C23SJ,0,train
1280.2329063415527,1,4,3,0,5,2,H-,1,5,4,0,1000,250.0,5,C23SJ,1,train
1216.6779041290283,1,4,3,0,5,2,H-,1,3,2,0,1000,250.0,3,C23SJ,2,train
864.5870685577393,1,4,3,0,5,2,H-,1,5,4,0,1000,250.0,5,C23SJ,3,train
1184.2210292816162,1,4,3,0,5,2,H-,1,4,1,0,1000,250.0,4,C23SJ,4,train
1166.6791439056396,1,4,3,0,5,2,H-,1,4,1,0,1000,250.0,4,C23SJ,5,train
1233.2229614257812,1,4,3,0,5,2,H-,1,3,2,0,1000,250.0,3,C23SJ,6,train
944.2710876464844,1,4,3,0,5,2,H-,1,5,4,0,1000,250.0,5,C23SJ,7,train
816.0040378570557,1,4,3,0,5,2,H-,1,3,2,0,1000,250.0,3,C23SJ,8,train
1408.4479808807373,1,4,3,0,5,2,H-,1,1,0,0,1000,250.0,1,C23SJ,9,train
1120.9990978240967,1,4,3,0,5,2,H-,1,4,1,0,1000,250.0,4,C23SJ,10,train
800.5900382995605,1,4,3,0,5,2,H-,1,2,5,0,1000,250.0,2,C23SJ,11,train
880.6149959564209,1,4,3,0,5,2,H-,1,5,4,0,1000,250.0,5,C23SJ,12,train
768.4750556945801,1,4,3,0,5,2,H-,1,2,5,0,1000,250.0,2,C23SJ,13,train
687.3269081115723,1,4,3,0,5,2,H-,1,2,5,0,1000,250.0,2,C23SJ,14,train
1296.177864074707,1,4,3,0,5,2,H-,1,1,0,0,1000,250.0,1,C23SJ,15,train
625.0731945037842,1,4,3,0,5,2,H-,1,2,5,0,1000,250.0,2,C23SJ,16,train
801.1271953582764,1,4,3,0,5,2,H-,1,3,2,0,1000,250.0,3,C23SJ,17,train
1280.1899909973145,1,4,3,0,5,2,H-,1,1,0,0,1000,250.0,1,C23SJ,18,train
976.5059947967529,1,4,3,0,5,2,H-,1,5,4,0,1000,250.0,5,C23SJ,19,train
880.3551197052002,1,4,3,0,5,2,H-,1,4,1,0,1000,250.0,4,C23SJ,20,train
720.2107906341553,1,4,3,0,5,2,H-,1,1,0,0,1000,250.0,1,C23SJ,21,train
686.6259574890137,1,4,3,0,5,2,H-,1,1,0,0,1000,250.0,1,C23SJ,22,train
608.381986618042,1,4,3,0,5,2,H-,1,3,2,0,1000,250.0,3,C23SJ,23,train
753.061056137085,1,4,3,0,5,2,H-,1,1,0,0,1000,250.0,1,C23SJ,24,train
512.415885925293,1,4,3,0,5,2,H-,1,3,2,0,1000,250.0,3,C23SJ,25,train
801.1200428009033,1,4,3,0,5,2,H-,1,5,4,0,1000,250.0,5,C23SJ,26,train
558.5191249847412,1,4,3,0,5,2,H-,0,2,5,0,1000,250.0,1,C23SJ,27,train
1008.4929466247559,1,4,3,0,5,2,H-,1,1,0,0,1000,250.0,1,C23SJ,28,train
928.3950328826904,1,4,3,0,5,2,H-,1,0,3,0,1000,250.0,0,C23SJ,29,train
1008.4559917449951,1,4,3,0,5,2,H-,1,4,1,0,1000,250.0,4,C23SJ,30,train
846.2939262390137,1,4,3,0,5,2,H-,1,1,0,0,1000,250.0,1,C23SJ,31,train
880.3098201751709,1,4,3,0,5,2,H-,1,4,1,0,1000,250.0,4,C23SJ,32,train
975.5599498748779,1,4,3,0,5,2,H-,1,4,1,0,1000,250.0,4,C23SJ,33,train
832.542896270752,1,4,3,0,5,2,H-,1,1,0,0,1000,250.0,1,C23SJ,34,train
880.7289600372314,1,4,3,0,5,2,H-,1,5,4,0,1000,250.0,5,C23SJ,35,train
1073.179006576538,1,4,3,0,5,2,H-,1,1,0,0,1000,250.0,1,C23SJ,36,train
576.8299102783203,1,4,3,0,5,2,H-,1,1,0,0,1000,250.0,1,C23SJ,37,train
592.371940612793,1,4,3,0,5,2,H-,1,3,2,0,1000,250.0,3,C23SJ,38,train
832.4270248413086,1,4,3,0,5,2,H-,1,0,3,0,1000,250.0,0,C23SJ,39,train
1104.2699813842773,1,4,3,0,5,2,H-,1,5,4,0,1000,250.0,5,C23SJ,40,train
592.3879146575928,1,4,3,0,5,2,H-,1,4,1,0,1000,250.0,4,C23SJ,41,train
800.6389141082764,1,4,3,0,5,2,H-,1,4,1,0,1000,250.0,4,C23SJ,42,train
528.1388759613037,1,4,3,0,5,2,H-,1,3,2,0,1000,250.0,3,C23SJ,43,train
640.4290199279785,1,4,3,0,5,2,H-,1,2,5,0,1000,250.0,2,C23SJ,44,train
720.4198837280273,1,4,3,0,5,2,H-,1,5,4,0,1000,250.0,5,C23SJ,45,train
720.4380035400391,1,4,3,0,5,2,H-,1,3,2,0,1000,250.0,3,C23SJ,46,train
576.2629508972168,1,4,3,0,5,2,H-,1,2,5,0,1000,250.0,2,C23SJ,47,train
704.639196395874,1,4,3,0,5,2,H-,1,0,3,0,1000,250.0,0,C23SJ,48,train
573.6629962921143,1,4,3,0,5,2,H-,1,2,5,0,1000,250.0,2,C23SJ,49,train
783.527135848999,1,4,3,0,5,2,H-,1,1,0,0,1000,250.0,1,C23SJ,50,train
769.0019607543945,1,4,3,0,5,2,H-,1,0,3,0,1000,250.0,0,C23SJ,51,train
721.1441993713379,1,4,3,0,5,2,H-,1,1,0,0,1000,250.0,1,C23SJ,52,train
592.6198959350586,1,4,3,0,5,2,H-,1,3,2,0,1000,250.0,3,C23SJ,53,train
560.5950355529785,1,4,3,0,5,2,H-,1,3,2,0,1000,250.0,3,C23SJ,54,train
529.8418998718262,1,4,3,0,5,2,H-,1,2,5,0,1000,250.0,2,C23SJ,55,train
608.496904373169,1,4,3,0,5,2,H-,1,0,3,0,1000,250.0,0,C23SJ,56,train
817.0089721679688,1,4,3,0,5,2,H-,1,0,3,0,1000,250.0,0,C23SJ,57,train
544.5971488952637,1,4,3,0,5,2,H-,1,5,4,0,1000,250.0,5,C23SJ,58,train
704.2961120605469,1,4,3,0,5,2,H-,1,1,0,0,1000,250.0,1,C23SJ,59,train
576.4360427856445,1,4,3,0,5,2,H-,1,1,0,0,1000,250.0,1,C23SJ,60,train
512.85719871521,1,4,3,0,5,2,H-,1,3,2,0,1000,250.0,3,C23SJ,61,train
929.42214012146,1,4,3,0,5,2,H-,1,1,0,0,1000,250.0,1,C23SJ,62,train
561.0511302947998,1,4,3,0,5,2,H-,1,2,5,0,1000,250.0,2,C23SJ,63,train
353.00302505493164,1,4,3,0,5,2,H-,1,0,3,0,1000,250.0,0,C23SJ,64,train
480.44395446777344,1,4,3,0,5,2,H-,1,0,3,0,1000,250.0,0,C23SJ,65,train
592.4801826477051,1,4,3,0,5,2,H-,1,5,4,0,1000,250.0,5,C23SJ,66,train
768.5348987579346,1,4,3,0,5,2,H-,1,2,5,0,1000,250.0,2,C23SJ,67,train
464.3549919128418,1,4,3,0,5,2,H-,1,0,3,0,1000,250.0,0,C23SJ,68,train
608.96897315979,1,4,3,0,5,2,H-,1,3,2,0,1000,250.0,3,C23SJ,69,train
768.2850360870361,1,4,3,0,5,2,H-,1,2,5,0,1000,250.0,2,C23SJ,70,train
464.37883377075195,1,4,3,0,5,2,H-,1,0,3,0,1000,250.0,0,C23SJ,71,train
687.4120235443115,1,4,3,0,5,2,H-,1,1,0,0,1000,250.0,1,C23SJ,72,train
784.3430042266846,1,4,3,0,5,2,H-,1,2,5,0,1000,250.0,2,C23SJ,73,train
608.6020469665527,1,4,3,0,5,2,H-,1,5,4,0,1000,250.0,5,C23SJ,74,train
496.40488624572754,1,4,3,0,5,2,H-,1,5,4,0,1000,250.0,5,C23SJ,75,train
576.9548416137695,1,4,3,0,5,2,H-,1,2,5,0,1000,250.0,2,C23SJ,76,train
480.42988777160645,1,4,3,0,5,2,H-,1,0,3,0,1000,250.0,0,C23SJ,77,train
448.5769271850586,1,4,3,0,5,2,H-,1,0,3,0,1000,250.0,0,C23SJ,78,train
560.9090328216553,1,4,3,0,5,2,H-,1,1,0,0,1000,250.0,1,C23SJ,79,train
672.5718975067139,1,4,3,0,5,2,H-,0,0,3,0,1000,250.0,2,C23SJ,80,train
768.4788703918457,1,4,3,0,5,2,H-,1,5,4,0,1000,250.0,5,C23SJ,81,train
992.8739070892334,1,4,3,0,5,2,H-,1,0,3,0,1000,250.0,0,C23SJ,82,train
624.6387958526611,1,4,3,0,5,2,H-,1,2,5,0,1000,250.0,2,C23SJ,83,train
926.6250133514404,1,4,3,0,5,2,H-,1,4,1,0,1000,250.0,4,C23SJ,84,train
992.4798011779785,1,4,3,0,5,2,H-,1,2,5,0,1000,250.0,2,C23SJ,85,train
624.4478225708008,1,4,3,0,5,2,H-,1,5,4,0,1000,250.0,5,C23SJ,86,train
848.3891487121582,1,4,3,0,5,2,H-,1,2,5,0,1000,250.0,2,C23SJ,87,train
416.8219566345215,1,4,3,0,5,2,H-,1,2,5,0,1000,250.0,2,C23SJ,88,train
560.6889724731445,1,4,3,0,5,2,H-,1,4,1,0,1000,250.0,4,C23SJ,89,train
944.4229602813721,1,4,3,0,5,2,H-,1,0,3,0,1000,250.0,0,C23SJ,90,train
640.1569843292236,1,4,3,0,5,2,H-,1,4,1,0,1000,250.0,4,C23SJ,91,train
657.1400165557861,1,4,3,0,5,2,H-,1,3,2,0,1000,250.0,3,C23SJ,92,train
608.5729598999023,1,4,3,0,5,2,H-,1,5,4,0,1000,250.0,5,C23SJ,93,train
464.25390243530273,1,4,3,0,5,2,H-,1,3,2,0,1000,250.0,3,C23SJ,94,train
928.3311367034912,1,4,3,0,5,2,H-,0,2,5,0,1000,250.0,0,C23SJ,95,train
639.0931606292725,1,4,3,0,5,2,H-,1,0,3,0,1000,250.0,0,C23SJ,96,train
432.59716033935547,1,4,3,0,5,2,H-,1,2,5,0,1000,250.0,2,C23SJ,97,train
464.52903747558594,1,4,3,0,5,2,H-,1,0,3,0,1000,250.0,0,C23SJ,98,train
624.9070167541504,1,4,3,0,5,2,H-,1,0,3,0,1000,250.0,0,C23SJ,99,train
528.3710956573486,1,4,3,0,5,2,H-,1,1,0,0,1000,250.0,1,C23SJ,100,train
1072.1518993377686,1,4,3,0,5,2,H-,1,0,3,0,1000,250.0,0,C23SJ,101,train
432.4829578399658,1,4,3,0,5,2,H-,1,0,3,0,1000,250.0,0,C23SJ,102,train
688.4598731994629,1,4,3,0,5,2,H-,1,5,4,0,1000,250.0,5,C23SJ,103,train
529.000997543335,1,4,3,0,5,2,H-,1,3,2,0,1000,250.0,3,C23SJ,104,train
672.9679107666016,1,4,3,0,5,2,H-,1,1,0,0,1000,250.0,1,C23SJ,105,train
479.42399978637695,1,4,3,0,5,2,H-,1,5,4,0,1000,250.0,5,C23SJ,106,train
1121.0241317749023,1,4,3,0,5,2,H-,1,2,5,0,1000,250.0,2,C23SJ,107,train
608.8988780975342,1,4,3,0,5,2,H-,1,3,2,0,1000,250.0,3,C23SJ,108,train
401.0748863220215,1,4,3,0,5,2,H-,1,3,2,0,1000,250.0,3,C23SJ,109,train
400.82716941833496,1,4,3,0,5,2,H-,1,3,2,0,1000,250.0,3,C23SJ,110,train
512.4180316925049,1,4,3,0,5,2,H-,1,5,4,0,1000,250.0,5,C23SJ,111,train
1598.6359119415283,1,4,3,0,5,2,H-,1,0,3,0,1000,250.0,0,C23SJ,112,train
688.3118152618408,1,4,3,0,5,2,H-,1,4,1,0,1000,250.0,4,C23SJ,113,train
512.3848915100098,1,4,3,0,5,2,H-,1,4,1,0,1000,250.0,4,C23SJ,114,train
1200.3979682922363,1,4,3,0,5,2,H-,1,2,5,0,1000,250.0,2,C23SJ,115,train
576.2970447540283,1,4,3,0,5,2,H-,1,2,5,0,1000,250.0,2,C23SJ,116,train
960.9439373016357,1,4,3,0,5,2,H-,0,1,0,0,1000,250.0,5,C23SJ,117,train
720.5820083618164,1,4,3,0,5,2,H-,1,2,5,0,1000,250.0,2,C23SJ,118,train
848.5298156738281,1,4,3,0,5,2,H-,0,1,0,0,1000,250.0,5,C23SJ,119,train
800.6110191345215,1,4,3,0,5,2,H-,1,4,1,0,1000,250.0,4,C23SJ,120,train
704.826831817627,1,4,3,0,5,2,H-,1,0,3,0,1000,250.0,0,C23SJ,121,train
416.3250923156738,1,4,3,0,5,2,H-,1,0,3,0,1000,250.0,0,C23SJ,122,train
369.1539764404297,1,4,3,0,5,2,H-,1,0,3,0,1000,250.0,0,C23SJ,123,train
528.5978317260742,1,4,3,0,5,2,H-,1,5,4,0,1000,250.0,5,C23SJ,124,train
672.5900173187256,1,4,3,0,5,2,H-,1,4,1,0,1000,250.0,4,C23SJ,125,train
481.0318946838379,1,4,3,0,5,2,H-,1,5,4,0,1000,250.0,5,C23SJ,126,train
368.3938980102539,1,4,3,0,5,2,H-,1,5,4,0,1000,250.0,5,C23SJ,127,train
416.77117347717285,1,4,3,0,5,2,H-,1,4,1,0,1000,250.0,4,C23SJ,128,train
688.5561943054199,1,4,3,0,5,2,H-,1,1,0,0,1000,250.0,1,C23SJ,129,train
528.4750461578369,1,4,3,0,5,2,H-,1,5,4,0,1000,250.0,5,C23SJ,130,train
384.2198848724365,1,4,3,0,5,2,H-,1,5,4,0,1000,250.0,5,C23SJ,131,train
640.4430866241455,1,4,3,0,5,2,H-,1,3,2,0,1000,250.0,3,C23SJ,132,train
1184.2050552368164,1,4,3,0,5,2,H-,0,1,0,0,1000,250.0,2,C23SJ,133,train
512.9899978637695,1,4,3,0,5,2,H-,1,5,4,0,1000,250.0,5,C23SJ,134,train
847.459077835083,1,4,3,0,5,2,H-,1,1,0,0,1000,250.0,1,C23SJ,135,train
768.5661315917969,1,4,3,0,5,2,H-,1,4,1,0,1000,250.0,4,C23SJ,136,train
576.9631862640381,1,4,3,0,5,2,H-,1,3,2,0,1000,250.0,3,C23SJ,137,train
608.9248657226562,1,4,3,0,5,2,H-,1,1,0,0,1000,250.0,1,C23SJ,138,train
480.3731441497803,1,4,3,0,5,2,H-,1,5,4,0,1000,250.0,5,C23SJ,139,train
928.5030364990234,1,4,3,0,5,2,H-,1,2,5,0,1000,250.0,2,C23SJ,140,train
561.9380474090576,1,4,3,0,5,2,H-,1,4,1,0,1000,250.0,4,C23SJ,141,train
720.5121517181396,1,4,3,0,5,2,H-,1,1,0,0,1000,250.0,1,C23SJ,142,train
512.5300884246826,1,4,3,0,5,2,H-,1,5,4,0,1000,250.0,5,C23SJ,143,train
608.5898876190186,1,4,3,0,5,2,H-,1,0,3,0,1000,250.0,0,C23SJ,144,train
352.63609886169434,1,4,3,0,5,2,H-,1,0,3,0,1000,250.0,0,C23SJ,145,train
545.0739860534668,1,4,3,0,5,2,H-,1,4,1,0,1000,250.0,4,C23SJ,146,train
416.6560173034668,1,4,3,0,5,2,H-,1,4,1,0,1000,250.0,4,C23SJ,147,train
736.36794090271,1,4,3,0,5,2,H-,1,2,5,0,1000,250.0,2,C23SJ,148,train
624.539852142334,1,4,3,0,5,2,H-,1,0,3,0,1000,250.0,0,C23SJ,149,train
513.0610466003418,1,4,3,0,5,2,H-,1,5,4,0,1000,250.0,5,C23SJ,150,train
592.3681259155273,1,4,3,0,5,2,H-,1,0,3,0,1000,250.0,0,C23SJ,151,train
1104.4130325317383,1,4,3,0,5,2,H-,1,1,0,0,1000,250.0,1,C23SJ,152,train
1152.6010036468506,1,4,3,0,5,2,H-,1,0,3,0,1000,250.0,0,C23SJ,153,train
608.6070537567139,1,4,3,0,5,2,H-,1,5,4,0,1000,250.0,5,C23SJ,154,train
656.5210819244385,1,4,3,0,5,2,H-,1,1,0,0,1000,250.0,1,C23SJ,155,train
465.11387825012207,1,4,3,0,5,2,H-,1,4,1,0,1000,250.0,4,C23SJ,156,train
477.47302055358887,1,4,3,0,5,2,H-,1,3,2,0,1000,250.0,3,C23SJ,157,train
560.4979991912842,1,4,3,0,5,2,H-,1,4,1,0,1000,250.0,4,C23SJ,158,train
528.9971828460693,1,4,3,0,5,2,H-,1,4,1,0,1000,250.0,4,C23SJ,159,train
494.63486671447754,1,4,3,0,5,2,H-,1,5,4,0,1000,250.0,5,C23SJ,160,train
496.0319995880127,1,4,3,0,5,2,H-,1,0,3,0,1000,250.0,0,C23SJ,161,train
511.8908882141113,1,4,3,0,5,2,H-,1,5,4,0,1000,250.0,5,C23SJ,162,train
558.603048324585,1,4,3,0,5,2,H-,1,1,0,0,1000,250.0,1,C23SJ,163,train
561.1460208892822,1,4,3,0,5,2,H-,1,0,3,0,1000,250.0,0,C23SJ,164,train
640.4118537902832,1,4,3,0,5,2,H-,1,4,1,0,1000,250.0,4,C23SJ,165,train
526.6549587249756,1,4,3,0,5,2,H-,1,0,3,0,1000,250.0,0,C23SJ,166,train
497.020959854126,1,4,3,0,5,2,H-,1,5,4,0,1000,250.0,5,C23SJ,167,train
513.1468772888184,1,4,3,0,5,2,H-,1,4,1,0,1000,250.0,4,C23SJ,168,train
608.8969707489014,1,4,3,0,5,2,H-,1,1,0,0,1000,250.0,1,C23SJ,169,train
480.24606704711914,1,4,3,0,5,2,H-,1,0,3,0,1000,250.0,0,C23SJ,170,train
576.7300128936768,1,4,3,0,5,2,H-,1,4,1,0,1000,250.0,4,C23SJ,171,train
672.5900173187256,1,4,3,0,5,2,H-,1,2,5,0,1000,250.0,2,C23SJ,172,train
528.8817882537842,1,4,3,0,5,2,H-,0,3,2,0,1000,250.0,4,C23SJ,173,train
513.045072555542,1,4,3,0,5,2,H-,1,4,1,0,1000,250.0,4,C23SJ,174,train
449.0959644317627,1,4,3,0,5,2,H-,1,4,1,0,1000,250.0,4,C23SJ,175,train
704.4310569763184,1,4,3,0,5,2,H-,1,1,0,0,1000,250.0,1,C23SJ,176,train
496.2308406829834,1,4,3,0,5,2,H-,1,5,4,0,1000,250.0,5,C23SJ,177,train
608.6380481719971,1,4,3,0,5,2,H-,1,1,0,0,1000,250.0,1,C23SJ,178,train
608.3900928497314,1,4,3,0,5,2,H-,1,3,2,0,1000,250.0,3,C23SJ,179,train
1008.0201625823975,1,4,3,0,5,2,H-,1,2,5,0,1000,250.0,2,C23SJ,180,train
368.35384368896484,1,4,3,0,5,2,H-,1,2,5,0,1000,250.0,2,C23SJ,181,train
400.76589584350586,1,4,3,0,5,2,H-,1,0,3,0,1000,250.0,0,C23SJ,182,train
320.3389644622803,1,4,3,0,5,2,H-,1,0,3,0,1000,250.0,0,C23SJ,183,train
559.4968795776367,1,4,3,0,5,2,H-,1,1,0,0,1000,250.0,1,C23SJ,184,train
480.81493377685547,1,4,3,0,5,2,H-,1,3,2,0,1000,250.0,3,C23SJ,185,train
464.4761085510254,1,4,3,0,5,2,H-,1,4,1,0,1000,250.0,4,C23SJ,186,train
480.4530143737793,1,4,3,0,5,2,H-,1,3,2,0,1000,250.0,3,C23SJ,187,train
416.06712341308594,1,4,3,0,5,2,H-,1,3,2,0,1000,250.0,3,C23SJ,188,train
592.3130512237549,1,4,3,0,5,2,H-,1,1,0,0,1000,250.0,1,C23SJ,189,train
542.6380634307861,1,4,3,0,5,2,H-,1,4,1,0,1000,250.0,4,C23SJ,190,train
544.6469783782959,1,4,3,0,5,2,H-,1,1,0,0,1000,250.0,1,C23SJ,191,train
704.535961151123,1,4,3,0,5,2,H-,1,2,5,0,1000,250.0,2,C23SJ,192,train
624.547004699707,1,4,3,0,5,2,H-,1,5,4,0,1000,250.0,5,C23SJ,193,train
558.7029457092285,1,4,3,0,5,2,H-,1,2,5,0,1000,250.0,2,C23SJ,194,train
384.9139213562012,1,4,3,0,5,2,H-,1,2,5,0,1000,250.0,2,C23SJ,195,train
480.38506507873535,1,4,3,0,5,2,H-,1,4,1,0,1000,250.0,4,C23SJ,196,train
783.8809490203857,1,4,3,0,5,2,H-,1,0,3,0,1000,250.0,0,C23SJ,197,train
527.4019241333008,1,4,3,0,5,2,H-,1,5,4,0,1000,250.0,5,C23SJ,198,train
448.9908218383789,1,4,3,0,5,2,H-,1,5,4,0,1000,250.0,5,C23SJ,199,train
432.5828552246094,1,4,3,0,5,2,H-,1,1,0,0,1000,250.0,1,C23SJ,200,train
385.09607315063477,1,4,3,0,5,2,H-,1,1,0,0,1000,250.0,1,C23SJ,201,train
496.48594856262207,1,4,3,0,5,2,H-,1,5,4,0,1000,250.0,5,C23SJ,202,train
720.2408313751221,1,4,3,0,5,2,H-,1,0,3,0,1000,250.0,0,C23SJ,203,train
480.61513900756836,1,4,3,0,5,2,H-,1,5,4,0,1000,250.0,5,C23SJ,204,train
576.570987701416,1,4,3,0,5,2,H-,0,0,3,0,1000,250.0,2,C23SJ,205,train
480.49211502075195,1,4,3,0,5,2,H-,1,0,3,0,1000,250.0,0,C23SJ,206,train
481.0619354248047,1,4,3,0,5,2,H-,1,5,4,0,1000,250.0,5,C23SJ,207,train
481.16207122802734,1,4,3,0,5,2,H-,1,4,1,0,1000,250.0,4,C23SJ,208,train
720.6020355224609,1,4,3,0,5,2,H-,1,2,5,0,1000,250.0,2,C23SJ,209,train
496.4299201965332,1,4,3,0,5,2,H-,1,0,3,0,1000,250.0,0,C23SJ,210,train
464.60413932800293,1,4,3,0,5,2,H-,1,4,1,0,1000,250.0,4,C23SJ,211,train
544.6209907531738,1,4,3,0,5,2,H-,1,0,3,0,1000,250.0,0,C23SJ,212,train
480.3140163421631,1,4,3,0,5,2,H-,1,2,5,0,1000,250.0,2,C23SJ,213,train
480.79895973205566,1,4,3,0,5,2,H-,1,3,2,0,1000,250.0,3,C23SJ,214,train
638.7450695037842,1,4,3,0,5,2,H-,1,2,5,0,1000,250.0,2,C23SJ,215,train
448.50707054138184,1,4,3,0,5,2,H-,1,1,0,0,1000,250.0,1,C23SJ,216,train
401.46589279174805,1,4,3,0,5,2,H-,1,1,0,0,1000,250.0,1,C23SJ,217,train
497.1330165863037,1,4,3,0,5,2,H-,1,5,4,0,1000,250.0,5,C23SJ,218,train
416.38803482055664,1,4,3,0,5,2,H-,1,4,1,0,1000,250.0,4,C23SJ,219,train
768.3091163635254,1,4,3,0,5,2,H-,1,0,3,0,1000,250.0,0,C23SJ,220,train
526.6091823577881,1,4,3,0,5,2,H-,1,1,0,0,1000,250.0,1,C23SJ,221,train
384.65118408203125,1,4,3,0,5,2,H-,1,2,5,0,1000,250.0,2,C23SJ,222,train
593.0109024047852,1,4,3,0,5,2,H-,1,1,0,0,1000,250.0,1,C23SJ,223,train
496.37794494628906,1,4,3,0,5,2,H-,1,5,4,0,1000,250.0,5,C23SJ,224,train
608.1969738006592,1,4,3,0,5,2,H-,1,1,0,0,1000,250.0,1,C23SJ,225,train
465.0719165802002,1,4,3,0,5,2,H-,1,5,4,0,1000,250.0,5,C23SJ,226,train
544.525146484375,1,4,3,0,5,2,H-,1,4,1,0,1000,250.0,4,C23SJ,227,train
752.1278858184814,1,4,3,0,5,2,H-,1,2,5,0,1000,250.0,2,C23SJ,228,train
512.3939514160156,1,4,3,0,5,2,H-,1,1,0,0,1000,250.0,1,C23SJ,229,train
528.9959907531738,1,4,3,0,5,2,H-,1,0,3,0,1000,250.0,0,C23SJ,230,train
512.5670433044434,1,4,3,0,5,2,H-,1,3,2,0,1000,250.0,3,C23SJ,231,train
478.39808464050293,1,4,3,0,5,2,H-,1,5,4,0,1000,250.0,5,C23SJ,232,train
560.9209537506104,1,4,3,0,5,2,H-,1,1,0,0,1000,250.0,1,C23SJ,233,train
496.7079162597656,1,4,3,0,5,2,H-,1,3,2,0,1000,250.0,3,C23SJ,234,train
1169.0430641174316,1,4,3,0,5,2,H-,1,0,3,0,1000,250.0,0,C23SJ,235,train
513.1959915161133,1,4,3,0,5,2,H-,1,0,3,0,1000,250.0,0,C23SJ,236,train
672.2359657287598,1,4,3,0,5,2,H-,1,4,1,0,1000,250.0,4,C23SJ,237,train
640.6979560852051,1,4,3,0,5,2,H-,1,1,0,0,1000,250.0,1,C23SJ,238,train
496.3879585266113,1,4,3,0,5,2,H-,1,5,4,0,1000,250.0,5,C23SJ,239,train
464.493989944458,1,4,3,0,5,2,H-,1,4,1,0,1000,250.0,4,C23SJ,240,train
463.97995948791504,1,4,3,0,5,2,H-,1,5,4,0,1000,250.0,5,C23SJ,241,train
384.9771022796631,1,4,3,0,5,2,H-,1,5,4,0,1000,250.0,5,C23SJ,242,train
544.5070266723633,1,4,3,0,5,2,H-,0,2,5,0,1000,250.0,1,C23SJ,243,train
576.3280391693115,1,4,3,0,5,2,H-,1,4,1,0,1000,250.0,4,C23SJ,244,train
736.4799976348877,1,4,3,0,5,2,H-,1,0,3,0,1000,250.0,0,C23SJ,245,train
416.3169860839844,1,4,3,0,5,2,H-,1,2,5,0,1000,250.0,2,C23SJ,246,train
544.651985168457,1,4,3,0,5,2,H-,1,4,1,0,1000,250.0,4,C23SJ,247,train
848.4151363372803,1,4,3,0,5,2,H-,1,0,3,0,1000,250.0,0,C23SJ,248,train
496.2160587310791,1,4,3,0,5,2,H-,1,5,4,0,1000,250.0,5,C23SJ,249,train
1024.528980255127,1,5,3,0,2,4,H-,1,0,3,0,1000,250.0,0,C23SJ,250,test
784.156084060669,1,5,3,0,2,4,H-,1,3,2,0,1000,250.0,3,C23SJ,251,test
1728.6360263824463,1,5,3,0,2,4,H-,1,2,4,0,1000,250.0,2,C23SJ,252,test
880.7449340820312,1,5,3,0,2,4,H-,1,1,0,0,1000,250.0,1,C23SJ,253,test
800.6761074066162,1,5,3,0,2,4,H-,1,2,4,0,1000,250.0,2,C23SJ,254,test
640.1281356811523,1,5,3,0,2,4,H-,1,3,2,0,1000,250.0,3,C23SJ,255,test
1296.3249683380127,1,5,3,0,2,4,H-,1,2,4,0,1000,250.0,2,C23SJ,256,test
816.5562152862549,1,5,3,0,2,4,H-,1,3,2,0,1000,250.0,3,C23SJ,257,test
592.461109161377,1,5,3,0,2,4,H-,1,3,2,0,1000,250.0,3,C23SJ,258,test
768.2669162750244,1,5,3,0,2,4,H-,1,4,5,0,1000,250.0,4,C23SJ,259,test
880.4848194122314,1,5,3,0,2,4,H-,1,0,3,0,1000,250.0,0,C23SJ,260,test
673.0079650878906,1,5,3,0,2,4,H-,1,0,3,0,1000,250.0,0,C23SJ,261,test
625.1070499420166,1,5,3,0,2,4,H-,1,3,2,0,1000,250.0,3,C23SJ,262,test
897.010087966919,1,5,3,0,2,4,H-,1,5,1,0,1000,250.0,5,C23SJ,263,test
686.5639686584473,1,5,3,0,2,4,H-,1,5,1,0,1000,250.0,5,C23SJ,264,test
769.1531181335449,1,5,3,0,2,4,H-,1,1,0,0,1000,250.0,1,C23SJ,265,test
607.4719429016113,1,5,3,0,2,4,H-,1,2,4,0,1000,250.0,2,C23SJ,266,test
624.4969367980957,1,5,3,0,2,4,H-,1,3,2,0,1000,250.0,3,C23SJ,267,test
896.3260650634766,1,5,3,0,2,4,H-,1,0,3,0,1000,250.0,0,C23SJ,268,test
816.6868686676025,1,5,3,0,2,4,H-,0,2,4,0,1000,250.0,1,C23SJ,269,test
721.0569381713867,1,5,3,0,2,4,H-,1,1,0,0,1000,250.0,1,C23SJ,270,test
575.5858421325684,1,5,3,0,2,4,H-,1,0,3,0,1000,250.0,0,C23SJ,271,test
1008.228063583374,1,5,3,0,2,4,H-,1,5,1,0,1000,250.0,5,C23SJ,272,test
912.9061698913574,1,5,3,0,2,4,H-,1,0,3,0,1000,250.0,0,C23SJ,273,test
704.7929763793945,1,5,3,0,2,4,H-,1,0,3,0,1000,250.0,0,C23SJ,274,test
591.8810367584229,1,5,3,0,2,4,H-,1,1,0,0,1000,250.0,1,C23SJ,275,test
864.5269870758057,1,5,3,0,2,4,H-,1,1,0,0,1000,250.0,1,C23SJ,276,test
624.2690086364746,1,5,3,0,2,4,H-,1,1,0,0,1000,250.0,1,C23SJ,277,test
702.5980949401855,1,5,3,0,2,4,H-,1,3,2,0,1000,250.0,3,C23SJ,278,test
750.6771087646484,1,5,3,0,2,4,H-,1,5,1,0,1000,250.0,5,C23SJ,279,test
880.4540634155273,1,5,3,0,2,4,H-,1,1,0,0,1000,250.0,1,C23SJ,280,test
592.4060344696045,1,5,3,0,2,4,H-,1,3,2,0,1000,250.0,3,C23SJ,281,test
736.5889549255371,1,5,3,0,2,4,H-,1,5,1,0,1000,250.0,5,C23SJ,282,test
608.3590984344482,1,5,3,0,2,4,H-,1,5,1,0,1000,250.0,5,C23SJ,283,test
688.1492137908936,1,5,3,0,2,4,H-,1,1,0,0,1000,250.0,1,C23SJ,284,test
576.5340328216553,1,5,3,0,2,4,H-,1,0,3,0,1000,250.0,0,C23SJ,285,test
801.0170459747314,1,5,3,0,2,4,H-,1,2,4,0,1000,250.0,2,C23SJ,286,test
784.3360900878906,1,5,3,0,2,4,H-,1,0,3,0,1000,250.0,0,C23SJ,287,test
784.5098972320557,1,5,3,0,2,4,H-,1,0,3,0,1000,250.0,0,C23SJ,288,test
720.9250926971436,1,5,3,0,2,4,H-,1,0,3,0,1000,250.0,0,C23SJ,289,test
592.5018787384033,1,5,3,0,2,4,H-,1,0,3,0,1000,250.0,0,C23SJ,290,test
912.4839305877686,1,5,3,0,2,4,H-,1,4,5,0,1000,250.0,4,C23SJ,291,test
592.7491188049316,1,5,3,0,2,4,H-,1,5,1,0,1000,250.0,5,C23SJ,292,test
880.8660507202148,1,5,3,0,2,4,H-,1,1,0,0,1000,250.0,1,C23SJ,293,test
656.5730571746826,1,5,3,0,2,4,H-,1,0,3,0,1000,250.0,0,C23SJ,294,test
640.9099102020264,1,5,3,0,2,4,H-,1,0,3,0,1000,250.0,0,C23SJ,295,test
1056.3089847564697,1,5,3,0,2,4,H-,1,4,5,0,1000,250.0,4,C23SJ,296,test
543.1089401245117,1,5,3,0,2,4,H-,1,4,5,0,1000,250.0,4,C23SJ,297,test
560.7118606567383,1,5,3,0,2,4,H-,1,4,5,0,1000,250.0,4,C23SJ,298,test
736.6750240325928,1,5,3,0,2,4,H-,1,4,5,0,1000,250.0,4,C23SJ,299,test
800.3029823303223,1,5,3,0,2,4,H-,1,1,0,0,1000,250.0,1,C23SJ,300,test
688.4300708770752,1,5,3,0,2,4,H-,1,4,5,0,1000,250.0,4,C23SJ,301,test
736.7770671844482,1,5,3,0,2,4,H-,1,0,3,0,1000,250.0,0,C23SJ,302,test
784.7819328308105,1,5,3,0,2,4,H-,1,3,2,0,1000,250.0,3,C23SJ,303,test
592.4239158630371,1,5,3,0,2,4,H-,1,1,0,0,1000,250.0,1,C23SJ,304,test
769.0508365631104,1,5,3,0,2,4,H-,1,4,5,0,1000,250.0,4,C23SJ,305,test
576.3800144195557,1,5,3,0,2,4,H-,1,3,2,0,1000,250.0,3,C23SJ,306,test
640.9099102020264,1,5,3,0,2,4,H-,1,1,0,0,1000,250.0,1,C23SJ,307,test
512.8939151763916,1,5,3,0,2,4,H-,1,3,2,0,1000,250.0,3,C23SJ,308,test
512.9220485687256,1,5,3,0,2,4,H-,1,3,2,0,1000,250.0,3,C23SJ,309,test
640.1851177215576,1,5,3,0,2,4,H-,0,2,4,0,1000,250.0,5,C23SJ,310,test
816.7929649353027,1,5,3,0,2,4,H-,1,5,1,0,1000,250.0,5,C23SJ,311,test
848.4749794006348,1,5,3,0,2,4,H-,1,1,0,0,1000,250.0,1,C23SJ,312,test
881.0470104217529,1,5,3,0,2,4,H-,1,2,4,0,1000,250.0,2,C23SJ,313,test
817.0340061187744,1,5,3,0,2,4,H-,1,5,1,0,1000,250.0,5,C23SJ,314,test
608.8728904724121,1,5,3,0,2,4,H-,1,5,1,0,1000,250.0,5,C23SJ,315,test
897.040843963623,1,5,3,0,2,4,H-,1,4,5,0,1000,250.0,4,C23SJ,316,test
720.4320430755615,1,5,3,0,2,4,H-,1,1,0,0,1000,250.0,1,C23SJ,317,test
704.8599720001221,1,5,3,0,2,4,H-,1,3,2,0,1000,250.0,3,C23SJ,318,test
624.9711513519287,1,5,3,0,2,4,H-,1,5,1,0,1000,250.0,5,C23SJ,319,test
592.8900241851807,1,5,3,0,2,4,H-,1,3,2,0,1000,250.0,3,C23SJ,320,test
513.1559371948242,1,5,3,0,2,4,H-,1,3,2,0,1000,250.0,3,C23SJ,321,test
991.5900230407715,1,5,3,0,2,4,H-,1,2,4,0,1000,250.0,2,C23SJ,322,test
657.6728820800781,1,5,3,0,2,4,H-,1,1,0,0,1000,250.0,1,C23SJ,323,test
832.028865814209,1,5,3,0,2,4,H-,1,0,3,0,1000,250.0,0,C23SJ,324,test
638.4809017181396,1,5,3,0,2,4,H-,1,0,3,0,1000,250.0,0,C23SJ,325,test
736.7889881134033,1,5,3,0,2,4,H-,1,1,0,0,1000,250.0,1,C23SJ,326,test
512.6299858093262,1,5,3,0,2,4,H-,1,0,3,0,1000,250.0,0,C23SJ,327,test
1136.4500522613525,1,5,3,0,2,4,H-,1,4,5,0,1000,250.0,4,C23SJ,328,test
752.9470920562744,1,5,3,0,2,4,H-,1,4,5,0,1000,250.0,4,C23SJ,329,test
944.9419975280762,1,5,3,0,2,4,H-,1,1,0,0,1000,250.0,1,C23SJ,330,test
752.1851062774658,1,5,3,0,2,4,H-,1,5,1,0,1000,250.0,5,C23SJ,331,test
432.5299263000488,1,5,3,0,2,4,H-,1,2,4,0,1000,250.0,2,C23SJ,332,test
943.4859752655029,1,5,3,0,2,4,H-,1,4,5,0,1000,250.0,4,C23SJ,333,test
544.9769496917725,1,5,3,0,2,4,H-,1,5,1,0,1000,250.0,5,C23SJ,334,test
640.4550075531006,1,5,3,0,2,4,H-,1,3,2,0,1000,250.0,3,C23SJ,335,test
528.832197189331,1,5,3,0,2,4,H-,1,4,5,0,1000,250.0,4,C23SJ,336,test
480.44610023498535,1,5,3,0,2,4,H-,1,5,1,0,1000,250.0,5,C23SJ,337,test
526.7250537872314,1,5,3,0,2,4,H-,1,1,0,0,1000,250.0,1,C23SJ,338,test
672.497034072876,1,5,3,0,2,4,H-,1,2,4,0,1000,250.0,2,C23SJ,339,test
736.5250587463379,1,5,3,0,2,4,H-,1,5,1,0,1000,250.0,5,C23SJ,340,test
496.7689514160156,1,5,3,0,2,4,H-,1,1,0,0,1000,250.0,1,C23SJ,341,test
640.9227848052979,1,5,3,0,2,4,H-,1,4,5,0,1000,250.0,4,C23SJ,342,test
913.1059646606445,1,5,3,0,2,4,H-,1,2,4,0,1000,250.0,2,C23SJ,343,test
560.5509281158447,1,5,3,0,2,4,H-,1,1,0,0,1000,250.0,1,C23SJ,344,test
752.4428367614746,1,5,3,0,2,4,H-,1,4,5,0,1000,250.0,4,C23SJ,345,test
400.4240036010742,1,5,3,0,2,4,H-,1,4,5,0,1000,250.0,4,C23SJ,346,test
336.98201179504395,1,5,3,0,2,4,H-,1,4,5,0,1000,250.0,4,C23SJ,347,test
513.0767822265625,1,5,3,0,2,4,H-,1,3,2,0,1000,250.0,3,C23SJ,348,test
657.0470333099365,1,5,3,0,2,4,H-,1,0,3,0,1000,250.0,0,C23SJ,349,test
800.7440567016602,1,5,3,0,2,4,H-,1,5,1,0,1000,250.0,5,C23SJ,350,test
592.3111438751221,1,5,3,0,2,4,H-,1,2,4,0,1000,250.0,2,C23SJ,351,test
608.9539527893066,1,5,3,0,2,4,H-,1,4,5,0,1000,250.0,4,C23SJ,352,test
480.9761047363281,1,5,3,0,2,4,H-,1,3,2,0,1000,250.0,3,C23SJ,353,test
528.2480716705322,1,5,3,0,2,4,H-,1,1,0,0,1000,250.0,1,C23SJ,354,test
512.9129886627197,1,5,3,0,2,4,H-,1,5,1,0,1000,250.0,5,C23SJ,355,test
960.5739116668701,1,5,3,0,2,4,H-,1,4,5,0,1000,250.0,4,C23SJ,356,test
640.7790184020996,1,5,3,0,2,4,H-,1,2,4,0,1000,250.0,2,C23SJ,357,test
608.7009906768799,1,5,3,0,2,4,H-,1,4,5,0,1000,250.0,4,C23SJ,358,test
912.5730991363525,1,5,3,0,2,4,H-,1,2,4,0,1000,250.0,2,C23SJ,359,test
752.5599002838135,1,5,3,0,2,4,H-,1,5,1,0,1000,250.0,5,C23SJ,360,test
512.9568576812744,1,5,3,0,2,4,H-,1,1,0,0,1000,250.0,1,C23SJ,361,test
576.9569873809814,1,5,3,0,2,4,H-,1,5,1,0,1000,250.0,5,C23SJ,362,test
528.6359786987305,1,5,3,0,2,4,H-,1,3,2,0,1000,250.0,3,C23SJ,363,test
640.9261226654053,1,5,3,0,2,4,H-,1,4,5,0,1000,250.0,4,C23SJ,364,test
496.45113945007324,1,5,3,0,2,4,H-,1,3,2,0,1000,250.0,3,C23SJ,365,test
625.06103515625,1,5,3,0,2,4,H-,1,1,0,0,1000,250.0,1,C23SJ,366,test
816.4122104644775,1,5,3,0,2,4,H-,1,2,4,0,1000,250.0,2,C23SJ,367,test
481.01186752319336,1,5,3,0,2,4,H-,1,5,1,0,1000,250.0,5,C23SJ,368,test
720.9310531616211,1,5,3,0,2,4,H-,1,4,5,0,1000,250.0,4,C23SJ,369,test
368.59703063964844,1,5,3,0,2,4,H-,1,1,0,0,1000,250.0,1,C23SJ,370,test
496.5641498565674,1,5,3,0,2,4,H-,1,5,1,0,1000,250.0,5,C23SJ,371,test
416.81790351867676,1,5,3,0,2,4,H-,1,5,1,0,1000,250.0,5,C23SJ,372,test
368.3648109436035,1,5,3,0,2,4,H-,1,5,1,0,1000,250.0,5,C23SJ,373,test
576.9650936126709,1,5,3,0,2,4,H-,1,0,3,0,1000,250.0,0,C23SJ,374,test
465.05212783813477,1,5,3,0,2,4,H-,1,5,1,0,1000,250.0,5,C23SJ,375,test
720.4089164733887,1,5,3,0,2,4,H-,1,4,5,0,1000,250.0,4,C23SJ,376,test
640.2699947357178,1,5,3,0,2,4,H-,1,2,4,0,1000,250.0,2,C23SJ,377,test
560.4488849639893,1,5,3,0,2,4,H-,1,4,5,0,1000,250.0,4,C23SJ,378,test
432.3239326477051,1,5,3,0,2,4,H-,1,5,1,0,1000,250.0,5,C23SJ,379,test
576.9858360290527,1,5,3,0,2,4,H-,1,0,3,0,1000,250.0,0,C23SJ,380,test
928.7619590759277,1,5,3,0,2,4,H-,1,4,5,0,1000,250.0,4,C23SJ,381,test
528.965950012207,1,5,3,0,2,4,H-,1,3,2,0,1000,250.0,3,C23SJ,382,test
528.5129547119141,1,5,3,0,2,4,H-,1,1,0,0,1000,250.0,1,C23SJ,383,test
480.94892501831055,1,5,3,0,2,4,H-,1,3,2,0,1000,250.0,3,C23SJ,384,test
480.6828498840332,1,5,3,0,2,4,H-,1,5,1,0,1000,250.0,5,C23SJ,385,test
1008.7921619415283,1,5,3,0,2,4,H-,1,2,4,0,1000,250.0,2,C23SJ,386,test
575.484037399292,1,5,3,0,2,4,H-,1,1,0,0,1000,250.0,1,C23SJ,387,test
480.9529781341553,1,5,3,0,2,4,H-,1,5,1,0,1000,250.0,5,C23SJ,388,test
558.0580234527588,1,5,3,0,2,4,H-,1,1,0,0,1000,250.0,1,C23SJ,389,test
560.8839988708496,1,5,3,0,2,4,H-,1,4,5,0,1000,250.0,4,C23SJ,390,test
399.1050720214844,1,5,3,0,2,4,H-,1,4,5,0,1000,250.0,4,C23SJ,391,test
576.5857696533203,1,5,3,0,2,4,H-,1,1,0,0,1000,250.0,1,C23SJ,392,test
480.1609516143799,1,5,3,0,2,4,H-,1,3,2,0,1000,250.0,3,C23SJ,393,test
352.24199295043945,1,5,3,0,2,4,H-,1,3,2,0,1000,250.0,3,C23SJ,394,test
433.1541061401367,1,5,3,0,2,4,H-,1,5,1,0,1000,250.0,5,C23SJ,395,test
624.83811378479,1,5,3,0,2,4,H-,0,2,4,0,1000,250.0,1,C23SJ,396,test
368.9141273498535,1,5,3,0,2,4,H-,1,2,4,0,1000,250.0,2,C23SJ,397,test
335.38198471069336,1,5,3,0,2,4,H-,1,2,4,0,1000,250.0,2,C23SJ,398,test
529.015064239502,1,5,3,0,2,4,H-,1,3,2,0,1000,250.0,3,C23SJ,399,test
526.8487930297852,1,5,3,0,2,4,H-,1,4,5,0,1000,250.0,4,C23SJ,400,test
593.0039882659912,1,5,3,0,2,4,H-,1,1,0,0,1000,250.0,1,C23SJ,401,test
576.8301486968994,1,5,3,0,2,4,H-,1,0,3,0,1000,250.0,0,C23SJ,402,test
561.011791229248,1,5,3,0,2,4,H-,1,1,0,0,1000,250.0,1,C23SJ,403,test
560.6350898742676,1,5,3,0,2,4,H-,1,1,0,0,1000,250.0,1,C23SJ,404,test
464.7829532623291,1,5,3,0,2,4,H-,1,5,1,0,1000,250.0,5,C23SJ,405,test
497.4019527435303,1,5,3,0,2,4,H-,1,3,2,0,1000,250.0,3,C23SJ,406,test
368.91913414001465,1,5,3,0,2,4,H-,1,4,5,0,1000,250.0,4,C23SJ,407,test
464.9629592895508,1,5,3,0,2,4,H-,1,5,1,0,1000,250.0,5,C23SJ,408,test
352.7998924255371,1,5,3,0,2,4,H-,1,5,1,0,1000,250.0,5,C23SJ,409,test
623.560905456543,1,5,3,0,2,4,H-,1,4,5,0,1000,250.0,4,C23SJ,410,test
800.00901222229,1,5,3,0,2,4,H-,0,2,4,0,1000,250.0,1,C23SJ,411,test
496.845006942749,1,5,3,0,2,4,H-,1,3,2,0,1000,250.0,3,C23SJ,412,test
481.02593421936035,1,5,3,0,2,4,H-,1,4,5,0,1000,250.0,4,C23SJ,413,test
624.8149871826172,1,5,3,0,2,4,H-,1,0,3,0,1000,250.0,0,C23SJ,414,test
977.0300388336182,1,5,3,0,2,4,H-,1,4,5,0,1000,250.0,4,C23SJ,415,test
528.5489559173584,1,5,3,0,2,4,H-,1,3,2,0,1000,250.0,3,C23SJ,416,test
433.03394317626953,1,5,3,0,2,4,H-,1,5,1,0,1000,250.0,5,C23SJ,417,test
448.9920139312744,1,5,3,0,2,4,H-,1,1,0,0,1000,250.0,1,C23SJ,418,test
832.9980373382568,1,5,3,0,2,4,H-,1,2,4,0,1000,250.0,2,C23SJ,419,test
462.5518321990967,1,5,3,0,2,4,H-,1,5,1,0,1000,250.0,5,C23SJ,420,test
544.7299480438232,1,5,3,0,2,4,H-,1,1,0,0,1000,250.0,1,C23SJ,421,test
464.71118927001953,1,5,3,0,2,4,H-,1,3,2,0,1000,250.0,3,C23SJ,422,test
496.80495262145996,1,5,3,0,2,4,H-,1,4,5,0,1000,250.0,4,C23SJ,423,test
560.8201026916504,1,5,3,0,2,4,H-,1,0,3,0,1000,250.0,0,C23SJ,424,test
496.9780445098877,1,5,3,0,2,4,H-,1,5,1,0,1000,250.0,5,C23SJ,425,test
544.9879169464111,1,5,3,0,2,4,H-,1,4,5,0,1000,250.0,4,C23SJ,426,test
432.8198432922363,1,5,3,0,2,4,H-,1,3,2,0,1000,250.0,3,C23SJ,427,test
464.75696563720703,1,5,3,0,2,4,H-,1,3,2,0,1000,250.0,3,C23SJ,428,test
495.39685249328613,1,5,3,0,2,4,H-,1,4,5,0,1000,250.0,4,C23SJ,429,test
576.8849849700928,1,5,3,0,2,4,H-,1,1,0,0,1000,250.0,1,C23SJ,430,test
560.8799457550049,1,5,3,0,2,4,H-,1,2,4,0,1000,250.0,2,C23SJ,431,test
497.0571994781494,1,5,3,0,2,4,H-,1,3,2,0,1000,250.0,3,C23SJ,432,test
561.0020160675049,1,5,3,0,2,4,H-,1,1,0,0,1000,250.0,1,C23SJ,433,test
512.7379894256592,1,5,3,0,2,4,H-,1,0,3,0,1000,250.0,0,C23SJ,434,test
350.6350517272949,1,5,3,0,2,4,H-,1,0,3,0,1000,250.0,0,C23SJ,435,test
480.21912574768066,1,5,3,0,2,4,H-,1,3,2,0,1000,250.0,3,C23SJ,436,test
417.0248508453369,1,5,3,0,2,4,H-,1,4,5,0,1000,250.0,4,C23SJ,437,test
544.8579788208008,1,5,3,0,2,4,H-,1,1,0,0,1000,250.0,1,C23SJ,438,test
560.9571933746338,1,5,3,0,2,4,H-,1,0,3,0,1000,250.0,0,C23SJ,439,test
465.09599685668945,1,5,3,0,2,4,H-,1,3,2,0,1000,250.0,3,C23SJ,440,test
512.9292011260986,1,5,3,0,2,4,H-,1,1,0,0,1000,250.0,1,C23SJ,441,test
896.9500064849854,1,5,3,0,2,4,H-,1,4,5,0,1000,250.0,4,C23SJ,442,test
657.0239067077637,1,5,3,0,2,4,H-,1,2,4,0,1000,250.0,2,C23SJ,443,test
417.04297065734863,1,5,3,0,2,4,H-,1,3,2,0,1000,250.0,3,C23SJ,444,test
384.85097885131836,1,5,3,0,2,4,H-,1,3,2,0,1000,250.0,3,C23SJ,445,test
463.2551670074463,1,5,3,0,2,4,H-,1,5,1,0,1000,250.0,5,C23SJ,446,test
512.8529071807861,1,5,3,0,2,4,H-,0,2,4,0,1000,250.0,1,C23SJ,447,test
480.9749126434326,1,5,3,0,2,4,H-,1,3,2,0,1000,250.0,3,C23SJ,448,test
512.6149654388428,1,5,3,0,2,4,H-,1,1,0,0,1000,250.0,1,C23SJ,449,test
496.9520568847656,1,5,3,0,2,4,H-,1,5,1,0,1000,250.0,5,C23SJ,450,test
446.52795791625977,1,5,3,0,2,4,H-,1,3,2,0,1000,250.0,3,C23SJ,451,test
368.9310550689697,1,5,3,0,2,4,H-,1,3,2,0,1000,250.0,3,C23SJ,452,test
689.0020370483398,1,5,3,0,2,4,H-,1,2,4,0,1000,250.0,2,C23SJ,453,test
545.025110244751,1,5,3,0,2,4,H-,1,3,2,0,1000,250.0,3,C23SJ,454,test
481.09984397888184,1,5,3,0,2,4,H-,1,5,1,0,1000,250.0,5,C23SJ,455,test
400.6049633026123,1,5,3,0,2,4,H-,1,3,2,0,1000,250.0,3,C23SJ,456,test
401.0310173034668,1,5,3,0,2,4,H-,1,3,2,0,1000,250.0,3,C23SJ,457,test
464.763879776001,1,5,3,0,2,4,H-,1,5,1,0,1000,250.0,5,C23SJ,458,test
497.081995010376,1,5,3,0,2,4,H-,1,3,2,0,1000,250.0,3,C23SJ,459,test
657.7329635620117,1,5,3,0,2,4,H-,1,2,4,0,1000,250.0,2,C23SJ,460,test
561.0110759735107,1,5,3,0,2,4,H-,1,4,5,0,1000,250.0,4,C23SJ,461,test
593.0500030517578,1,5,3,0,2,4,H-,1,2,4,0,1000,250.0,2,C23SJ,462,test
320.88518142700195,1,5,3,0,2,4,H-,1,4,5,0,1000,250.0,4,C23SJ,463,test
529.0000438690186,1,5,3,0,2,4,H-,1,0,3,0,1000,250.0,0,C23SJ,464,test
528.8879871368408,1,5,3,0,2,4,H-,1,5,1,0,1000,250.0,5,C23SJ,465,test
624.8159408569336,1,5,3,0,2,4,H-,1,2,4,0,1000,250.0,2,C23SJ,466,test
464.78891372680664,1,5,3,0,2,4,H-,1,5,1,0,1000,250.0,5,C23SJ,467,test
352.9019355773926,1,5,3,0,2,4,H-,1,5,1,0,1000,250.0,5,C23SJ,468,test
512.6500129699707,1,5,3,0,2,4,H-,1,2,4,0,1000,250.0,2,C23SJ,469,test
368.9451217651367,1,5,3,0,2,4,H-,1,2,4,0,1000,250.0,2,C23SJ,470,test
336.7128372192383,1,5,3,0,2,4,H-,1,2,4,0,1000,250.0,2,C23SJ,471,test
673.0871200561523,1,5,3,0,2,4,H-,1,3,2,0,1000,250.0,3,C23SJ,472,test
352.8752326965332,1,5,3,0,2,4,H-,1,3,2,0,1000,250.0,3,C23SJ,473,test
688.8489723205566,1,5,3,0,2,4,H-,0,0,3,0,1000,250.0,1,C23SJ,474,test
704.6890258789062,1,5,3,0,2,4,H-,1,2,4,0,1000,250.0,2,C23SJ,475,test
385.01882553100586,1,5,3,0,2,4,H-,1,0,3,0,1000,250.0,0,C23SJ,476,test
336.86304092407227,1,5,3,0,2,4,H-,1,0,3,0,1000,250.0,0,C23SJ,477,test
511.97099685668945,1,5,3,0,2,4,H-,1,1,0,0,1000,250.0,1,C23SJ,478,test
416.7368412017822,1,5,3,0,2,4,H-,1,1,0,0,1000,250.0,1,C23SJ,479,test
494.63701248168945,1,5,3,0,2,4,H-,1,5,1,0,1000,250.0,5,C23SJ,480,test
464.6420478820801,1,5,3,0,2,4,H-,1,5,1,0,1000,250.0,5,C23SJ,481,test
353.0750274658203,1,5,3,0,2,4,H-,1,5,1,0,1000,250.0,5,C23SJ,482,test
512.5808715820312,1,5,3,0,2,4,H-,1,4,5,0,1000,250.0,4,C23SJ,483,test
273.0059623718262,1,5,3,0,2,4,H-,1,4,5,0,1000,250.0,4,C23SJ,484,test
448.8258361816406,1,5,3,0,2,4,H-,1,5,1,0,1000,250.0,5,C23SJ,485,test
576.9541263580322,1,5,3,0,2,4,H-,1,2,4,0,1000,250.0,2,C23SJ,486,test
544.8198318481445,1,5,3,0,2,4,H-,1,5,1,0,1000,250.0,5,C23SJ,487,test
336.7271423339844,1,5,3,0,2,4,H-,1,1,0,0,1000,250.0,1,C23SJ,488,test
416.29505157470703,1,5,3,0,2,4,H-,1,5,1,0,1000,250.0,5,C23SJ,489,test
464.95795249938965,1,5,3,0,2,4,H-,1,1,0,0,1000,250.0,1,C23SJ,490,test
352.24413871765137,1,5,3,0,2,4,H-,1,5,1,0,1000,250.0,5,C23SJ,491,test
577.0289897918701,1,5,3,0,2,4,H-,1,2,4,0,1000,250.0,2,C23SJ,492,test
320.87182998657227,1,5,3,0,2,4,H-,1,2,4,0,1000,250.0,2,C23SJ,493,test
480.8528423309326,1,5,3,0,2,4,H-,0,3,2,0,1000,250.0,4,C23SJ,494,test
384.9210739135742,1,5,3,0,2,4,H-,0,2,4,0,1000,250.0,4,C23SJ,495,test
512.8250122070312,1,5,3,0,2,4,H-,1,0,3,0,1000,250.0,0,C23SJ,496,test
544.745922088623,1,5,3,0,2,4,H-,1,2,4,0,1000,250.0,2,C23SJ,497,test
513.0569934844971,1,5,3,0,2,4,H-,1,0,3,0,1000,250.0,0,C23SJ,498,test
512.984037399292,1,5,3,0,2,4,H-,1,3,2,0,1000,250.0,3,C23SJ,499,test
