RT,SRmap_0,SRmap_1,SRmap_2,SRmap_3,SRmap_4,SRmap_5,condition,correct,correct_response,curstim,ms-precue,ms-prestimblank,ntrials,response,subject,trial,type
1663.9609336853027,3,4,1,5,0,2,M,1,3,0,0,1000,250.0,3,d27hrn,0,train
657.0758819580078,3,4,1,5,0,2,M,0,2,5,0,1000,250.0,1,d27hrn,1,train
897.1958160400391,3,4,1,5,0,2,M,1,5,3,0,1000,250.0,5,d27hrn,2,train
656.9900512695312,3,4,1,5,0,2,M,0,1,2,0,1000,250.0,0,d27hrn,3,train
769.2341804504395,3,4,1,5,0,2,M,1,5,3,0,1000,250.0,5,d27hrn,4,train
657.0301055908203,3,4,1,5,0,2,M,1,0,4,0,1000,250.0,0,d27hrn,5,train
593.2519435882568,3,4,1,5,0,2,M,1,1,2,0,1000,250.0,1,d27hrn,6,train
1233.1771850585938,3,4,1,5,0,2,M,1,3,0,0,1000,250.0,3,d27hrn,7,train
641.2138938903809,3,4,1,5,0,2,M,1,4,1,0,1000,250.0,4,d27hrn,8,train
545.0789928436279,3,4,1,5,0,2,M,1,5,3,0,1000,250.0,5,d27hrn,9,train
561.0499382019043,3,4,1,5,0,2,M,1,4,1,0,1000,250.0,4,d27hrn,10,train
641.200065612793,3,4,1,5,0,2,M,1,3,0,0,1000,250.0,3,d27hrn,11,train
481.19592666625977,3,4,1,5,0,2,M,1,3,0,0,1000,250.0,3,d27hrn,12,train
529.1550159454346,3,4,1,5,0,2,M,0,2,5,0,1000,250.0,1,d27hrn,13,train
609.1649532318115,3,4,1,5,0,2,M,1,5,3,0,1000,250.0,5,d27hrn,14,train
592.9770469665527,3,4,1,5,0,2,M,1,3,0,0,1000,250.0,3,d27hrn,15,train
497.18284606933594,3,4,1,5,0,2,M,1,3,0,0,1000,250.0,3,d27hrn,16,train
481.2300205230713,3,4,1,5,0,2,M,0,4,1,0,1000,250.0,5,d27hrn,17,train
481.2629222869873,3,4,1,5,0,2,M,1,3,0,0,1000,250.0,3,d27hrn,18,train
801.2239933013916,3,4,1,5,0,2,M,1,1,2,0,1000,250.0,1,d27hrn,19,train
561.2120628356934,3,4,1,5,0,2,M,1,5,3,0,1000,250.0,5,d27hrn,20,train
481.0299873352051,3,4,1,5,0,2,M,1,3,0,0,1000,250.0,3,d27hrn,21,train
481.13203048706055,3,4,1,5,0,2,M,1,0,4,0,1000,250.0,0,d27hrn,22,train
593.264102935791,3,4,1,5,0,2,M,0,4,1,0,1000,250.0,5,d27hrn,23,train
465.0568962097168,3,4,1,5,0,2,M,1,4,1,0,1000,250.0,4,d27hrn,24,train
417.0980453491211,3,4,1,5,0,2,M,1,4,1,0,1000,250.0,4,d27hrn,25,train
481.16111755371094,3,4,1,5,0,2,M,1,5,3,0,1000,250.0,5,d27hrn,26,train
432.82008171081543,3,4,1,5,0,2,M,1,3,0,0,1000,250.0,3,d27hrn,27,train
513.1580829620361,3,4,1,5,0,2,M,1,0,4,0,1000,250.0,0,d27hrn,28,train
705.1560878753662,3,4,1,5,0,2,M,1,4,1,0,1000,250.0,4,d27hrn,29,train
545.2089309692383,3,4,1,5,0,2,M,1,0,4,0,1000,250.0,0,d27hrn,30,train
497.1890449523926,3,4,1,5,0,2,M,1,5,3,0,1000,250.0,5,d27hrn,31,train
497.089147567749,3,4,1,5,0,2,M,1,4,1,0,1000,250.0,4,d27hrn,32,train
481.27198219299316,3,4,1,5,0,2,M,1,0,4,0,1000,250.0,0,d27hrn,33,train
545.2370643615723,3,4,1,5,0,2,M,1,3,0,0,1000,250.0,3,d27hrn,34,train
433.23493003845215,3,4,1,5,0,2,M,1,4,1,0,1000,250.0,4,d27hrn,35,train
465.1648998260498,3,4,1,5,0,2,M,1,0,4,0,1000,250.0,0,d27hrn,36,train
481.01091384887695,3,4,1,5,0,2,M,1,3,0,0,1000,250.0,3,d27hrn,37,train
481.17899894714355,3,4,1,5,0,2,M,1,4,1,0,1000,250.0,4,d27hrn,38,train
481.2781810760498,3,4,1,5,0,2,M,1,5,3,0,1000,250.0,5,d27hrn,39,train
401.3040065765381,3,4,1,5,0,2,M,1,5,3,0,1000,250.0,5,d27hrn,40,train
449.2509365081787,3,4,1,5,0,2,M,1,3,0,0,1000,250.0,3,d27hrn,41,train
353.2228469848633,3,4,1,5,0,2,M,1,3,0,0,1000,250.0,3,d27hrn,42,train
385.21409034729004,3,4,1,5,0,2,M,1,5,3,0,1000,250.0,5,d27hrn,43,train
481.0190200805664,3,4,1,5,0,2,M,0,1,2,0,1000,250.0,0,d27hrn,44,train
513.2529735565186,3,4,1,5,0,2,M,1,4,1,0,1000,250.0,4,d27hrn,45,train
481.16087913513184,3,4,1,5,0,2,M,1,3,0,0,1000,250.0,3,d27hrn,46,train
385.0851058959961,3,4,1,5,0,2,M,1,0,4,0,1000,250.0,0,d27hrn,47,train
433.02011489868164,3,4,1,5,0,2,M,1,5,3,0,1000,250.0,5,d27hrn,48,train
497.1911907196045,3,4,1,5,0,2,M,1,1,2,0,1000,250.0,1,d27hrn,49,train
432.9681396484375,3,4,1,5,0,2,M,0,2,5,0,1000,250.0,1,d27hrn,50,train
401.1359214782715,3,4,1,5,0,2,M,1,1,2,0,1000,250.0,1,d27hrn,51,train
416.89491271972656,3,4,1,5,0,2,M,1,1,2,0,1000,250.0,1,d27hrn,52,train
385.1649761199951,3,4,1,5,0,2,M,1,2,5,0,1000,250.0,2,d27hrn,53,train
401.1960029602051,3,4,1,5,0,2,M,0,2,5,0,1000,250.0,1,d27hrn,54,train
577.153205871582,3,4,1,5,0,2,M,0,4,1,0,1000,250.0,5,d27hrn,55,train
561.229944229126,3,4,1,5,0,2,M,1,1,2,0,1000,250.0,1,d27hrn,56,train
513.0448341369629,3,4,1,5,0,2,M,1,4,1,0,1000,250.0,4,d27hrn,57,train
433.0918788909912,3,4,1,5,0,2,M,1,5,3,0,1000,250.0,5,d27hrn,58,train
736.8278503417969,3,4,1,5,0,2,M,1,1,2,0,1000,250.0,1,d27hrn,59,train
448.1699466705322,3,4,1,5,0,2,M,1,5,3,0,1000,250.0,5,d27hrn,60,train
480.82709312438965,3,4,1,5,0,2,M,0,2,5,0,1000,250.0,4,d27hrn,61,train
464.4889831542969,3,4,1,5,0,2,M,1,5,3,0,1000,250.0,5,d27hrn,62,train
496.83284759521484,3,4,1,5,0,2,M,1,4,1,0,1000,250.0,4,d27hrn,63,train
480.8669090270996,3,4,1,5,0,2,M,1,5,3,0,1000,250.0,5,d27hrn,64,train
416.4581298828125,3,4,1,5,0,2,M,1,5,3,0,1000,250.0,5,d27hrn,65,train
432.82508850097656,3,4,1,5,0,2,M,1,5,3,0,1000,250.0,5,d27hrn,66,train
529.0830135345459,3,4,1,5,0,2,M,1,2,5,0,1000,250.0,2,d27hrn,67,train
497.0080852508545,3,4,1,5,0,2,M,0,3,0,0,1000,250.0,4,d27hrn,68,train
433.0298900604248,3,4,1,5,0,2,M,1,3,0,0,1000,250.0,3,d27hrn,69,train
400.86984634399414,3,4,1,5,0,2,M,1,3,0,0,1000,250.0,3,d27hrn,70,train
464.59412574768066,3,4,1,5,0,2,M,1,0,4,0,1000,250.0,0,d27hrn,71,train
416.7499542236328,3,4,1,5,0,2,M,1,1,2,0,1000,250.0,1,d27hrn,72,train
432.7108860015869,3,4,1,5,0,2,M,1,5,3,0,1000,250.0,5,d27hrn,73,train
400.8359909057617,3,4,1,5,0,2,M,1,4,1,0,1000,250.0,4,d27hrn,74,train
400.70509910583496,3,4,1,5,0,2,M,1,5,3,0,1000,250.0,5,d27hrn,75,train
368.6709403991699,3,4,1,5,0,2,M,1,5,3,0,1000,250.0,5,d27hrn,76,train
432.86800384521484,3,4,1,5,0,2,M,1,3,0,0,1000,250.0,3,d27hrn,77,train
416.8589115142822,3,4,1,5,0,2,M,1,3,0,0,1000,250.0,3,d27hrn,78,train
432.79004096984863,3,4,1,5,0,2,M,1,5,3,0,1000,250.0,5,d27hrn,79,train
384.84907150268555,3,4,1,5,0,2,M,1,3,0,0,1000,250.0,3,d27hrn,80,train
448.7309455871582,3,4,1,5,0,2,M,1,4,1,0,1000,250.0,4,d27hrn,81,train
464.6902084350586,3,4,1,5,0,2,M,1,0,4,0,1000,250.0,0,d27hrn,82,train
448.6401081085205,3,4,1,5,0,2,M,0,3,0,0,1000,250.0,2,d27hrn,83,train
351.93419456481934,3,4,1,5,0,2,M,1,3,0,0,1000,250.0,3,d27hrn,84,train
464.8089408874512,3,4,1,5,0,2,M,1,2,5,0,1000,250.0,2,d27hrn,85,train
432.4789047241211,3,4,1,5,0,2,M,1,3,0,0,1000,250.0,3,d27hrn,86,train
448.70805740356445,3,4,1,5,0,2,M,1,5,3,0,1000,250.0,5,d27hrn,87,train
416.7518615722656,3,4,1,5,0,2,M,0,2,5,0,1000,250.0,4,d27hrn,88,train
688.662052154541,3,4,1,5,0,2,M,1,2,5,0,1000,250.0,2,d27hrn,89,train
512.7840042114258,3,4,1,5,0,2,M,1,1,2,0,1000,250.0,1,d27hrn,90,train
464.8909568786621,3,4,1,5,0,2,M,1,1,2,0,1000,250.0,1,d27hrn,91,train
400.58398246765137,3,4,1,5,0,2,M,1,5,3,0,1000,250.0,5,d27hrn,92,train
448.7161636352539,3,4,1,5,0,2,M,1,1,2,0,1000,250.0,1,d27hrn,93,train
368.8380718231201,3,4,1,5,0,2,M,1,5,3,0,1000,250.0,5,d27hrn,94,train
448.8401412963867,3,4,1,5,0,2,M,0,2,5,0,1000,250.0,1,d27hrn,95,train
464.7789001464844,3,4,1,5,0,2,M,1,3,0,0,1000,250.0,3,d27hrn,96,train
448.85802268981934,3,4,1,5,0,2,M,1,3,0,0,1000,250.0,3,d27hrn,97,train
400.7699489593506,3,4,1,5,0,2,M,1,1,2,0,1000,250.0,1,d27hrn,98,train
368.90697479248047,3,4,1,5,0,2,M,1,0,4,0,1000,250.0,0,d27hrn,99,train
512.779951095581,3,4,1,5,0,2,M,1,2,5,0,1000,250.0,2,d27hrn,100,train
464.8399353027344,3,4,1,5,0,2,M,1,5,3,0,1000,250.0,5,d27hrn,101,train
496.8681335449219,3,4,1,5,0,2,M,1,1,2,0,1000,250.0,1,d27hrn,102,train
416.9309139251709,3,4,1,5,0,2,M,1,5,3,0,1000,250.0,5,d27hrn,103,train
448.81296157836914,3,4,1,5,0,2,M,1,2,5,0,1000,250.0,2,d27hrn,104,train
432.85202980041504,3,4,1,5,0,2,M,1,0,4,0,1000,250.0,0,d27hrn,105,train
432.87014961242676,3,4,1,5,0,2,M,1,1,2,0,1000,250.0,1,d27hrn,106,train
448.7731456756592,3,4,1,5,0,2,M,1,1,2,0,1000,250.0,1,d27hrn,107,train
464.7698402404785,3,4,1,5,0,2,M,1,0,4,0,1000,250.0,0,d27hrn,108,train
400.56300163269043,3,4,1,5,0,2,M,1,1,2,0,1000,250.0,1,d27hrn,109,train
464.77603912353516,3,4,1,5,0,2,M,1,1,2,0,1000,250.0,1,d27hrn,110,train
480.91983795166016,3,4,1,5,0,2,M,1,2,5,0,1000,250.0,2,d27hrn,111,train
448.81510734558105,3,4,1,5,0,2,M,1,4,1,0,1000,250.0,4,d27hrn,112,train
400.79212188720703,3,4,1,5,0,2,M,1,0,4,0,1000,250.0,0,d27hrn,113,train
448.8201141357422,3,4,1,5,0,2,M,0,3,0,0,1000,250.0,2,d27hrn,114,train
496.62303924560547,3,4,1,5,0,2,M,1,5,3,0,1000,250.0,5,d27hrn,115,train
544.8839664459229,3,4,1,5,0,2,M,1,3,0,0,1000,250.0,3,d27hrn,116,train
416.7439937591553,3,4,1,5,0,2,M,1,1,2,0,1000,250.0,1,d27hrn,117,train
384.80496406555176,3,4,1,5,0,2,M,1,0,4,0,1000,250.0,0,d27hrn,118,train
528.6691188812256,3,4,1,5,0,2,M,1,5,3,0,1000,250.0,5,d27hrn,119,train
448.67801666259766,3,4,1,5,0,2,M,1,5,3,0,1000,250.0,5,d27hrn,120,train
336.83300018310547,3,4,1,5,0,2,M,1,5,3,0,1000,250.0,5,d27hrn,121,train
400.9230136871338,3,4,1,5,0,2,M,1,4,1,0,1000,250.0,4,d27hrn,122,train
448.9781856536865,3,4,1,5,0,2,M,1,1,2,0,1000,250.0,1,d27hrn,123,train
353.05190086364746,3,4,1,5,0,2,M,1,0,4,0,1000,250.0,0,d27hrn,124,train
417.0799255371094,3,4,1,5,0,2,M,1,3,0,0,1000,250.0,3,d27hrn,125,train
480.5951118469238,3,4,1,5,0,2,M,0,2,5,0,1000,250.0,4,d27hrn,126,train
416.99695587158203,3,4,1,5,0,2,M,1,3,0,0,1000,250.0,3,d27hrn,127,train
400.91609954833984,3,4,1,5,0,2,M,1,3,0,0,1000,250.0,3,d27hrn,128,train
304.8138618469238,3,4,1,5,0,2,M,1,3,0,0,1000,250.0,3,d27hrn,129,train
448.81510734558105,3,4,1,5,0,2,M,0,4,1,0,1000,250.0,5,d27hrn,130,train
512.8397941589355,3,4,1,5,0,2,M,1,2,5,0,1000,250.0,2,d27hrn,131,train
528.8670063018799,3,4,1,5,0,2,M,1,3,0,0,1000,250.0,3,d27hrn,132,train
416.6598320007324,3,4,1,5,0,2,M,0,2,5,0,1000,250.0,3,d27hrn,133,train
512.9280090332031,3,4,1,5,0,2,M,1,1,2,0,1000,250.0,1,d27hrn,134,train
464.7860527038574,3,4,1,5,0,2,M,1,5,3,0,1000,250.0,5,d27hrn,135,train
432.88397789001465,3,4,1,5,0,2,M,1,4,1,0,1000,250.0,4,d27hrn,136,train
432.53207206726074,3,4,1,5,0,2,M,1,3,0,0,1000,250.0,3,d27hrn,137,train
496.7780113220215,3,4,1,5,0,2,M,1,5,3,0,1000,250.0,5,d27hrn,138,train
448.7590789794922,3,4,1,5,0,2,M,1,3,0,0,1000,250.0,3,d27hrn,139,train
416.75281524658203,3,4,1,5,0,2,M,1,1,2,0,1000,250.0,1,d27hrn,140,train
432.54995346069336,3,4,1,5,0,2,M,1,5,3,0,1000,250.0,5,d27hrn,141,train
352.6029586791992,3,4,1,5,0,2,M,1,5,3,0,1000,250.0,5,d27hrn,142,train
432.88493156433105,3,4,1,5,0,2,M,1,3,0,0,1000,250.0,3,d27hrn,143,train
384.8419189453125,3,4,1,5,0,2,M,1,4,1,0,1000,250.0,4,d27hrn,144,train
432.59501457214355,3,4,1,5,0,2,M,1,3,0,0,1000,250.0,3,d27hrn,145,train
528.7837982177734,3,4,1,5,0,2,M,1,2,5,0,1000,250.0,2,d27hrn,146,train
480.77893257141113,3,4,1,5,0,2,M,1,4,1,0,1000,250.0,4,d27hrn,147,train
383.5780620574951,3,4,1,5,0,2,M,1,3,0,0,1000,250.0,3,d27hrn,148,train
464.6909236907959,3,4,1,5,0,2,M,1,4,1,0,1000,250.0,4,d27hrn,149,train
432.71613121032715,3,4,1,5,0,2,M,1,1,2,0,1000,250.0,1,d27hrn,150,train
400.7761478424072,3,4,1,5,0,2,M,1,0,4,0,1000,250.0,0,d27hrn,151,train
352.6489734649658,3,4,1,5,0,2,M,1,2,5,0,1000,250.0,2,d27hrn,152,train
496.77181243896484,3,4,1,5,0,2,M,1,5,3,0,1000,250.0,5,d27hrn,153,train
352.86593437194824,3,4,1,5,0,2,M,1,4,1,0,1000,250.0,4,d27hrn,154,train
400.74896812438965,3,4,1,5,0,2,M,1,2,5,0,1000,250.0,2,d27hrn,155,train
448.81486892700195,3,4,1,5,0,2,M,1,0,4,0,1000,250.0,0,d27hrn,156,train
432.83605575561523,3,4,1,5,0,2,M,1,2,5,0,1000,250.0,2,d27hrn,157,train
432.75904655456543,3,4,1,5,0,2,M,1,1,2,0,1000,250.0,1,d27hrn,158,train
432.82389640808105,3,4,1,5,0,2,M,1,0,4,0,1000,250.0,0,d27hrn,159,train
432.83700942993164,3,4,1,5,0,2,M,1,4,1,0,1000,250.0,4,d27hrn,160,train
384.7188949584961,3,4,1,5,0,2,M,1,0,4,0,1000,250.0,0,d27hrn,161,train
448.8029479980469,3,4,1,5,0,2,M,1,5,3,0,1000,250.0,5,d27hrn,162,train
480.6511402130127,3,4,1,5,0,2,M,1,2,5,0,1000,250.0,2,d27hrn,163,train
384.89603996276855,3,4,1,5,0,2,M,1,0,4,0,1000,250.0,0,d27hrn,164,train
432.6188564300537,3,4,1,5,0,2,M,1,0,4,0,1000,250.0,0,d27hrn,165,train
400.85291862487793,3,4,1,5,0,2,M,1,0,4,0,1000,250.0,0,d27hrn,166,train
448.79889488220215,3,4,1,5,0,2,M,1,4,1,0,1000,250.0,4,d27hrn,167,train
448.775053024292,3,4,1,5,0,2,M,1,5,3,0,1000,250.0,5,d27hrn,168,train
480.8228015899658,3,4,1,5,0,2,M,1,3,0,0,1000,250.0,3,d27hrn,169,train
384.86719131469727,3,4,1,5,0,2,M,1,2,5,0,1000,250.0,2,d27hrn,170,train
432.9221248626709,3,4,1,5,0,2,M,1,3,0,0,1000,250.0,3,d27hrn,171,train
416.74304008483887,3,4,1,5,0,2,M,1,3,0,0,1000,250.0,3,d27hrn,172,train
352.8919219970703,3,4,1,5,0,2,M,1,3,0,0,1000,250.0,3,d27hrn,173,train
384.6869468688965,3,4,1,5,0,2,M,1,3,0,0,1000,250.0,3,d27hrn,174,train
400.81095695495605,3,4,1,5,0,2,M,1,5,3,0,1000,250.0,5,d27hrn,175,train
352.53000259399414,3,4,1,5,0,2,M,1,3,0,0,1000,250.0,3,d27hrn,176,train
368.90196800231934,3,4,1,5,0,2,M,0,2,5,0,1000,250.0,3,d27hrn,177,train
496.71411514282227,3,4,1,5,0,2,M,1,3,0,0,1000,250.0,3,d27hrn,178,train
448.836088180542,3,4,1,5,0,2,M,1,3,0,0,1000,250.0,3,d27hrn,179,train
416.78500175476074,3,4,1,5,0,2,M,1,1,2,0,1000,250.0,1,d27hrn,180,train
560.7681274414062,3,4,1,5,0,2,M,1,4,1,0,1000,250.0,4,d27hrn,181,train
416.7819023132324,3,4,1,5,0,2,M,1,1,2,0,1000,250.0,1,d27hrn,182,train
448.84204864501953,3,4,1,5,0,2,M,0,2,5,0,1000,250.0,4,d27hrn,183,train
432.62696266174316,3,4,1,5,0,2,M,1,1,2,0,1000,250.0,1,d27hrn,184,train
448.84800910949707,3,4,1,5,0,2,M,1,5,3,0,1000,250.0,5,d27hrn,185,train
463.9580249786377,3,4,1,5,0,2,M,1,1,2,0,1000,250.0,1,d27hrn,186,train
480.88693618774414,3,4,1,5,0,2,M,1,4,1,0,1000,250.0,4,d27hrn,187,train
496.8528747558594,3,4,1,5,0,2,M,1,2,5,0,1000,250.0,2,d27hrn,188,train
416.93902015686035,3,4,1,5,0,2,M,1,0,4,0,1000,250.0,0,d27hrn,189,train
576.5659809112549,3,4,1,5,0,2,M,1,4,1,0,1000,250.0,4,d27hrn,190,train
480.8239936828613,3,4,1,5,0,2,M,1,2,5,0,1000,250.0,2,d27hrn,191,train
368.75295639038086,3,4,1,5,0,2,M,1,1,2,0,1000,250.0,1,d27hrn,192,train
352.9191017150879,3,4,1,5,0,2,M,1,1,2,0,1000,250.0,1,d27hrn,193,train
368.7891960144043,3,4,1,5,0,2,M,0,2,5,0,1000,250.0,4,d27hrn,194,train
464.7691249847412,3,4,1,5,0,2,M,1,0,4,0,1000,250.0,0,d27hrn,195,train
512.8788948059082,3,4,1,5,0,2,M,1,5,3,0,1000,250.0,5,d27hrn,196,train
528.7299156188965,3,4,1,5,0,2,M,1,2,5,0,1000,250.0,2,d27hrn,197,train
432.7261447906494,3,4,1,5,0,2,M,1,0,4,0,1000,250.0,0,d27hrn,198,train
336.69495582580566,3,4,1,5,0,2,M,1,0,4,0,1000,250.0,0,d27hrn,199,train
304.6681880950928,3,4,1,5,0,2,M,1,0,4,0,1000,250.0,0,d27hrn,200,train
464.8621082305908,3,4,1,5,0,2,M,1,5,3,0,1000,250.0,5,d27hrn,201,train
432.70397186279297,3,4,1,5,0,2,M,1,4,1,0,1000,250.0,4,d27hrn,202,train
384.5808506011963,3,4,1,5,0,2,M,1,0,4,0,1000,250.0,0,d27hrn,203,train
400.8979797363281,3,4,1,5,0,2,M,1,4,1,0,1000,250.0,4,d27hrn,204,train
416.8071746826172,3,4,1,5,0,2,M,0,1,2,0,1000,250.0,3,d27hrn,205,train
480.76391220092773,3,4,1,5,0,2,M,1,2,5,0,1000,250.0,2,d27hrn,206,train
464.8609161376953,3,4,1,5,0,2,M,1,2,5,0,1000,250.0,2,d27hrn,207,train
400.8011817932129,3,4,1,5,0,2,M,1,1,2,0,1000,250.0,1,d27hrn,208,train
384.7219944000244,3,4,1,5,0,2,M,1,0,4,0,1000,250.0,0,d27hrn,209,train
352.8249263763428,3,4,1,5,0,2,M,1,1,2,0,1000,250.0,1,d27hrn,210,train
384.81998443603516,3,4,1,5,0,2,M,1,1,2,0,1000,250.0,1,d27hrn,211,train
400.70509910583496,3,4,1,5,0,2,M,1,4,1,0,1000,250.0,4,d27hrn,212,train
352.7860641479492,3,4,1,5,0,2,M,1,2,5,0,1000,250.0,2,d27hrn,213,train
432.78002738952637,3,4,1,5,0,2,M,1,5,3,0,1000,250.0,5,d27hrn,214,train
368.7710762023926,3,4,1,5,0,2,M,0,2,5,0,1000,250.0,1,d27hrn,215,train
416.74089431762695,3,4,1,5,0,2,M,1,5,3,0,1000,250.0,5,d27hrn,216,train
448.6351013183594,3,4,1,5,0,2,M,1,5,3,0,1000,250.0,5,d27hrn,217,train
384.8440647125244,3,4,1,5,0,2,M,1,0,4,0,1000,250.0,0,d27hrn,218,train
448.8208293914795,3,4,1,5,0,2,M,1,1,2,0,1000,250.0,1,d27hrn,219,train
416.7158603668213,3,4,1,5,0,2,M,0,3,0,0,1000,250.0,2,d27hrn,220,train
384.80496406555176,3,4,1,5,0,2,M,1,1,2,0,1000,250.0,1,d27hrn,221,train
432.6131343841553,3,4,1,5,0,2,M,0,2,5,0,1000,250.0,1,d27hrn,222,train
528.8140773773193,3,4,1,5,0,2,M,1,4,1,0,1000,250.0,4,d27hrn,223,train
416.64910316467285,3,4,1,5,0,2,M,1,3,0,0,1000,250.0,3,d27hrn,224,train
432.90185928344727,3,4,1,5,0,2,M,1,1,2,0,1000,250.0,1,d27hrn,225,train
336.6219997406006,3,4,1,5,0,2,M,1,2,5,0,1000,250.0,2,d27hrn,226,train
416.86415672302246,3,4,1,5,0,2,M,1,4,1,0,1000,250.0,4,d27hrn,227,train
368.865966796875,3,4,1,5,0,2,M,1,0,4,0,1000,250.0,0,d27hrn,228,train
448.87399673461914,3,4,1,5,0,2,M,0,3,0,0,1000,250.0,2,d27hrn,229,train
464.69593048095703,3,4,1,5,0,2,M,0,4,1,0,1000,250.0,5,d27hrn,230,train
416.75782203674316,3,4,1,5,0,2,M,1,5,3,0,1000,250.0,5,d27hrn,231,train
480.6020259857178,3,4,1,5,0,2,M,1,2,5,0,1000,250.0,2,d27hrn,232,train
432.8742027282715,3,4,1,5,0,2,M,1,2,5,0,1000,250.0,2,d27hrn,233,train
656.8129062652588,3,4,1,5,0,2,M,1,5,3,0,1000,250.0,5,d27hrn,234,train
432.7378273010254,3,4,1,5,0,2,M,1,2,5,0,1000,250.0,2,d27hrn,235,train
352.77795791625977,3,4,1,5,0,2,M,1,2,5,0,1000,250.0,2,d27hrn,236,train
336.6539478302002,3,4,1,5,0,2,M,1,2,5,0,1000,250.0,2,d27hrn,237,train
416.8069362640381,3,4,1,5,0,2,M,1,4,1,0,1000,250.0,4,d27hrn,238,train
416.7602062225342,3,4,1,5,0,2,M,1,0,4,0,1000,250.0,0,d27hrn,239,train
384.71508026123047,3,4,1,5,0,2,M,1,1,2,0,1000,250.0,1,d27hrn,240,train
416.8069362640381,3,4,1,5,0,2,M,1,3,0,0,1000,250.0,3,d27hrn,241,train
400.6330966949463,3,4,1,5,0,2,M,1,5,3,0,1000,250.0,5,d27hrn,242,train
352.76222229003906,3,4,1,5,0,2,M,1,5,3,0,1000,250.0,5,d27hrn,243,train
448.7628936767578,3,4,1,5,0,2,M,1,4,1,0,1000,250.0,4,d27hrn,244,train
496.8090057373047,3,4,1,5,0,2,M,1,1,2,0,1000,250.0,1,d27hrn,245,train
496.7479705810547,3,4,1,5,0,2,M,0,2,5,0,1000,250.0,4,d27hrn,246,train
592.411994934082,3,4,1,5,0,2,M,1,3,0,0,1000,250.0,3,d27hrn,247,train
384.64903831481934,3,4,1,5,0,2,M,1,0,4,0,1000,250.0,0,d27hrn,248,train
336.6239070892334,3,4,1,5,0,2,M,1,1,2,0,1000,250.0,1,d27hrn,249,train
14320.703983306885,3,4,1,5,0,2,M,1,2,5,0,1000,250.0,2,d27hrn,250,test
1536.5839004516602,3,4,1,5,0,2,M,1,5,3,0,1000,250.0,5,d27hrn,251,test
1072.7369785308838,3,4,1,5,0,2,M,1,0,4,0,1000,250.0,0,d27hrn,252,test
960.5920314788818,3,4,1,5,0,2,M,1,4,1,0,1000,250.0,4,d27hrn,253,test
624.7360706329346,3,4,1,5,0,2,M,1,2,5,0,1000,250.0,2,d27hrn,254,test
528.5289287567139,3,4,1,5,0,2,M,1,2,5,0,1000,250.0,2,d27hrn,255,test
1008.6159706115723,3,4,1,5,0,2,M,1,0,4,0,1000,250.0,0,d27hrn,256,test
864.4499778747559,3,4,1,5,0,2,M,1,3,0,0,1000,250.0,3,d27hrn,257,test
544.6970462799072,3,4,1,5,0,2,M,1,3,0,0,1000,250.0,3,d27hrn,258,test
560.5041980743408,3,4,1,5,0,2,M,1,5,3,0,1000,250.0,5,d27hrn,259,test
480.8309078216553,3,4,1,5,0,2,M,1,5,3,0,1000,250.0,5,d27hrn,260,test
688.6839866638184,3,4,1,5,0,2,M,0,3,0,0,1000,250.0,2,d27hrn,261,test
576.6260623931885,3,4,1,5,0,2,M,1,5,3,0,1000,250.0,5,d27hrn,262,test
464.771032333374,3,4,1,5,0,2,M,1,5,3,0,1000,250.0,5,d27hrn,263,test
704.6620845794678,3,4,1,5,0,2,M,1,3,0,0,1000,250.0,3,d27hrn,264,test
496.7949390411377,3,4,1,5,0,2,M,1,3,0,0,1000,250.0,3,d27hrn,265,test
688.7309551239014,3,4,1,5,0,2,M,1,1,2,0,1000,250.0,1,d27hrn,266,test
720.8240032196045,3,4,1,5,0,2,M,1,4,1,0,1000,250.0,4,d27hrn,267,test
912.7600193023682,3,4,1,5,0,2,M,0,2,5,0,1000,250.0,0,d27hrn,268,test
784.6589088439941,3,4,1,5,0,2,M,1,1,2,0,1000,250.0,1,d27hrn,269,test
560.7450008392334,3,4,1,5,0,2,M,1,4,1,0,1000,250.0,4,d27hrn,270,test
544.6600914001465,3,4,1,5,0,2,M,1,0,4,0,1000,250.0,0,d27hrn,271,test
896.8088626861572,3,4,1,5,0,2,M,1,4,1,0,1000,250.0,4,d27hrn,272,test
480.69119453430176,3,4,1,5,0,2,M,1,0,4,0,1000,250.0,0,d27hrn,273,test
624.600887298584,3,4,1,5,0,2,M,1,2,5,0,1000,250.0,2,d27hrn,274,test
592.6570892333984,3,4,1,5,0,2,M,1,3,0,0,1000,250.0,3,d27hrn,275,test
496.69790267944336,3,4,1,5,0,2,M,1,5,3,0,1000,250.0,5,d27hrn,276,test
544.82102394104,3,4,1,5,0,2,M,1,0,4,0,1000,250.0,0,d27hrn,277,test
624.5889663696289,3,4,1,5,0,2,M,1,2,5,0,1000,250.0,2,d27hrn,278,test
528.5329818725586,3,4,1,5,0,2,M,1,5,3,0,1000,250.0,5,d27hrn,279,test
560.6560707092285,3,4,1,5,0,2,M,1,3,0,0,1000,250.0,3,d27hrn,280,test
560.5571269989014,3,4,1,5,0,2,M,0,1,2,0,1000,250.0,0,d27hrn,281,test
576.4369964599609,3,4,1,5,0,2,M,1,4,1,0,1000,250.0,4,d27hrn,282,test
496.72698974609375,3,4,1,5,0,2,M,1,0,4,0,1000,250.0,0,d27hrn,283,test
464.7059440612793,3,4,1,5,0,2,M,1,0,4,0,1000,250.0,0,d27hrn,284,test
576.6630172729492,3,4,1,5,0,2,M,1,3,0,0,1000,250.0,3,d27hrn,285,test
656.6510200500488,3,4,1,5,0,2,M,1,2,5,0,1000,250.0,2,d27hrn,286,test
672.5568771362305,3,4,1,5,0,2,M,1,4,1,0,1000,250.0,4,d27hrn,287,test
976.6318798065186,3,4,1,5,0,2,M,1,5,3,0,1000,250.0,5,d27hrn,288,test
544.6491241455078,3,4,1,5,0,2,M,1,5,3,0,1000,250.0,5,d27hrn,289,test
608.7710857391357,3,4,1,5,0,2,M,1,3,0,0,1000,250.0,3,d27hrn,290,test
592.5660133361816,3,4,1,5,0,2,M,1,1,2,0,1000,250.0,1,d27hrn,291,test
496.64998054504395,3,4,1,5,0,2,M,0,1,2,0,1000,250.0,2,d27hrn,292,test
544.792890548706,3,4,1,5,0,2,M,1,5,3,0,1000,250.0,5,d27hrn,293,test
496.7050552368164,3,4,1,5,0,2,M,1,4,1,0,1000,250.0,4,d27hrn,294,test
496.71196937561035,3,4,1,5,0,2,M,1,1,2,0,1000,250.0,1,d27hrn,295,test
512.8500461578369,3,4,1,5,0,2,M,0,2,5,0,1000,250.0,4,d27hrn,296,test
496.68097496032715,3,4,1,5,0,2,M,1,0,4,0,1000,250.0,0,d27hrn,297,test
512.7050876617432,3,4,1,5,0,2,M,1,1,2,0,1000,250.0,1,d27hrn,298,test
656.728982925415,3,4,1,5,0,2,M,0,3,0,0,1000,250.0,2,d27hrn,299,test
496.71220779418945,3,4,1,5,0,2,M,1,1,2,0,1000,250.0,1,d27hrn,300,test
496.6778755187988,3,4,1,5,0,2,M,1,5,3,0,1000,250.0,5,d27hrn,301,test
465.03305435180664,3,4,1,5,0,2,M,1,1,2,0,1000,250.0,1,d27hrn,302,test
625.1468658447266,3,4,1,5,0,2,M,1,2,5,0,1000,250.0,2,d27hrn,303,test
449.1238594055176,3,4,1,5,0,2,M,1,1,2,0,1000,250.0,1,d27hrn,304,test
513.0090713500977,3,4,1,5,0,2,M,1,4,1,0,1000,250.0,4,d27hrn,305,test
369.1389560699463,3,4,1,5,0,2,M,1,2,5,0,1000,250.0,2,d27hrn,306,test
385.0579261779785,3,4,1,5,0,2,M,1,2,5,0,1000,250.0,2,d27hrn,307,test
513.1878852844238,3,4,1,5,0,2,M,1,0,4,0,1000,250.0,0,d27hrn,308,test
561.1519813537598,3,4,1,5,0,2,M,1,3,0,0,1000,250.0,3,d27hrn,309,test
545.1610088348389,3,4,1,5,0,2,M,1,2,5,0,1000,250.0,2,d27hrn,310,test
513.1258964538574,3,4,1,5,0,2,M,1,0,4,0,1000,250.0,0,d27hrn,311,test
417.12403297424316,3,4,1,5,0,2,M,1,2,5,0,1000,250.0,2,d27hrn,312,test
496.81591987609863,3,4,1,5,0,2,M,0,3,0,0,1000,250.0,0,d27hrn,313,test
464.73097801208496,3,4,1,5,0,2,M,1,0,4,0,1000,250.0,0,d27hrn,314,test
560.7569217681885,3,4,1,5,0,2,M,0,4,1,0,1000,250.0,1,d27hrn,315,test
720.7181453704834,3,4,1,5,0,2,M,1,5,3,0,1000,250.0,5,d27hrn,316,test
592.7350521087646,3,4,1,5,0,2,M,1,2,5,0,1000,250.0,2,d27hrn,317,test
576.6842365264893,3,4,1,5,0,2,M,1,3,0,0,1000,250.0,3,d27hrn,318,test
480.71789741516113,3,4,1,5,0,2,M,1,3,0,0,1000,250.0,3,d27hrn,319,test
464.6000862121582,3,4,1,5,0,2,M,1,0,4,0,1000,250.0,0,d27hrn,320,test
560.7309341430664,3,4,1,5,0,2,M,1,5,3,0,1000,250.0,5,d27hrn,321,test
496.690034866333,3,4,1,5,0,2,M,1,1,2,0,1000,250.0,1,d27hrn,322,test
768.69797706604,3,4,1,5,0,2,M,1,5,3,0,1000,250.0,5,d27hrn,323,test
432.697057723999,3,4,1,5,0,2,M,1,5,3,0,1000,250.0,5,d27hrn,324,test
528.710126876831,3,4,1,5,0,2,M,1,5,3,0,1000,250.0,5,d27hrn,325,test
496.77300453186035,3,4,1,5,0,2,M,1,0,4,0,1000,250.0,0,d27hrn,326,test
560.7180595397949,3,4,1,5,0,2,M,1,2,5,0,1000,250.0,2,d27hrn,327,test
496.73986434936523,3,4,1,5,0,2,M,1,5,3,0,1000,250.0,5,d27hrn,328,test
544.5878505706787,3,4,1,5,0,2,M,1,2,5,0,1000,250.0,2,d27hrn,329,test
480.6981086730957,3,4,1,5,0,2,M,1,2,5,0,1000,250.0,2,d27hrn,330,test
496.67906761169434,3,4,1,5,0,2,M,1,5,3,0,1000,250.0,5,d27hrn,331,test
431.87999725341797,3,4,1,5,0,2,M,1,0,4,0,1000,250.0,0,d27hrn,332,test
512.7019882202148,3,4,1,5,0,2,M,1,3,0,0,1000,250.0,3,d27hrn,333,test
464.763879776001,3,4,1,5,0,2,M,1,1,2,0,1000,250.0,1,d27hrn,334,test
448.8098621368408,3,4,1,5,0,2,M,1,1,2,0,1000,250.0,1,d27hrn,335,test
384.6919536590576,3,4,1,5,0,2,M,1,4,1,0,1000,250.0,4,d27hrn,336,test
464.6720886230469,3,4,1,5,0,2,M,0,3,0,0,1000,250.0,2,d27hrn,337,test
464.6718502044678,3,4,1,5,0,2,M,1,1,2,0,1000,250.0,1,d27hrn,338,test
448.7440586090088,3,4,1,5,0,2,M,1,3,0,0,1000,250.0,3,d27hrn,339,test
624.7720718383789,3,4,1,5,0,2,M,1,1,2,0,1000,250.0,1,d27hrn,340,test
560.8370304107666,3,4,1,5,0,2,M,1,4,1,0,1000,250.0,4,d27hrn,341,test
480.73315620422363,3,4,1,5,0,2,M,1,0,4,0,1000,250.0,0,d27hrn,342,test
592.8139686584473,3,4,1,5,0,2,M,1,4,1,0,1000,250.0,4,d27hrn,343,test
672.7559566497803,3,4,1,5,0,2,M,1,4,1,0,1000,250.0,4,d27hrn,344,test
528.7859439849854,3,4,1,5,0,2,M,1,5,3,0,1000,250.0,5,d27hrn,345,test
432.81006813049316,3,4,1,5,0,2,M,1,1,2,0,1000,250.0,1,d27hrn,346,test
608.8190078735352,3,4,1,5,0,2,M,1,5,3,0,1000,250.0,5,d27hrn,347,test
640.7499313354492,3,4,1,5,0,2,M,1,2,5,0,1000,250.0,2,d27hrn,348,test
496.3998794555664,3,4,1,5,0,2,M,1,0,4,0,1000,250.0,0,d27hrn,349,test
512.7720832824707,3,4,1,5,0,2,M,1,2,5,0,1000,250.0,2,d27hrn,350,test
416.7499542236328,3,4,1,5,0,2,M,1,4,1,0,1000,250.0,4,d27hrn,351,test
544.6839332580566,3,4,1,5,0,2,M,0,3,0,0,1000,250.0,2,d27hrn,352,test
496.7918395996094,3,4,1,5,0,2,M,1,0,4,0,1000,250.0,0,d27hrn,353,test
496.6859817504883,3,4,1,5,0,2,M,1,5,3,0,1000,250.0,5,d27hrn,354,test
464.72692489624023,3,4,1,5,0,2,M,1,5,3,0,1000,250.0,5,d27hrn,355,test
480.73506355285645,3,4,1,5,0,2,M,0,3,0,0,1000,250.0,4,d27hrn,356,test
496.8290328979492,3,4,1,5,0,2,M,1,1,2,0,1000,250.0,1,d27hrn,357,test
480.7121753692627,3,4,1,5,0,2,M,1,1,2,0,1000,250.0,1,d27hrn,358,test
496.6320991516113,3,4,1,5,0,2,M,1,1,2,0,1000,250.0,1,d27hrn,359,test
512.6850605010986,3,4,1,5,0,2,M,1,0,4,0,1000,250.0,0,d27hrn,360,test
512.5701427459717,3,4,1,5,0,2,M,1,4,1,0,1000,250.0,4,d27hrn,361,test
496.5028762817383,3,4,1,5,0,2,M,1,4,1,0,1000,250.0,4,d27hrn,362,test
544.7840690612793,3,4,1,5,0,2,M,0,2,5,0,1000,250.0,3,d27hrn,363,test
512.6628875732422,3,4,1,5,0,2,M,1,4,1,0,1000,250.0,4,d27hrn,364,test
512.7391815185547,3,4,1,5,0,2,M,1,4,1,0,1000,250.0,4,d27hrn,365,test
480.71813583374023,3,4,1,5,0,2,M,1,0,4,0,1000,250.0,0,d27hrn,366,test
528.770923614502,3,4,1,5,0,2,M,1,5,3,0,1000,250.0,5,d27hrn,367,test
448.6558437347412,3,4,1,5,0,2,M,0,4,1,0,1000,250.0,5,d27hrn,368,test
432.7199459075928,3,4,1,5,0,2,M,0,4,1,0,1000,250.0,3,d27hrn,369,test
480.712890625,3,4,1,5,0,2,M,0,3,0,0,1000,250.0,0,d27hrn,370,test
544.7359085083008,3,4,1,5,0,2,M,1,0,4,0,1000,250.0,0,d27hrn,371,test
464.2460346221924,3,4,1,5,0,2,M,1,0,4,0,1000,250.0,0,d27hrn,372,test
496.68002128601074,3,4,1,5,0,2,M,1,5,3,0,1000,250.0,5,d27hrn,373,test
480.59606552124023,3,4,1,5,0,2,M,0,3,0,0,1000,250.0,0,d27hrn,374,test
576.6730308532715,3,4,1,5,0,2,M,1,0,4,0,1000,250.0,0,d27hrn,375,test
496.68097496032715,3,4,1,5,0,2,M,1,5,3,0,1000,250.0,5,d27hrn,376,test
544.6639060974121,3,4,1,5,0,2,M,0,2,5,0,1000,250.0,1,d27hrn,377,test
592.5757884979248,3,4,1,5,0,2,M,1,2,5,0,1000,250.0,2,d27hrn,378,test
928.6720752716064,3,4,1,5,0,2,M,1,3,0,0,1000,250.0,3,d27hrn,379,test
480.6540012359619,3,4,1,5,0,2,M,1,0,4,0,1000,250.0,0,d27hrn,380,test
512.6750469207764,3,4,1,5,0,2,M,1,1,2,0,1000,250.0,1,d27hrn,381,test
896.7230319976807,3,4,1,5,0,2,M,1,5,3,0,1000,250.0,5,d27hrn,382,test
768.7208652496338,3,4,1,5,0,2,M,1,2,5,0,1000,250.0,2,d27hrn,383,test
560.7039928436279,3,4,1,5,0,2,M,1,4,1,0,1000,250.0,4,d27hrn,384,test
385.01906394958496,3,4,1,5,0,2,M,0,2,5,0,1000,250.0,5,d27hrn,385,test
624.3000030517578,3,4,1,5,0,2,M,1,4,1,0,1000,250.0,4,d27hrn,386,test
544.7230339050293,3,4,1,5,0,2,M,1,0,4,0,1000,250.0,0,d27hrn,387,test
448.8680362701416,3,4,1,5,0,2,M,1,0,4,0,1000,250.0,0,d27hrn,388,test
512.8061771392822,3,4,1,5,0,2,M,1,4,1,0,1000,250.0,4,d27hrn,389,test
464.59412574768066,3,4,1,5,0,2,M,1,4,1,0,1000,250.0,4,d27hrn,390,test
384.57798957824707,3,4,1,5,0,2,M,1,0,4,0,1000,250.0,0,d27hrn,391,test
560.6689453125,3,4,1,5,0,2,M,0,3,0,0,1000,250.0,4,d27hrn,392,test
464.7970199584961,3,4,1,5,0,2,M,1,0,4,0,1000,250.0,0,d27hrn,393,test
560.7321262359619,3,4,1,5,0,2,M,1,5,3,0,1000,250.0,5,d27hrn,394,test
496.72698974609375,3,4,1,5,0,2,M,1,3,0,0,1000,250.0,3,d27hrn,395,test
352.6179790496826,3,4,1,5,0,2,M,1,0,4,0,1000,250.0,0,d27hrn,396,test
432.6200485229492,3,4,1,5,0,2,M,0,2,5,0,1000,250.0,3,d27hrn,397,test
545.5749034881592,3,4,1,5,0,2,M,1,4,1,0,1000,250.0,4,d27hrn,398,test
464.6151065826416,3,4,1,5,0,2,M,1,4,1,0,1000,250.0,4,d27hrn,399,test
384.6161365509033,3,4,1,5,0,2,M,1,5,3,0,1000,250.0,5,d27hrn,400,test
496.68192863464355,3,4,1,5,0,2,M,0,4,1,0,1000,250.0,3,d27hrn,401,test
768.6281204223633,3,4,1,5,0,2,M,1,3,0,0,1000,250.0,3,d27hrn,402,test
592.6101207733154,3,4,1,5,0,2,M,1,4,1,0,1000,250.0,4,d27hrn,403,test
672.590970993042,3,4,1,5,0,2,M,1,3,0,0,1000,250.0,3,d27hrn,404,test
464.6170139312744,3,4,1,5,0,2,M,1,5,3,0,1000,250.0,5,d27hrn,405,test
528.6009311676025,3,4,1,5,0,2,M,1,4,1,0,1000,250.0,4,d27hrn,406,test
576.6739845275879,3,4,1,5,0,2,M,1,2,5,0,1000,250.0,2,d27hrn,407,test
464.6420478820801,3,4,1,5,0,2,M,1,4,1,0,1000,250.0,4,d27hrn,408,test
352.60605812072754,3,4,1,5,0,2,M,1,5,3,0,1000,250.0,5,d27hrn,409,test
512.7570629119873,3,4,1,5,0,2,M,0,3,0,0,1000,250.0,2,d27hrn,410,test
528.6941528320312,3,4,1,5,0,2,M,1,3,0,0,1000,250.0,3,d27hrn,411,test
480.6249141693115,3,4,1,5,0,2,M,1,4,1,0,1000,250.0,4,d27hrn,412,test
464.6279811859131,3,4,1,5,0,2,M,1,4,1,0,1000,250.0,4,d27hrn,413,test
495.84507942199707,3,4,1,5,0,2,M,1,4,1,0,1000,250.0,4,d27hrn,414,test
512.5911235809326,3,4,1,5,0,2,M,0,3,0,0,1000,250.0,2,d27hrn,415,test
592.7548408508301,3,4,1,5,0,2,M,1,2,5,0,1000,250.0,2,d27hrn,416,test
464.59007263183594,3,4,1,5,0,2,M,1,5,3,0,1000,250.0,5,d27hrn,417,test
416.719913482666,3,4,1,5,0,2,M,1,5,3,0,1000,250.0,5,d27hrn,418,test
528.6619663238525,3,4,1,5,0,2,M,1,4,1,0,1000,250.0,4,d27hrn,419,test
512.6409530639648,3,4,1,5,0,2,M,1,5,3,0,1000,250.0,5,d27hrn,420,test
512.6819610595703,3,4,1,5,0,2,M,1,2,5,0,1000,250.0,2,d27hrn,421,test
432.6918125152588,3,4,1,5,0,2,M,1,4,1,0,1000,250.0,4,d27hrn,422,test
432.7561855316162,3,4,1,5,0,2,M,1,4,1,0,1000,250.0,4,d27hrn,423,test
512.6190185546875,3,4,1,5,0,2,M,0,1,2,0,1000,250.0,2,d27hrn,424,test
544.7840690612793,3,4,1,5,0,2,M,1,5,3,0,1000,250.0,5,d27hrn,425,test
512.6261711120605,3,4,1,5,0,2,M,1,3,0,0,1000,250.0,3,d27hrn,426,test
560.6429576873779,3,4,1,5,0,2,M,1,5,3,0,1000,250.0,5,d27hrn,427,test
688.6460781097412,3,4,1,5,0,2,M,1,2,5,0,1000,250.0,2,d27hrn,428,test
544.6321964263916,3,4,1,5,0,2,M,1,4,1,0,1000,250.0,4,d27hrn,429,test
528.5530090332031,3,4,1,5,0,2,M,1,2,5,0,1000,250.0,2,d27hrn,430,test
496.7761039733887,3,4,1,5,0,2,M,1,0,4,0,1000,250.0,0,d27hrn,431,test
480.78107833862305,3,4,1,5,0,2,M,1,5,3,0,1000,250.0,5,d27hrn,432,test
464.4639492034912,3,4,1,5,0,2,M,1,1,2,0,1000,250.0,1,d27hrn,433,test
448.58384132385254,3,4,1,5,0,2,M,1,4,1,0,1000,250.0,4,d27hrn,434,test
416.7828559875488,3,4,1,5,0,2,M,1,1,2,0,1000,250.0,1,d27hrn,435,test
513.3469104766846,3,4,1,5,0,2,M,0,2,5,0,1000,250.0,3,d27hrn,436,test
513.4119987487793,3,4,1,5,0,2,M,1,4,1,0,1000,250.0,4,d27hrn,437,test
545.3369617462158,3,4,1,5,0,2,M,1,2,5,0,1000,250.0,2,d27hrn,438,test
464.44201469421387,3,4,1,5,0,2,M,1,1,2,0,1000,250.0,1,d27hrn,439,test
433.23397636413574,3,4,1,5,0,2,M,1,1,2,0,1000,250.0,1,d27hrn,440,test
817.5058364868164,3,4,1,5,0,2,M,1,3,0,0,1000,250.0,3,d27hrn,441,test
497.30515480041504,3,4,1,5,0,2,M,1,0,4,0,1000,250.0,0,d27hrn,442,test
545.2120304107666,3,4,1,5,0,2,M,1,5,3,0,1000,250.0,5,d27hrn,443,test
465.24786949157715,3,4,1,5,0,2,M,1,1,2,0,1000,250.0,1,d27hrn,444,test
497.3471164703369,3,4,1,5,0,2,M,1,4,1,0,1000,250.0,4,d27hrn,445,test
497.21789360046387,3,4,1,5,0,2,M,1,0,4,0,1000,250.0,0,d27hrn,446,test
625.4079341888428,3,4,1,5,0,2,M,1,2,5,0,1000,250.0,2,d27hrn,447,test
433.2308769226074,3,4,1,5,0,2,M,1,0,4,0,1000,250.0,0,d27hrn,448,test
561.2719058990479,3,4,1,5,0,2,M,1,5,3,0,1000,250.0,5,d27hrn,449,test
593.3711528778076,3,4,1,5,0,2,M,1,2,5,0,1000,250.0,2,d27hrn,450,test
592.9739475250244,3,4,1,5,0,2,M,1,3,0,0,1000,250.0,3,d27hrn,451,test
496.8750476837158,3,4,1,5,0,2,M,1,2,5,0,1000,250.0,2,d27hrn,452,test
496.72412872314453,3,4,1,5,0,2,M,1,1,2,0,1000,250.0,1,d27hrn,453,test
480.7870388031006,3,4,1,5,0,2,M,1,5,3,0,1000,250.0,5,d27hrn,454,test
480.67188262939453,3,4,1,5,0,2,M,1,5,3,0,1000,250.0,5,d27hrn,455,test
528.723955154419,3,4,1,5,0,2,M,1,3,0,0,1000,250.0,3,d27hrn,456,test
448.73499870300293,3,4,1,5,0,2,M,1,0,4,0,1000,250.0,0,d27hrn,457,test
448.5809803009033,3,4,1,5,0,2,M,1,0,4,0,1000,250.0,0,d27hrn,458,test
480.90195655822754,3,4,1,5,0,2,M,1,5,3,0,1000,250.0,5,d27hrn,459,test
608.7639331817627,3,4,1,5,0,2,M,1,5,3,0,1000,250.0,5,d27hrn,460,test
544.7959899902344,3,4,1,5,0,2,M,0,2,5,0,1000,250.0,3,d27hrn,461,test
384.692907333374,3,4,1,5,0,2,M,1,2,5,0,1000,250.0,2,d27hrn,462,test
480.59892654418945,3,4,1,5,0,2,M,1,0,4,0,1000,250.0,0,d27hrn,463,test
464.6759033203125,3,4,1,5,0,2,M,1,0,4,0,1000,250.0,0,d27hrn,464,test
480.6029796600342,3,4,1,5,0,2,M,1,1,2,0,1000,250.0,1,d27hrn,465,test
432.5580596923828,3,4,1,5,0,2,M,1,0,4,0,1000,250.0,0,d27hrn,466,test
352.5879383087158,3,4,1,5,0,2,M,1,0,4,0,1000,250.0,0,d27hrn,467,test
448.6820697784424,3,4,1,5,0,2,M,1,2,5,0,1000,250.0,2,d27hrn,468,test
480.68690299987793,3,4,1,5,0,2,M,1,4,1,0,1000,250.0,4,d27hrn,469,test
560.8699321746826,3,4,1,5,0,2,M,1,3,0,0,1000,250.0,3,d27hrn,470,test
336.60387992858887,3,4,1,5,0,2,M,0,0,4,0,1000,250.0,2,d27hrn,471,test
480.7398319244385,3,4,1,5,0,2,M,1,4,1,0,1000,250.0,4,d27hrn,472,test
416.4149761199951,3,4,1,5,0,2,M,0,3,0,0,1000,250.0,5,d27hrn,473,test
528.7201404571533,3,4,1,5,0,2,M,1,2,5,0,1000,250.0,2,d27hrn,474,test
1408.6711406707764,3,4,1,5,0,2,M,1,3,0,0,1000,250.0,3,d27hrn,475,test
592.7200317382812,3,4,1,5,0,2,M,1,3,0,0,1000,250.0,3,d27hrn,476,test
480.65805435180664,3,4,1,5,0,2,M,1,1,2,0,1000,250.0,1,d27hrn,477,test
480.5920124053955,3,4,1,5,0,2,M,1,4,1,0,1000,250.0,4,d27hrn,478,test
624.6190071105957,3,4,1,5,0,2,M,1,4,1,0,1000,250.0,4,d27hrn,479,test
672.6350784301758,3,4,1,5,0,2,M,1,2,5,0,1000,250.0,2,d27hrn,480,test
544.564962387085,3,4,1,5,0,2,M,1,3,0,0,1000,250.0,3,d27hrn,481,test
480.70693016052246,3,4,1,5,0,2,M,1,4,1,0,1000,250.0,4,d27hrn,482,test
480.5788993835449,3,4,1,5,0,2,M,1,2,5,0,1000,250.0,2,d27hrn,483,test
592.5450325012207,3,4,1,5,0,2,M,1,3,0,0,1000,250.0,3,d27hrn,484,test
544.8520183563232,3,4,1,5,0,2,M,1,2,5,0,1000,250.0,2,d27hrn,485,test
496.7670440673828,3,4,1,5,0,2,M,1,0,4,0,1000,250.0,0,d27hrn,486,test
496.86479568481445,3,4,1,5,0,2,M,1,4,1,0,1000,250.0,4,d27hrn,487,test
544.6970462799072,3,4,1,5,0,2,M,1,2,5,0,1000,250.0,2,d27hrn,488,test
464.81895446777344,3,4,1,5,0,2,M,1,2,5,0,1000,250.0,2,d27hrn,489,test
464.6008014678955,3,4,1,5,0,2,M,1,0,4,0,1000,250.0,0,d27hrn,490,test
480.70812225341797,3,4,1,5,0,2,M,1,1,2,0,1000,250.0,1,d27hrn,491,test
480.5619716644287,3,4,1,5,0,2,M,1,0,4,0,1000,250.0,0,d27hrn,492,test
496.8152046203613,3,4,1,5,0,2,M,1,5,3,0,1000,250.0,5,d27hrn,493,test
448.67992401123047,3,4,1,5,0,2,M,1,0,4,0,1000,250.0,0,d27hrn,494,test
576.6119956970215,3,4,1,5,0,2,M,1,2,5,0,1000,250.0,2,d27hrn,495,test
384.7241401672363,3,4,1,5,0,2,M,1,0,4,0,1000,250.0,0,d27hrn,496,test
416.51201248168945,3,4,1,5,0,2,M,1,0,4,0,1000,250.0,0,d27hrn,497,test
417.1431064605713,3,4,1,5,0,2,M,1,4,1,0,1000,250.0,4,d27hrn,498,test
401.0939598083496,3,4,1,5,0,2,M,0,2,5,0,1000,250.0,0,d27hrn,499,test
