RT,SRmap_0,SRmap_1,SRmap_2,SRmap_3,SRmap_4,SRmap_5,condition,correct,correct_response,curstim,ms-precue,ms-prestimblank,ntrials,response,subject,trial,type
8976.362943649292,0,4,3,2,5,1,H-,1,3,2,0,1000,250.0,3,D16WJ,0,train
3136.5509033203125,0,4,3,2,5,1,H-,1,2,3,0,1000,250.0,2,D16WJ,1,train
1680.9959411621094,0,4,3,2,5,1,H-,1,4,1,0,1000,250.0,4,D16WJ,2,train
3056.509017944336,0,4,3,2,5,1,H-,1,0,0,0,1000,250.0,0,D16WJ,3,train
1824.6209621429443,0,4,3,2,5,1,H-,1,0,0,0,1000,250.0,0,D16WJ,4,train
864.5999431610107,0,4,3,2,5,1,H-,1,0,0,0,1000,250.0,0,D16WJ,5,train
1600.7869243621826,0,4,3,2,5,1,H-,1,4,1,0,1000,250.0,4,D16WJ,6,train
816.756010055542,0,4,3,2,5,1,H-,1,4,1,0,1000,250.0,4,D16WJ,7,train
912.9970073699951,0,4,3,2,5,1,H-,1,5,4,0,1000,250.0,5,D16WJ,8,train
865.0519847869873,0,4,3,2,5,1,H-,1,5,4,0,1000,250.0,5,D16WJ,9,train
848.9830493927002,0,4,3,2,5,1,H-,1,4,1,0,1000,250.0,4,D16WJ,10,train
1681.1599731445312,0,4,3,2,5,1,H-,1,1,5,0,1000,250.0,1,D16WJ,11,train
1712.9991054534912,0,4,3,2,5,1,H-,0,1,5,0,1000,250.0,0,D16WJ,12,train
2192.42000579834,0,4,3,2,5,1,H-,1,3,2,0,1000,250.0,3,D16WJ,13,train
944.7948932647705,0,4,3,2,5,1,H-,1,3,2,0,1000,250.0,3,D16WJ,14,train
2544.7540283203125,0,4,3,2,5,1,H-,0,1,5,0,1000,250.0,0,D16WJ,15,train
1616.5449619293213,0,4,3,2,5,1,H-,1,4,1,0,1000,250.0,4,D16WJ,16,train
2208.6219787597656,0,4,3,2,5,1,H-,1,0,0,0,1000,250.0,0,D16WJ,17,train
3920.498847961426,0,4,3,2,5,1,H-,1,5,4,0,1000,250.0,5,D16WJ,18,train
2656.611919403076,0,4,3,2,5,1,H-,1,1,5,0,1000,250.0,1,D16WJ,19,train
1472.618818283081,0,4,3,2,5,1,H-,1,5,4,0,1000,250.0,5,D16WJ,20,train
1296.5388298034668,0,4,3,2,5,1,H-,1,4,1,0,1000,250.0,4,D16WJ,21,train
1904.731035232544,0,4,3,2,5,1,H-,1,1,5,0,1000,250.0,1,D16WJ,22,train
1728.6670207977295,0,4,3,2,5,1,H-,1,2,3,0,1000,250.0,2,D16WJ,23,train
1408.5748195648193,0,4,3,2,5,1,H-,1,0,0,0,1000,250.0,0,D16WJ,24,train
848.6499786376953,0,4,3,2,5,1,H-,1,4,1,0,1000,250.0,4,D16WJ,25,train
896.461009979248,0,4,3,2,5,1,H-,1,3,2,0,1000,250.0,3,D16WJ,26,train
784.6450805664062,0,4,3,2,5,1,H-,1,4,1,0,1000,250.0,4,D16WJ,27,train
1360.5430126190186,0,4,3,2,5,1,H-,1,1,5,0,1000,250.0,1,D16WJ,28,train
880.6948661804199,0,4,3,2,5,1,H-,1,5,4,0,1000,250.0,5,D16WJ,29,train
1024.6670246124268,0,4,3,2,5,1,H-,1,3,2,0,1000,250.0,3,D16WJ,30,train
816.6370391845703,0,4,3,2,5,1,H-,1,5,4,0,1000,250.0,5,D16WJ,31,train
912.4581813812256,0,4,3,2,5,1,H-,1,0,0,0,1000,250.0,0,D16WJ,32,train
1056.5509796142578,0,4,3,2,5,1,H-,1,1,5,0,1000,250.0,1,D16WJ,33,train
944.5748329162598,0,4,3,2,5,1,H-,1,3,2,0,1000,250.0,3,D16WJ,34,train
688.3440017700195,0,4,3,2,5,1,H-,1,5,4,0,1000,250.0,5,D16WJ,35,train
800.2331256866455,0,4,3,2,5,1,H-,1,3,2,0,1000,250.0,3,D16WJ,36,train
1056.8668842315674,0,4,3,2,5,1,H-,1,0,0,0,1000,250.0,0,D16WJ,37,train
704.8449516296387,0,4,3,2,5,1,H-,1,5,4,0,1000,250.0,5,D16WJ,38,train
608.6850166320801,0,4,3,2,5,1,H-,1,3,2,0,1000,250.0,3,D16WJ,39,train
640.6571865081787,0,4,3,2,5,1,H-,1,3,2,0,1000,250.0,3,D16WJ,40,train
848.3049869537354,0,4,3,2,5,1,H-,1,4,1,0,1000,250.0,4,D16WJ,41,train
1008.620023727417,0,4,3,2,5,1,H-,1,1,5,0,1000,250.0,1,D16WJ,42,train
672.2900867462158,0,4,3,2,5,1,H-,1,3,2,0,1000,250.0,3,D16WJ,43,train
624.7031688690186,0,4,3,2,5,1,H-,1,5,4,0,1000,250.0,5,D16WJ,44,train
464.6899700164795,0,4,3,2,5,1,H-,1,4,1,0,1000,250.0,4,D16WJ,45,train
560.2259635925293,0,4,3,2,5,1,H-,1,5,4,0,1000,250.0,5,D16WJ,46,train
720.7140922546387,0,4,3,2,5,1,H-,1,5,4,0,1000,250.0,5,D16WJ,47,train
960.7491493225098,0,4,3,2,5,1,H-,1,2,3,0,1000,250.0,2,D16WJ,48,train
784.674882888794,0,4,3,2,5,1,H-,1,2,3,0,1000,250.0,2,D16WJ,49,train
416.74017906188965,0,4,3,2,5,1,H-,1,2,3,0,1000,250.0,2,D16WJ,50,train
657.2120189666748,0,4,3,2,5,1,H-,1,3,2,0,1000,250.0,3,D16WJ,51,train
608.4039211273193,0,4,3,2,5,1,H-,1,5,4,0,1000,250.0,5,D16WJ,52,train
960.5491161346436,0,4,3,2,5,1,H-,1,0,0,0,1000,250.0,0,D16WJ,53,train
720.2401161193848,0,4,3,2,5,1,H-,1,1,5,0,1000,250.0,1,D16WJ,54,train
1552.7799129486084,0,4,3,2,5,1,H-,1,2,3,0,1000,250.0,2,D16WJ,55,train
992.4418926239014,0,4,3,2,5,1,H-,1,0,0,0,1000,250.0,0,D16WJ,56,train
752.2430419921875,0,4,3,2,5,1,H-,1,2,3,0,1000,250.0,2,D16WJ,57,train
544.1429615020752,0,4,3,2,5,1,H-,1,0,0,0,1000,250.0,0,D16WJ,58,train
816.6420459747314,0,4,3,2,5,1,H-,1,2,3,0,1000,250.0,2,D16WJ,59,train
864.5889759063721,0,4,3,2,5,1,H-,1,1,5,0,1000,250.0,1,D16WJ,60,train
624.7069835662842,0,4,3,2,5,1,H-,1,2,3,0,1000,250.0,2,D16WJ,61,train
640.3639316558838,0,4,3,2,5,1,H-,1,0,0,0,1000,250.0,0,D16WJ,62,train
736.3638877868652,0,4,3,2,5,1,H-,1,2,3,0,1000,250.0,2,D16WJ,63,train
559.2918395996094,0,4,3,2,5,1,H-,1,5,4,0,1000,250.0,5,D16WJ,64,train
864.3219470977783,0,4,3,2,5,1,H-,1,1,5,0,1000,250.0,1,D16WJ,65,train
672.3558902740479,0,4,3,2,5,1,H-,1,1,5,0,1000,250.0,1,D16WJ,66,train
560.7900619506836,0,4,3,2,5,1,H-,1,2,3,0,1000,250.0,2,D16WJ,67,train
784.6691608428955,0,4,3,2,5,1,H-,1,1,5,0,1000,250.0,1,D16WJ,68,train
528.4411907196045,0,4,3,2,5,1,H-,1,2,3,0,1000,250.0,2,D16WJ,69,train
688.4341239929199,0,4,3,2,5,1,H-,1,1,5,0,1000,250.0,1,D16WJ,70,train
560.5850219726562,0,4,3,2,5,1,H-,1,0,0,0,1000,250.0,0,D16WJ,71,train
656.6569805145264,0,4,3,2,5,1,H-,1,4,1,0,1000,250.0,4,D16WJ,72,train
976.4289855957031,0,4,3,2,5,1,H-,1,1,5,0,1000,250.0,1,D16WJ,73,train
480.21793365478516,0,4,3,2,5,1,H-,1,2,3,0,1000,250.0,2,D16WJ,74,train
576.7159461975098,0,4,3,2,5,1,H-,1,2,3,0,1000,250.0,2,D16WJ,75,train
545.1860427856445,0,4,3,2,5,1,H-,1,5,4,0,1000,250.0,5,D16WJ,76,train
624.7458457946777,0,4,3,2,5,1,H-,1,3,2,0,1000,250.0,3,D16WJ,77,train
448.991060256958,0,4,3,2,5,1,H-,1,4,1,0,1000,250.0,4,D16WJ,78,train
609.1690063476562,0,4,3,2,5,1,H-,1,2,3,0,1000,250.0,2,D16WJ,79,train
496.69814109802246,0,4,3,2,5,1,H-,1,2,3,0,1000,250.0,2,D16WJ,80,train
576.6520500183105,0,4,3,2,5,1,H-,1,1,5,0,1000,250.0,1,D16WJ,81,train
481.14609718322754,0,4,3,2,5,1,H-,1,1,5,0,1000,250.0,1,D16WJ,82,train
497.18213081359863,0,4,3,2,5,1,H-,1,5,4,0,1000,250.0,5,D16WJ,83,train
513.1001472473145,0,4,3,2,5,1,H-,1,2,3,0,1000,250.0,2,D16WJ,84,train
528.810977935791,0,4,3,2,5,1,H-,1,0,0,0,1000,250.0,0,D16WJ,85,train
497.1640110015869,0,4,3,2,5,1,H-,1,2,3,0,1000,250.0,2,D16WJ,86,train
496.9439506530762,0,4,3,2,5,1,H-,1,5,4,0,1000,250.0,5,D16WJ,87,train
528.5301208496094,0,4,3,2,5,1,H-,1,2,3,0,1000,250.0,2,D16WJ,88,train
544.5959568023682,0,4,3,2,5,1,H-,1,5,4,0,1000,250.0,5,D16WJ,89,train
657.6747894287109,0,4,3,2,5,1,H-,1,1,5,0,1000,250.0,1,D16WJ,90,train
544.3971157073975,0,4,3,2,5,1,H-,1,3,2,0,1000,250.0,3,D16WJ,91,train
544.4900989532471,0,4,3,2,5,1,H-,1,4,1,0,1000,250.0,4,D16WJ,92,train
816.9341087341309,0,4,3,2,5,1,H-,1,1,5,0,1000,250.0,1,D16WJ,93,train
608.544111251831,0,4,3,2,5,1,H-,1,2,3,0,1000,250.0,2,D16WJ,94,train
512.4480724334717,0,4,3,2,5,1,H-,1,5,4,0,1000,250.0,5,D16WJ,95,train
576.6592025756836,0,4,3,2,5,1,H-,1,0,0,0,1000,250.0,0,D16WJ,96,train
512.7010345458984,0,4,3,2,5,1,H-,1,5,4,0,1000,250.0,5,D16WJ,97,train
512.6791000366211,0,4,3,2,5,1,H-,1,3,2,0,1000,250.0,3,D16WJ,98,train
672.7590560913086,0,4,3,2,5,1,H-,1,1,5,0,1000,250.0,1,D16WJ,99,train
544.7080135345459,0,4,3,2,5,1,H-,1,0,0,0,1000,250.0,0,D16WJ,100,train
848.7200736999512,0,4,3,2,5,1,H-,0,1,5,0,1000,250.0,0,D16WJ,101,train
816.5631294250488,0,4,3,2,5,1,H-,1,1,5,0,1000,250.0,1,D16WJ,102,train
544.5711612701416,0,4,3,2,5,1,H-,1,3,2,0,1000,250.0,3,D16WJ,103,train
512.8381252288818,0,4,3,2,5,1,H-,1,5,4,0,1000,250.0,5,D16WJ,104,train
800.7769584655762,0,4,3,2,5,1,H-,1,0,0,0,1000,250.0,0,D16WJ,105,train
624.6898174285889,0,4,3,2,5,1,H-,1,4,1,0,1000,250.0,4,D16WJ,106,train
1024.918794631958,0,4,3,2,5,1,H-,1,0,0,0,1000,250.0,0,D16WJ,107,train
704.7197818756104,0,4,3,2,5,1,H-,1,2,3,0,1000,250.0,2,D16WJ,108,train
688.568115234375,0,4,3,2,5,1,H-,1,4,1,0,1000,250.0,4,D16WJ,109,train
672.8000640869141,0,4,3,2,5,1,H-,1,2,3,0,1000,250.0,2,D16WJ,110,train
832.7529430389404,0,4,3,2,5,1,H-,1,1,5,0,1000,250.0,1,D16WJ,111,train
720.6871509552002,0,4,3,2,5,1,H-,1,0,0,0,1000,250.0,0,D16WJ,112,train
608.25514793396,0,4,3,2,5,1,H-,1,2,3,0,1000,250.0,2,D16WJ,113,train
545.1490879058838,0,4,3,2,5,1,H-,1,3,2,0,1000,250.0,3,D16WJ,114,train
625.208854675293,0,4,3,2,5,1,H-,1,0,0,0,1000,250.0,0,D16WJ,115,train
497.1640110015869,0,4,3,2,5,1,H-,1,4,1,0,1000,250.0,4,D16WJ,116,train
848.9880561828613,0,4,3,2,5,1,H-,1,0,0,0,1000,250.0,0,D16WJ,117,train
529.2971134185791,0,4,3,2,5,1,H-,0,0,0,0,1000,250.0,3,D16WJ,118,train
1264.1651630401611,0,4,3,2,5,1,H-,1,0,0,0,1000,250.0,0,D16WJ,119,train
768.9919471740723,0,4,3,2,5,1,H-,1,5,4,0,1000,250.0,5,D16WJ,120,train
993.1638240814209,0,4,3,2,5,1,H-,1,1,5,0,1000,250.0,1,D16WJ,121,train
688.8010501861572,0,4,3,2,5,1,H-,1,2,3,0,1000,250.0,2,D16WJ,122,train
625.0760555267334,0,4,3,2,5,1,H-,1,5,4,0,1000,250.0,5,D16WJ,123,train
529.1430950164795,0,4,3,2,5,1,H-,1,4,1,0,1000,250.0,4,D16WJ,124,train
481.0910224914551,0,4,3,2,5,1,H-,1,3,2,0,1000,250.0,3,D16WJ,125,train
512.8059387207031,0,4,3,2,5,1,H-,1,4,1,0,1000,250.0,4,D16WJ,126,train
481.0490608215332,0,4,3,2,5,1,H-,1,5,4,0,1000,250.0,5,D16WJ,127,train
640.5138969421387,0,4,3,2,5,1,H-,1,2,3,0,1000,250.0,2,D16WJ,128,train
880.7041645050049,0,4,3,2,5,1,H-,1,2,3,0,1000,250.0,2,D16WJ,129,train
816.5509700775146,0,4,3,2,5,1,H-,1,1,5,0,1000,250.0,1,D16WJ,130,train
848.7339019775391,0,4,3,2,5,1,H-,1,1,5,0,1000,250.0,1,D16WJ,131,train
624.8021125793457,0,4,3,2,5,1,H-,1,0,0,0,1000,250.0,0,D16WJ,132,train
816.4739608764648,0,4,3,2,5,1,H-,1,1,5,0,1000,250.0,1,D16WJ,133,train
624.8500347137451,0,4,3,2,5,1,H-,0,1,5,0,1000,250.0,4,D16WJ,134,train
592.5838947296143,0,4,3,2,5,1,H-,1,3,2,0,1000,250.0,3,D16WJ,135,train
544.5408821105957,0,4,3,2,5,1,H-,1,5,4,0,1000,250.0,5,D16WJ,136,train
496.6111183166504,0,4,3,2,5,1,H-,1,5,4,0,1000,250.0,5,D16WJ,137,train
752.6681423187256,0,4,3,2,5,1,H-,1,0,0,0,1000,250.0,0,D16WJ,138,train
496.57392501831055,0,4,3,2,5,1,H-,1,0,0,0,1000,250.0,0,D16WJ,139,train
512.7930641174316,0,4,3,2,5,1,H-,1,3,2,0,1000,250.0,3,D16WJ,140,train
880.7320594787598,0,4,3,2,5,1,H-,1,1,5,0,1000,250.0,1,D16WJ,141,train
640.5069828033447,0,4,3,2,5,1,H-,1,0,0,0,1000,250.0,0,D16WJ,142,train
576.6899585723877,0,4,3,2,5,1,H-,1,4,1,0,1000,250.0,4,D16WJ,143,train
656.7859649658203,0,4,3,2,5,1,H-,1,2,3,0,1000,250.0,2,D16WJ,144,train
560.7039928436279,0,4,3,2,5,1,H-,1,2,3,0,1000,250.0,2,D16WJ,145,train
512.6898288726807,0,4,3,2,5,1,H-,1,3,2,0,1000,250.0,3,D16WJ,146,train
608.7369918823242,0,4,3,2,5,1,H-,1,5,4,0,1000,250.0,5,D16WJ,147,train
592.5779342651367,0,4,3,2,5,1,H-,1,3,2,0,1000,250.0,3,D16WJ,148,train
608.7329387664795,0,4,3,2,5,1,H-,1,0,0,0,1000,250.0,0,D16WJ,149,train
497.0719814300537,0,4,3,2,5,1,H-,1,0,0,0,1000,250.0,0,D16WJ,150,train
529.1850566864014,0,4,3,2,5,1,H-,1,4,1,0,1000,250.0,4,D16WJ,151,train
496.6440200805664,0,4,3,2,5,1,H-,1,4,1,0,1000,250.0,4,D16WJ,152,train
448.61698150634766,0,4,3,2,5,1,H-,1,5,4,0,1000,250.0,5,D16WJ,153,train
416.63599014282227,0,4,3,2,5,1,H-,1,5,4,0,1000,250.0,5,D16WJ,154,train
448.64392280578613,0,4,3,2,5,1,H-,1,3,2,0,1000,250.0,3,D16WJ,155,train
496.690034866333,0,4,3,2,5,1,H-,1,5,4,0,1000,250.0,5,D16WJ,156,train
496.6261386871338,0,4,3,2,5,1,H-,1,5,4,0,1000,250.0,5,D16WJ,157,train
480.7720184326172,0,4,3,2,5,1,H-,1,4,1,0,1000,250.0,4,D16WJ,158,train
609.1830730438232,0,4,3,2,5,1,H-,1,2,3,0,1000,250.0,2,D16WJ,159,train
433.7778091430664,0,4,3,2,5,1,H-,1,3,2,0,1000,250.0,3,D16WJ,160,train
560.8060359954834,0,4,3,2,5,1,H-,1,2,3,0,1000,250.0,2,D16WJ,161,train
481.173038482666,0,4,3,2,5,1,H-,1,3,2,0,1000,250.0,3,D16WJ,162,train
480.56888580322266,0,4,3,2,5,1,H-,1,4,1,0,1000,250.0,4,D16WJ,163,train
496.54603004455566,0,4,3,2,5,1,H-,1,5,4,0,1000,250.0,5,D16WJ,164,train
480.94987869262695,0,4,3,2,5,1,H-,1,3,2,0,1000,250.0,3,D16WJ,165,train
593.1329727172852,0,4,3,2,5,1,H-,1,0,0,0,1000,250.0,0,D16WJ,166,train
513.1220817565918,0,4,3,2,5,1,H-,1,4,1,0,1000,250.0,4,D16WJ,167,train
593.101978302002,0,4,3,2,5,1,H-,1,2,3,0,1000,250.0,2,D16WJ,168,train
529.1078090667725,0,4,3,2,5,1,H-,1,0,0,0,1000,250.0,0,D16WJ,169,train
577.1160125732422,0,4,3,2,5,1,H-,1,0,0,0,1000,250.0,0,D16WJ,170,train
545.1350212097168,0,4,3,2,5,1,H-,1,4,1,0,1000,250.0,4,D16WJ,171,train
449.1000175476074,0,4,3,2,5,1,H-,1,4,1,0,1000,250.0,4,D16WJ,172,train
497.12109565734863,0,4,3,2,5,1,H-,1,3,2,0,1000,250.0,3,D16WJ,173,train
545.1579093933105,0,4,3,2,5,1,H-,1,0,0,0,1000,250.0,0,D16WJ,174,train
657.1638584136963,0,4,3,2,5,1,H-,0,1,5,0,1000,250.0,2,D16WJ,175,train
512.5439167022705,0,4,3,2,5,1,H-,1,5,4,0,1000,250.0,5,D16WJ,176,train
833.1048488616943,0,4,3,2,5,1,H-,1,1,5,0,1000,250.0,1,D16WJ,177,train
544.6319580078125,0,4,3,2,5,1,H-,1,2,3,0,1000,250.0,2,D16WJ,178,train
1328.5629749298096,0,4,3,2,5,1,H-,1,5,4,0,1000,250.0,5,D16WJ,179,train
464.69783782958984,0,4,3,2,5,1,H-,1,4,1,0,1000,250.0,4,D16WJ,180,train
480.65185546875,0,4,3,2,5,1,H-,1,5,4,0,1000,250.0,5,D16WJ,181,train
816.540002822876,0,4,3,2,5,1,H-,1,1,5,0,1000,250.0,1,D16WJ,182,train
496.63496017456055,0,4,3,2,5,1,H-,1,3,2,0,1000,250.0,3,D16WJ,183,train
528.7480354309082,0,4,3,2,5,1,H-,1,4,1,0,1000,250.0,4,D16WJ,184,train
528.6409854888916,0,4,3,2,5,1,H-,1,3,2,0,1000,250.0,3,D16WJ,185,train
640.6188011169434,0,4,3,2,5,1,H-,1,2,3,0,1000,250.0,2,D16WJ,186,train
480.6830883026123,0,4,3,2,5,1,H-,1,4,1,0,1000,250.0,4,D16WJ,187,train
688.6358261108398,0,4,3,2,5,1,H-,1,0,0,0,1000,250.0,0,D16WJ,188,train
640.7170295715332,0,4,3,2,5,1,H-,1,2,3,0,1000,250.0,2,D16WJ,189,train
480.8480739593506,0,4,3,2,5,1,H-,1,3,2,0,1000,250.0,3,D16WJ,190,train
2049.067974090576,0,4,3,2,5,1,H-,1,2,3,0,1000,250.0,2,D16WJ,191,train
641.0210132598877,0,4,3,2,5,1,H-,1,1,5,0,1000,250.0,1,D16WJ,192,train
1233.102798461914,0,4,3,2,5,1,H-,1,1,5,0,1000,250.0,1,D16WJ,193,train
529.1521549224854,0,4,3,2,5,1,H-,1,0,0,0,1000,250.0,0,D16WJ,194,train
577.131986618042,0,4,3,2,5,1,H-,1,4,1,0,1000,250.0,4,D16WJ,195,train
849.2438793182373,0,4,3,2,5,1,H-,1,1,5,0,1000,250.0,1,D16WJ,196,train
593.0359363555908,0,4,3,2,5,1,H-,1,1,5,0,1000,250.0,1,D16WJ,197,train
480.44514656066895,0,4,3,2,5,1,H-,1,5,4,0,1000,250.0,5,D16WJ,198,train
880.6271553039551,0,4,3,2,5,1,H-,1,2,3,0,1000,250.0,2,D16WJ,199,train
640.7561302185059,0,4,3,2,5,1,H-,1,0,0,0,1000,250.0,0,D16WJ,200,train
544.6720123291016,0,4,3,2,5,1,H-,1,3,2,0,1000,250.0,3,D16WJ,201,train
720.5557823181152,0,4,3,2,5,1,H-,1,1,5,0,1000,250.0,1,D16WJ,202,train
432.7390193939209,0,4,3,2,5,1,H-,1,5,4,0,1000,250.0,5,D16WJ,203,train
928.8299083709717,0,4,3,2,5,1,H-,1,1,5,0,1000,250.0,1,D16WJ,204,train
609.065055847168,0,4,3,2,5,1,H-,1,1,5,0,1000,250.0,1,D16WJ,205,train
545.1529026031494,0,4,3,2,5,1,H-,1,3,2,0,1000,250.0,3,D16WJ,206,train
624.8600482940674,0,4,3,2,5,1,H-,1,2,3,0,1000,250.0,2,D16WJ,207,train
512.9449367523193,0,4,3,2,5,1,H-,1,3,2,0,1000,250.0,3,D16WJ,208,train
688.9181137084961,0,4,3,2,5,1,H-,1,3,2,0,1000,250.0,3,D16WJ,209,train
688.6029243469238,0,4,3,2,5,1,H-,1,2,3,0,1000,250.0,2,D16WJ,210,train
496.6459274291992,0,4,3,2,5,1,H-,1,3,2,0,1000,250.0,3,D16WJ,211,train
672.4779605865479,0,4,3,2,5,1,H-,1,5,4,0,1000,250.0,5,D16WJ,212,train
544.6000099182129,0,4,3,2,5,1,H-,1,5,4,0,1000,250.0,5,D16WJ,213,train
448.5769271850586,0,4,3,2,5,1,H-,1,5,4,0,1000,250.0,5,D16WJ,214,train
656.843900680542,0,4,3,2,5,1,H-,1,0,0,0,1000,250.0,0,D16WJ,215,train
465.1050567626953,0,4,3,2,5,1,H-,1,5,4,0,1000,250.0,5,D16WJ,216,train
1041.0120487213135,0,4,3,2,5,1,H-,1,0,0,0,1000,250.0,0,D16WJ,217,train
849.2140769958496,0,4,3,2,5,1,H-,1,2,3,0,1000,250.0,2,D16WJ,218,train
449.16296005249023,0,4,3,2,5,1,H-,1,2,3,0,1000,250.0,2,D16WJ,219,train
449.1589069366455,0,4,3,2,5,1,H-,1,5,4,0,1000,250.0,5,D16WJ,220,train
576.7898559570312,0,4,3,2,5,1,H-,1,1,5,0,1000,250.0,1,D16WJ,221,train
464.95699882507324,0,4,3,2,5,1,H-,1,3,2,0,1000,250.0,3,D16WJ,222,train
592.689037322998,0,4,3,2,5,1,H-,1,0,0,0,1000,250.0,0,D16WJ,223,train
433.4709644317627,0,4,3,2,5,1,H-,0,5,4,0,1000,250.0,3,D16WJ,224,train
896.3260650634766,0,4,3,2,5,1,H-,1,0,0,0,1000,250.0,0,D16WJ,225,train
1040.708065032959,0,4,3,2,5,1,H-,1,1,5,0,1000,250.0,1,D16WJ,226,train
528.2750129699707,0,4,3,2,5,1,H-,1,5,4,0,1000,250.0,5,D16WJ,227,train
1792.902946472168,0,4,3,2,5,1,H-,1,0,0,0,1000,250.0,0,D16WJ,228,train
577.1100521087646,0,4,3,2,5,1,H-,1,0,0,0,1000,250.0,0,D16WJ,229,train
545.1180934906006,0,4,3,2,5,1,H-,1,4,1,0,1000,250.0,4,D16WJ,230,train
624.8080730438232,0,4,3,2,5,1,H-,1,2,3,0,1000,250.0,2,D16WJ,231,train
496.6261386871338,0,4,3,2,5,1,H-,1,3,2,0,1000,250.0,3,D16WJ,232,train
448.63009452819824,0,4,3,2,5,1,H-,1,5,4,0,1000,250.0,5,D16WJ,233,train
528.9020538330078,0,4,3,2,5,1,H-,1,4,1,0,1000,250.0,4,D16WJ,234,train
609.1599464416504,0,4,3,2,5,1,H-,0,1,5,0,1000,250.0,2,D16WJ,235,train
528.8960933685303,0,4,3,2,5,1,H-,1,1,5,0,1000,250.0,1,D16WJ,236,train
544.8989868164062,0,4,3,2,5,1,H-,1,3,2,0,1000,250.0,3,D16WJ,237,train
497.1640110015869,0,4,3,2,5,1,H-,1,5,4,0,1000,250.0,5,D16WJ,238,train
657.0940017700195,0,4,3,2,5,1,H-,1,3,2,0,1000,250.0,3,D16WJ,239,train
1728.6770343780518,0,4,3,2,5,1,H-,1,2,3,0,1000,250.0,2,D16WJ,240,train
528.9740562438965,0,4,3,2,5,1,H-,1,4,1,0,1000,250.0,4,D16WJ,241,train
561.115026473999,0,4,3,2,5,1,H-,1,0,0,0,1000,250.0,0,D16WJ,242,train
1441.0161972045898,0,4,3,2,5,1,H-,1,1,5,0,1000,250.0,1,D16WJ,243,train
528.4631252288818,0,4,3,2,5,1,H-,1,3,2,0,1000,250.0,3,D16WJ,244,train
784.6560478210449,0,4,3,2,5,1,H-,1,1,5,0,1000,250.0,1,D16WJ,245,train
391.7851448059082,0,4,3,2,5,1,H-,1,1,5,0,1000,250.0,1,D16WJ,246,train
528.6870002746582,0,4,3,2,5,1,H-,1,3,2,0,1000,250.0,3,D16WJ,247,train
688.662052154541,0,4,3,2,5,1,H-,1,2,3,0,1000,250.0,2,D16WJ,248,train
768.6760425567627,0,4,3,2,5,1,H-,1,1,5,0,1000,250.0,1,D16WJ,249,train
640.7079696655273,2,1,4,0,3,5,H-,0,1,1,0,1000,250.0,4,D16WJ,250,test
1936.6450309753418,2,1,4,0,3,5,H-,1,3,4,0,1000,250.0,3,D16WJ,251,test
608.5870265960693,2,1,4,0,3,5,H-,1,1,1,0,1000,250.0,1,D16WJ,252,test
1104.59303855896,2,1,4,0,3,5,H-,1,4,2,0,1000,250.0,4,D16WJ,253,test
672.6460456848145,2,1,4,0,3,5,H-,1,4,2,0,1000,250.0,4,D16WJ,254,test
496.671199798584,2,1,4,0,3,5,H-,1,4,2,0,1000,250.0,4,D16WJ,255,test
976.7720699310303,2,1,4,0,3,5,H-,0,2,0,0,1000,250.0,0,D16WJ,256,test
832.6117992401123,2,1,4,0,3,5,H-,1,4,2,0,1000,250.0,4,D16WJ,257,test
1168.8461303710938,2,1,4,0,3,5,H-,1,1,1,0,1000,250.0,1,D16WJ,258,test
832.6778411865234,2,1,4,0,3,5,H-,1,0,3,0,1000,250.0,0,D16WJ,259,test
944.5888996124268,2,1,4,0,3,5,H-,1,2,0,0,1000,250.0,2,D16WJ,260,test
544.5549488067627,2,1,4,0,3,5,H-,1,4,2,0,1000,250.0,4,D16WJ,261,test
832.737922668457,2,1,4,0,3,5,H-,1,3,4,0,1000,250.0,3,D16WJ,262,test
624.6910095214844,2,1,4,0,3,5,H-,1,4,2,0,1000,250.0,4,D16WJ,263,test
1456.5541744232178,2,1,4,0,3,5,H-,1,5,5,0,1000,250.0,5,D16WJ,264,test
560.6791973114014,2,1,4,0,3,5,H-,1,4,2,0,1000,250.0,4,D16WJ,265,test
544.7368621826172,2,1,4,0,3,5,H-,0,3,4,0,1000,250.0,5,D16WJ,266,test
1472.6991653442383,2,1,4,0,3,5,H-,1,2,0,0,1000,250.0,2,D16WJ,267,test
1168.6289310455322,2,1,4,0,3,5,H-,1,1,1,0,1000,250.0,1,D16WJ,268,test
912.7058982849121,2,1,4,0,3,5,H-,1,1,1,0,1000,250.0,1,D16WJ,269,test
672.6460456848145,2,1,4,0,3,5,H-,1,4,2,0,1000,250.0,4,D16WJ,270,test
1008.7149143218994,2,1,4,0,3,5,H-,1,0,3,0,1000,250.0,0,D16WJ,271,test
1184.6258640289307,2,1,4,0,3,5,H-,1,1,1,0,1000,250.0,1,D16WJ,272,test
1232.8400611877441,2,1,4,0,3,5,H-,1,3,4,0,1000,250.0,3,D16WJ,273,test
1009.0179443359375,2,1,4,0,3,5,H-,1,0,3,0,1000,250.0,0,D16WJ,274,test
752.7101039886475,2,1,4,0,3,5,H-,1,4,2,0,1000,250.0,4,D16WJ,275,test
593.1189060211182,2,1,4,0,3,5,H-,1,4,2,0,1000,250.0,4,D16WJ,276,test
833.0907821655273,2,1,4,0,3,5,H-,1,1,1,0,1000,250.0,1,D16WJ,277,test
657.1741104125977,2,1,4,0,3,5,H-,1,4,2,0,1000,250.0,4,D16WJ,278,test
977.1208763122559,2,1,4,0,3,5,H-,0,5,5,0,1000,250.0,2,D16WJ,279,test
1280.940055847168,2,1,4,0,3,5,H-,1,2,0,0,1000,250.0,2,D16WJ,280,test
1441.2050247192383,2,1,4,0,3,5,H-,1,0,3,0,1000,250.0,0,D16WJ,281,test
817.112922668457,2,1,4,0,3,5,H-,1,0,3,0,1000,250.0,0,D16WJ,282,test
1328.9108276367188,2,1,4,0,3,5,H-,1,3,4,0,1000,250.0,3,D16WJ,283,test
849.2238521575928,2,1,4,0,3,5,H-,1,2,0,0,1000,250.0,2,D16WJ,284,test
849.1370677947998,2,1,4,0,3,5,H-,1,0,3,0,1000,250.0,0,D16WJ,285,test
945.2130794525146,2,1,4,0,3,5,H-,1,2,0,0,1000,250.0,2,D16WJ,286,test
673.2211112976074,2,1,4,0,3,5,H-,1,2,0,0,1000,250.0,2,D16WJ,287,test
849.0710258483887,2,1,4,0,3,5,H-,1,0,3,0,1000,250.0,0,D16WJ,288,test
993.2689666748047,2,1,4,0,3,5,H-,1,1,1,0,1000,250.0,1,D16WJ,289,test
769.10400390625,2,1,4,0,3,5,H-,1,4,2,0,1000,250.0,4,D16WJ,290,test
1089.1809463500977,2,1,4,0,3,5,H-,1,5,5,0,1000,250.0,5,D16WJ,291,test
897.2060680389404,2,1,4,0,3,5,H-,1,1,1,0,1000,250.0,1,D16WJ,292,test
609.2209815979004,2,1,4,0,3,5,H-,1,4,2,0,1000,250.0,4,D16WJ,293,test
513.0400657653809,2,1,4,0,3,5,H-,1,4,2,0,1000,250.0,4,D16WJ,294,test
737.0638847351074,2,1,4,0,3,5,H-,1,2,0,0,1000,250.0,2,D16WJ,295,test
752.769947052002,2,1,4,0,3,5,H-,1,1,1,0,1000,250.0,1,D16WJ,296,test
608.7260246276855,2,1,4,0,3,5,H-,1,4,2,0,1000,250.0,4,D16WJ,297,test
512.7542018890381,2,1,4,0,3,5,H-,1,4,2,0,1000,250.0,4,D16WJ,298,test
1488.616943359375,2,1,4,0,3,5,H-,1,5,5,0,1000,250.0,5,D16WJ,299,test
1856.7790985107422,2,1,4,0,3,5,H-,1,2,0,0,1000,250.0,2,D16WJ,300,test
1024.7509479522705,2,1,4,0,3,5,H-,0,5,5,0,1000,250.0,2,D16WJ,301,test
864.6070957183838,2,1,4,0,3,5,H-,1,2,0,0,1000,250.0,2,D16WJ,302,test
592.7050113677979,2,1,4,0,3,5,H-,1,2,0,0,1000,250.0,2,D16WJ,303,test
896.6939449310303,2,1,4,0,3,5,H-,1,5,5,0,1000,250.0,5,D16WJ,304,test
592.6690101623535,2,1,4,0,3,5,H-,1,4,2,0,1000,250.0,4,D16WJ,305,test
1024.7809886932373,2,1,4,0,3,5,H-,1,5,5,0,1000,250.0,5,D16WJ,306,test
832.7319622039795,2,1,4,0,3,5,H-,0,3,4,0,1000,250.0,4,D16WJ,307,test
832.6499462127686,2,1,4,0,3,5,H-,1,1,1,0,1000,250.0,1,D16WJ,308,test
800.6391525268555,2,1,4,0,3,5,H-,1,0,3,0,1000,250.0,0,D16WJ,309,test
1152.6710987091064,2,1,4,0,3,5,H-,0,3,4,0,1000,250.0,2,D16WJ,310,test
688.6610984802246,2,1,4,0,3,5,H-,1,3,4,0,1000,250.0,3,D16WJ,311,test
1376.9230842590332,2,1,4,0,3,5,H-,1,0,3,0,1000,250.0,0,D16WJ,312,test
832.6361179351807,2,1,4,0,3,5,H-,1,3,4,0,1000,250.0,3,D16WJ,313,test
1520.5481052398682,2,1,4,0,3,5,H-,1,5,5,0,1000,250.0,5,D16WJ,314,test
785.6559753417969,2,1,4,0,3,5,H-,1,5,5,0,1000,250.0,5,D16WJ,315,test
704.5950889587402,2,1,4,0,3,5,H-,1,0,3,0,1000,250.0,0,D16WJ,316,test
1872.8001117706299,2,1,4,0,3,5,H-,1,3,4,0,1000,250.0,3,D16WJ,317,test
768.7239646911621,2,1,4,0,3,5,H-,1,1,1,0,1000,250.0,1,D16WJ,318,test
880.699872970581,2,1,4,0,3,5,H-,1,0,3,0,1000,250.0,0,D16WJ,319,test
864.7191524505615,2,1,4,0,3,5,H-,1,4,2,0,1000,250.0,4,D16WJ,320,test
800.7490634918213,2,1,4,0,3,5,H-,1,3,4,0,1000,250.0,3,D16WJ,321,test
609.1809272766113,2,1,4,0,3,5,H-,1,4,2,0,1000,250.0,4,D16WJ,322,test
737.2119426727295,2,1,4,0,3,5,H-,1,3,4,0,1000,250.0,3,D16WJ,323,test
752.6290416717529,2,1,4,0,3,5,H-,1,1,1,0,1000,250.0,1,D16WJ,324,test
592.7670001983643,2,1,4,0,3,5,H-,1,1,1,0,1000,250.0,1,D16WJ,325,test
1104.6531200408936,2,1,4,0,3,5,H-,1,2,0,0,1000,250.0,2,D16WJ,326,test
544.6329116821289,2,1,4,0,3,5,H-,1,1,1,0,1000,250.0,1,D16WJ,327,test
768.7661647796631,2,1,4,0,3,5,H-,1,1,1,0,1000,250.0,1,D16WJ,328,test
800.6129264831543,2,1,4,0,3,5,H-,1,1,1,0,1000,250.0,1,D16WJ,329,test
912.7590656280518,2,1,4,0,3,5,H-,1,4,2,0,1000,250.0,4,D16WJ,330,test
992.7098751068115,2,1,4,0,3,5,H-,1,3,4,0,1000,250.0,3,D16WJ,331,test
752.7420520782471,2,1,4,0,3,5,H-,1,0,3,0,1000,250.0,0,D16WJ,332,test
1280.714988708496,2,1,4,0,3,5,H-,1,2,0,0,1000,250.0,2,D16WJ,333,test
1360.7521057128906,2,1,4,0,3,5,H-,1,3,4,0,1000,250.0,3,D16WJ,334,test
608.6509227752686,2,1,4,0,3,5,H-,1,4,2,0,1000,250.0,4,D16WJ,335,test
464.65110778808594,2,1,4,0,3,5,H-,1,4,2,0,1000,250.0,4,D16WJ,336,test
560.7578754425049,2,1,4,0,3,5,H-,1,3,4,0,1000,250.0,3,D16WJ,337,test
496.74320220947266,2,1,4,0,3,5,H-,1,0,3,0,1000,250.0,0,D16WJ,338,test
608.5689067840576,2,1,4,0,3,5,H-,1,3,4,0,1000,250.0,3,D16WJ,339,test
832.6871395111084,2,1,4,0,3,5,H-,1,0,3,0,1000,250.0,0,D16WJ,340,test
608.7038516998291,2,1,4,0,3,5,H-,1,1,1,0,1000,250.0,1,D16WJ,341,test
528.6240577697754,2,1,4,0,3,5,H-,1,4,2,0,1000,250.0,4,D16WJ,342,test
592.7019119262695,2,1,4,0,3,5,H-,1,1,1,0,1000,250.0,1,D16WJ,343,test
672.7089881896973,2,1,4,0,3,5,H-,1,3,4,0,1000,250.0,3,D16WJ,344,test
656.6190719604492,2,1,4,0,3,5,H-,1,2,0,0,1000,250.0,2,D16WJ,345,test
912.592887878418,2,1,4,0,3,5,H-,1,0,3,0,1000,250.0,0,D16WJ,346,test
528.6810398101807,2,1,4,0,3,5,H-,1,4,2,0,1000,250.0,4,D16WJ,347,test
848.7560749053955,2,1,4,0,3,5,H-,1,3,4,0,1000,250.0,3,D16WJ,348,test
560.7328414916992,2,1,4,0,3,5,H-,1,4,2,0,1000,250.0,4,D16WJ,349,test
880.6858062744141,2,1,4,0,3,5,H-,1,4,2,0,1000,250.0,4,D16WJ,350,test
800.8019924163818,2,1,4,0,3,5,H-,1,2,0,0,1000,250.0,2,D16WJ,351,test
752.6519298553467,2,1,4,0,3,5,H-,1,4,2,0,1000,250.0,4,D16WJ,352,test
1120.6390857696533,2,1,4,0,3,5,H-,1,3,4,0,1000,250.0,3,D16WJ,353,test
144.65904235839844,2,1,4,0,3,5,H-,0,1,1,0,1000,250.0,3,D16WJ,354,test
1920.9961891174316,2,1,4,0,3,5,H-,1,5,5,0,1000,250.0,5,D16WJ,355,test
864.5870685577393,2,1,4,0,3,5,H-,1,3,4,0,1000,250.0,3,D16WJ,356,test
1712.6679420471191,2,1,4,0,3,5,H-,1,5,5,0,1000,250.0,5,D16WJ,357,test
544.7521209716797,2,1,4,0,3,5,H-,1,4,2,0,1000,250.0,4,D16WJ,358,test
1088.371992111206,2,1,4,0,3,5,H-,1,5,5,0,1000,250.0,5,D16WJ,359,test
704.6010494232178,2,1,4,0,3,5,H-,1,0,3,0,1000,250.0,0,D16WJ,360,test
496.7200756072998,2,1,4,0,3,5,H-,1,4,2,0,1000,250.0,4,D16WJ,361,test
880.6710243225098,2,1,4,0,3,5,H-,1,3,4,0,1000,250.0,3,D16WJ,362,test
768.6061859130859,2,1,4,0,3,5,H-,1,0,3,0,1000,250.0,0,D16WJ,363,test
720.4952239990234,2,1,4,0,3,5,H-,1,3,4,0,1000,250.0,3,D16WJ,364,test
656.7208766937256,2,1,4,0,3,5,H-,1,0,3,0,1000,250.0,0,D16WJ,365,test
608.6339950561523,2,1,4,0,3,5,H-,1,3,4,0,1000,250.0,3,D16WJ,366,test
608.6561679840088,2,1,4,0,3,5,H-,1,1,1,0,1000,250.0,1,D16WJ,367,test
496.76990509033203,2,1,4,0,3,5,H-,1,3,4,0,1000,250.0,3,D16WJ,368,test
944.7128772735596,2,1,4,0,3,5,H-,1,5,5,0,1000,250.0,5,D16WJ,369,test
624.6869564056396,2,1,4,0,3,5,H-,1,0,3,0,1000,250.0,0,D16WJ,370,test
608.6030006408691,2,1,4,0,3,5,H-,1,0,3,0,1000,250.0,0,D16WJ,371,test
528.7349224090576,2,1,4,0,3,5,H-,1,3,4,0,1000,250.0,3,D16WJ,372,test
560.4100227355957,2,1,4,0,3,5,H-,1,2,0,0,1000,250.0,2,D16WJ,373,test
512.8800868988037,2,1,4,0,3,5,H-,1,3,4,0,1000,250.0,3,D16WJ,374,test
528.7189483642578,2,1,4,0,3,5,H-,1,4,2,0,1000,250.0,4,D16WJ,375,test
784.7740650177002,2,1,4,0,3,5,H-,0,5,5,0,1000,250.0,0,D16WJ,376,test
880.2978992462158,2,1,4,0,3,5,H-,1,0,3,0,1000,250.0,0,D16WJ,377,test
48.490047454833984,2,1,4,0,3,5,H-,0,2,0,0,1000,250.0,0,D16WJ,378,test
768.7771320343018,2,1,4,0,3,5,H-,1,1,1,0,1000,250.0,1,D16WJ,379,test
737.1721267700195,2,1,4,0,3,5,H-,1,0,3,0,1000,250.0,0,D16WJ,380,test
1041.1851406097412,2,1,4,0,3,5,H-,0,5,5,0,1000,250.0,2,D16WJ,381,test
945.0719356536865,2,1,4,0,3,5,H-,1,1,1,0,1000,250.0,1,D16WJ,382,test
497.089147567749,2,1,4,0,3,5,H-,1,1,1,0,1000,250.0,1,D16WJ,383,test
592.6990509033203,2,1,4,0,3,5,H-,1,3,4,0,1000,250.0,3,D16WJ,384,test
704.7622203826904,2,1,4,0,3,5,H-,1,1,1,0,1000,250.0,1,D16WJ,385,test
448.7261772155762,2,1,4,0,3,5,H-,1,1,1,0,1000,250.0,1,D16WJ,386,test
384.6409320831299,2,1,4,0,3,5,H-,1,1,1,0,1000,250.0,1,D16WJ,387,test
1024.6760845184326,2,1,4,0,3,5,H-,1,5,5,0,1000,250.0,5,D16WJ,388,test
832.9370021820068,2,1,4,0,3,5,H-,1,3,4,0,1000,250.0,3,D16WJ,389,test
512.7599239349365,2,1,4,0,3,5,H-,1,1,1,0,1000,250.0,1,D16WJ,390,test
656.7459106445312,2,1,4,0,3,5,H-,1,2,0,0,1000,250.0,2,D16WJ,391,test
816.6542053222656,2,1,4,0,3,5,H-,1,4,2,0,1000,250.0,4,D16WJ,392,test
1600.5969047546387,2,1,4,0,3,5,H-,1,5,5,0,1000,250.0,5,D16WJ,393,test
624.6168613433838,2,1,4,0,3,5,H-,1,4,2,0,1000,250.0,4,D16WJ,394,test
672.7609634399414,2,1,4,0,3,5,H-,1,3,4,0,1000,250.0,3,D16WJ,395,test
480.5119037628174,2,1,4,0,3,5,H-,1,1,1,0,1000,250.0,1,D16WJ,396,test
640.6970024108887,2,1,4,0,3,5,H-,1,4,2,0,1000,250.0,4,D16WJ,397,test
816.7660236358643,2,1,4,0,3,5,H-,1,0,3,0,1000,250.0,0,D16WJ,398,test
1232.630968093872,2,1,4,0,3,5,H-,1,5,5,0,1000,250.0,5,D16WJ,399,test
576.7440795898438,2,1,4,0,3,5,H-,1,1,1,0,1000,250.0,1,D16WJ,400,test
624.6237754821777,2,1,4,0,3,5,H-,1,4,2,0,1000,250.0,4,D16WJ,401,test
688.697099685669,2,1,4,0,3,5,H-,1,2,0,0,1000,250.0,2,D16WJ,402,test
512.7959251403809,2,1,4,0,3,5,H-,1,4,2,0,1000,250.0,4,D16WJ,403,test
800.7209300994873,2,1,4,0,3,5,H-,1,0,3,0,1000,250.0,0,D16WJ,404,test
544.6410179138184,2,1,4,0,3,5,H-,1,3,4,0,1000,250.0,3,D16WJ,405,test
960.7019424438477,2,1,4,0,3,5,H-,1,0,3,0,1000,250.0,0,D16WJ,406,test
864.7539615631104,2,1,4,0,3,5,H-,1,0,3,0,1000,250.0,0,D16WJ,407,test
160.56299209594727,2,1,4,0,3,5,H-,0,1,1,0,1000,250.0,0,D16WJ,408,test
688.5972023010254,2,1,4,0,3,5,H-,1,0,3,0,1000,250.0,0,D16WJ,409,test
592.7531719207764,2,1,4,0,3,5,H-,1,3,4,0,1000,250.0,3,D16WJ,410,test
1104.7449111938477,2,1,4,0,3,5,H-,1,5,5,0,1000,250.0,5,D16WJ,411,test
784.6918106079102,2,1,4,0,3,5,H-,1,3,4,0,1000,250.0,3,D16WJ,412,test
784.7468852996826,2,1,4,0,3,5,H-,1,0,3,0,1000,250.0,0,D16WJ,413,test
624.5348453521729,2,1,4,0,3,5,H-,1,4,2,0,1000,250.0,4,D16WJ,414,test
912.7810001373291,2,1,4,0,3,5,H-,1,0,3,0,1000,250.0,0,D16WJ,415,test
1728.7328243255615,2,1,4,0,3,5,H-,1,1,1,0,1000,250.0,1,D16WJ,416,test
1856.6920757293701,2,1,4,0,3,5,H-,1,3,4,0,1000,250.0,3,D16WJ,417,test
976.7498970031738,2,1,4,0,3,5,H-,1,4,2,0,1000,250.0,4,D16WJ,418,test
1056.687831878662,2,1,4,0,3,5,H-,1,2,0,0,1000,250.0,2,D16WJ,419,test
736.624002456665,2,1,4,0,3,5,H-,0,3,4,0,1000,250.0,2,D16WJ,420,test
496.722936630249,2,1,4,0,3,5,H-,1,3,4,0,1000,250.0,3,D16WJ,421,test
431.7128658294678,2,1,4,0,3,5,H-,1,3,4,0,1000,250.0,3,D16WJ,422,test
752.6669502258301,2,1,4,0,3,5,H-,0,2,0,0,1000,250.0,1,D16WJ,423,test
304.72588539123535,2,1,4,0,3,5,H-,1,2,0,0,1000,250.0,2,D16WJ,424,test
960.7479572296143,2,1,4,0,3,5,H-,1,5,5,0,1000,250.0,5,D16WJ,425,test
560.6060028076172,2,1,4,0,3,5,H-,1,2,0,0,1000,250.0,2,D16WJ,426,test
624.4680881500244,2,1,4,0,3,5,H-,0,3,4,0,1000,250.0,5,D16WJ,427,test
287.75501251220703,2,1,4,0,3,5,H-,1,3,4,0,1000,250.0,3,D16WJ,428,test
528.5561084747314,2,1,4,0,3,5,H-,1,4,2,0,1000,250.0,4,D16WJ,429,test
1056.7340850830078,2,1,4,0,3,5,H-,1,0,3,0,1000,250.0,0,D16WJ,430,test
528.6309719085693,2,1,4,0,3,5,H-,1,0,3,0,1000,250.0,0,D16WJ,431,test
688.6930465698242,2,1,4,0,3,5,H-,1,2,0,0,1000,250.0,2,D16WJ,432,test
448.84204864501953,2,1,4,0,3,5,H-,1,2,0,0,1000,250.0,2,D16WJ,433,test
336.78603172302246,2,1,4,0,3,5,H-,1,2,0,0,1000,250.0,2,D16WJ,434,test
640.6838893890381,2,1,4,0,3,5,H-,1,0,3,0,1000,250.0,0,D16WJ,435,test
384.7470283508301,2,1,4,0,3,5,H-,1,0,3,0,1000,250.0,0,D16WJ,436,test
1696.73490524292,2,1,4,0,3,5,H-,1,5,5,0,1000,250.0,5,D16WJ,437,test
608.6158752441406,2,1,4,0,3,5,H-,1,2,0,0,1000,250.0,2,D16WJ,438,test
784.653902053833,2,1,4,0,3,5,H-,1,5,5,0,1000,250.0,5,D16WJ,439,test
592.6239490509033,2,1,4,0,3,5,H-,1,0,3,0,1000,250.0,0,D16WJ,440,test
528.7418365478516,2,1,4,0,3,5,H-,1,1,1,0,1000,250.0,1,D16WJ,441,test
496.6931343078613,2,1,4,0,3,5,H-,1,4,2,0,1000,250.0,4,D16WJ,442,test
560.8320236206055,2,1,4,0,3,5,H-,1,3,4,0,1000,250.0,3,D16WJ,443,test
720.6869125366211,2,1,4,0,3,5,H-,1,0,3,0,1000,250.0,0,D16WJ,444,test
400.6319046020508,2,1,4,0,3,5,H-,1,5,5,0,1000,250.0,5,D16WJ,445,test
480.71885108947754,2,1,4,0,3,5,H-,1,4,2,0,1000,250.0,4,D16WJ,446,test
1152.7349948883057,2,1,4,0,3,5,H-,1,5,5,0,1000,250.0,5,D16WJ,447,test
528.5611152648926,2,1,4,0,3,5,H-,1,4,2,0,1000,250.0,4,D16WJ,448,test
608.8528633117676,2,1,4,0,3,5,H-,1,0,3,0,1000,250.0,0,D16WJ,449,test
720.7629680633545,2,1,4,0,3,5,H-,1,5,5,0,1000,250.0,5,D16WJ,450,test
544.7180271148682,2,1,4,0,3,5,H-,1,0,3,0,1000,250.0,0,D16WJ,451,test
480.6809425354004,2,1,4,0,3,5,H-,1,0,3,0,1000,250.0,0,D16WJ,452,test
816.7390823364258,2,1,4,0,3,5,H-,1,2,0,0,1000,250.0,2,D16WJ,453,test
784.7120761871338,2,1,4,0,3,5,H-,1,5,5,0,1000,250.0,5,D16WJ,454,test
544.3630218505859,2,1,4,0,3,5,H-,1,0,3,0,1000,250.0,0,D16WJ,455,test
544.6748733520508,2,1,4,0,3,5,H-,1,3,4,0,1000,250.0,3,D16WJ,456,test
544.8129177093506,2,1,4,0,3,5,H-,1,0,3,0,1000,250.0,0,D16WJ,457,test
544.625997543335,2,1,4,0,3,5,H-,1,3,4,0,1000,250.0,3,D16WJ,458,test
496.7539310455322,2,1,4,0,3,5,H-,1,3,4,0,1000,250.0,3,D16WJ,459,test
848.761796951294,2,1,4,0,3,5,H-,1,2,0,0,1000,250.0,2,D16WJ,460,test
544.7211265563965,2,1,4,0,3,5,H-,1,0,3,0,1000,250.0,0,D16WJ,461,test
528.7590026855469,2,1,4,0,3,5,H-,1,0,3,0,1000,250.0,0,D16WJ,462,test
640.5858993530273,2,1,4,0,3,5,H-,1,4,2,0,1000,250.0,4,D16WJ,463,test
624.5360374450684,2,1,4,0,3,5,H-,1,0,3,0,1000,250.0,0,D16WJ,464,test
1088.4830951690674,2,1,4,0,3,5,H-,1,5,5,0,1000,250.0,5,D16WJ,465,test
1216.7539596557617,2,1,4,0,3,5,H-,1,2,0,0,1000,250.0,2,D16WJ,466,test
608.6938381195068,2,1,4,0,3,5,H-,1,0,3,0,1000,250.0,0,D16WJ,467,test
1553.2219409942627,2,1,4,0,3,5,H-,1,2,0,0,1000,250.0,2,D16WJ,468,test
592.6511287689209,2,1,4,0,3,5,H-,1,1,1,0,1000,250.0,1,D16WJ,469,test
688.291072845459,2,1,4,0,3,5,H-,1,0,3,0,1000,250.0,0,D16WJ,470,test
1360.6610298156738,2,1,4,0,3,5,H-,1,5,5,0,1000,250.0,5,D16WJ,471,test
752.791166305542,2,1,4,0,3,5,H-,1,5,5,0,1000,250.0,5,D16WJ,472,test
576.2128829956055,2,1,4,0,3,5,H-,1,0,3,0,1000,250.0,0,D16WJ,473,test
576.6880512237549,2,1,4,0,3,5,H-,1,2,0,0,1000,250.0,2,D16WJ,474,test
512.2840404510498,2,1,4,0,3,5,H-,1,2,0,0,1000,250.0,2,D16WJ,475,test
560.748815536499,2,1,4,0,3,5,H-,1,3,4,0,1000,250.0,3,D16WJ,476,test
512.7949714660645,2,1,4,0,3,5,H-,1,4,2,0,1000,250.0,4,D16WJ,477,test
801.1620044708252,2,1,4,0,3,5,H-,1,5,5,0,1000,250.0,5,D16WJ,478,test
704.8618793487549,2,1,4,0,3,5,H-,1,0,3,0,1000,250.0,0,D16WJ,479,test
736.626148223877,2,1,4,0,3,5,H-,1,0,3,0,1000,250.0,0,D16WJ,480,test
1088.6588096618652,2,1,4,0,3,5,H-,1,2,0,0,1000,250.0,2,D16WJ,481,test
1024.8198509216309,2,1,4,0,3,5,H-,1,1,1,0,1000,250.0,1,D16WJ,482,test
480.64303398132324,2,1,4,0,3,5,H-,1,1,1,0,1000,250.0,1,D16WJ,483,test
672.7550029754639,2,1,4,0,3,5,H-,1,0,3,0,1000,250.0,0,D16WJ,484,test
496.64306640625,2,1,4,0,3,5,H-,1,0,3,0,1000,250.0,0,D16WJ,485,test
928.7271499633789,2,1,4,0,3,5,H-,1,2,0,0,1000,250.0,2,D16WJ,486,test
656.6879749298096,2,1,4,0,3,5,H-,1,3,4,0,1000,250.0,3,D16WJ,487,test
1232.7461242675781,2,1,4,0,3,5,H-,1,5,5,0,1000,250.0,5,D16WJ,488,test
592.6318168640137,2,1,4,0,3,5,H-,1,3,4,0,1000,250.0,3,D16WJ,489,test
528.7280082702637,2,1,4,0,3,5,H-,1,4,2,0,1000,250.0,4,D16WJ,490,test
513.1280422210693,2,1,4,0,3,5,H-,1,1,1,0,1000,250.0,1,D16WJ,491,test
625.1311302185059,2,1,4,0,3,5,H-,1,2,0,0,1000,250.0,2,D16WJ,492,test
1312.608003616333,2,1,4,0,3,5,H-,1,0,3,0,1000,250.0,0,D16WJ,493,test
992.7079677581787,2,1,4,0,3,5,H-,1,5,5,0,1000,250.0,5,D16WJ,494,test
752.777099609375,2,1,4,0,3,5,H-,1,0,3,0,1000,250.0,0,D16WJ,495,test
544.7380542755127,2,1,4,0,3,5,H-,1,0,3,0,1000,250.0,0,D16WJ,496,test
688.7679100036621,2,1,4,0,3,5,H-,1,2,0,0,1000,250.0,2,D16WJ,497,test
416.5990352630615,2,1,4,0,3,5,H-,1,2,0,0,1000,250.0,2,D16WJ,498,test
512.6850605010986,2,1,4,0,3,5,H-,1,4,2,0,1000,250.0,4,D16WJ,499,test
