RT,SRmap_0,SRmap_1,SRmap_2,SRmap_3,SRmap_4,SRmap_5,condition,correct,correct_response,curstim,ms-precue,ms-prestimblank,ntrials,response,subject,trial,type
7418.233156204224,5,0,3,4,1,2,E+,1,1,4,400,600,250.0,1,C08YO,0,train
794.701099395752,5,0,3,4,1,2,E+,1,1,4,400,600,250.0,1,C08YO,1,train
426.8770217895508,5,0,3,4,1,2,E+,0,4,3,400,600,250.0,3,C08YO,2,train
58.81309509277344,5,0,3,4,1,2,E+,1,0,1,400,600,250.0,0,C08YO,3,train
26.823043823242188,5,0,3,4,1,2,E+,1,0,1,400,600,250.0,0,C08YO,4,train
506.85596466064453,5,0,3,4,1,2,E+,1,1,4,400,600,250.0,1,C08YO,5,train
122.81394004821777,5,0,3,4,1,2,E+,1,5,0,400,600,250.0,5,C08YO,6,train
298.9060878753662,5,0,3,4,1,2,E+,1,5,0,400,600,250.0,5,C08YO,7,train
218.69707107543945,5,0,3,4,1,2,E+,1,3,2,400,600,250.0,3,C08YO,8,train
26.822805404663086,5,0,3,4,1,2,E+,1,3,2,400,600,250.0,3,C08YO,9,train
74.87607002258301,5,0,3,4,1,2,E+,1,2,5,400,600,250.0,2,C08YO,10,train
362.67805099487305,5,0,3,4,1,2,E+,1,0,1,400,600,250.0,0,C08YO,11,train
74.84316825866699,5,0,3,4,1,2,E+,1,0,1,400,600,250.0,0,C08YO,12,train
122.83182144165039,5,0,3,4,1,2,E+,1,0,1,400,600,250.0,0,C08YO,13,train
42.970895767211914,5,0,3,4,1,2,E+,1,5,0,400,600,250.0,5,C08YO,14,train
523.813009262085,5,0,3,4,1,2,E+,1,4,3,400,600,250.0,4,C08YO,15,train
299.13997650146484,5,0,3,4,1,2,E+,1,5,0,400,600,250.0,5,C08YO,16,train
458.99391174316406,5,0,3,4,1,2,E+,1,4,3,400,600,250.0,4,C08YO,17,train
443.2239532470703,5,0,3,4,1,2,E+,1,5,0,400,600,250.0,5,C08YO,18,train
347.04017639160156,5,0,3,4,1,2,E+,1,3,2,400,600,250.0,3,C08YO,19,train
42.803049087524414,5,0,3,4,1,2,E+,1,1,4,400,600,250.0,1,C08YO,20,train
219.1150188446045,5,0,3,4,1,2,E+,1,3,2,400,600,250.0,3,C08YO,21,train
43.15996170043945,5,0,3,4,1,2,E+,1,4,3,400,600,250.0,4,C08YO,22,train
139.27006721496582,5,0,3,4,1,2,E+,1,2,5,400,600,250.0,2,C08YO,23,train
42.88601875305176,5,0,3,4,1,2,E+,1,0,1,400,600,250.0,0,C08YO,24,train
44.119834899902344,5,0,3,4,1,2,E+,1,0,1,400,600,250.0,0,C08YO,25,train
75.08206367492676,5,0,3,4,1,2,E+,1,1,4,400,600,250.0,1,C08YO,26,train
43.12920570373535,5,0,3,4,1,2,E+,1,4,3,400,600,250.0,4,C08YO,27,train
59.561967849731445,5,0,3,4,1,2,E+,1,1,4,400,600,250.0,1,C08YO,28,train
170.7141399383545,5,0,3,4,1,2,E+,1,3,2,400,600,250.0,3,C08YO,29,train
170.95208168029785,5,0,3,4,1,2,E+,1,3,2,400,600,250.0,3,C08YO,30,train
347.0609188079834,5,0,3,4,1,2,E+,1,3,2,400,600,250.0,3,C08YO,31,train
59.159040451049805,5,0,3,4,1,2,E+,1,5,0,400,600,250.0,5,C08YO,32,train
58.89296531677246,5,0,3,4,1,2,E+,1,0,1,400,600,250.0,0,C08YO,33,train
58.98880958557129,5,0,3,4,1,2,E+,1,2,5,400,600,250.0,2,C08YO,34,train
266.96109771728516,5,0,3,4,1,2,E+,1,4,3,400,600,250.0,4,C08YO,35,train
234.9390983581543,5,0,3,4,1,2,E+,1,5,0,400,600,250.0,5,C08YO,36,train
203.0179500579834,5,0,3,4,1,2,E+,1,0,1,400,600,250.0,0,C08YO,37,train
138.85998725891113,5,0,3,4,1,2,E+,1,2,5,400,600,250.0,2,C08YO,38,train
170.90797424316406,5,0,3,4,1,2,E+,1,3,2,400,600,250.0,3,C08YO,39,train
186.65194511413574,5,0,3,4,1,2,E+,1,1,4,400,600,250.0,1,C08YO,40,train
91.12787246704102,5,0,3,4,1,2,E+,1,5,0,400,600,250.0,5,C08YO,41,train
170.83501815795898,5,0,3,4,1,2,E+,1,3,2,400,600,250.0,3,C08YO,42,train
282.7122211456299,5,0,3,4,1,2,E+,1,4,3,400,600,250.0,4,C08YO,43,train
106.8270206451416,5,0,3,4,1,2,E+,1,5,0,400,600,250.0,5,C08YO,44,train
90.9421443939209,5,0,3,4,1,2,E+,1,2,5,400,600,250.0,2,C08YO,45,train
330.78598976135254,5,0,3,4,1,2,E+,1,5,0,400,600,250.0,5,C08YO,46,train
58.72678756713867,5,0,3,4,1,2,E+,1,3,2,400,600,250.0,3,C08YO,47,train
122.76887893676758,5,0,3,4,1,2,E+,1,0,1,400,600,250.0,0,C08YO,48,train
394.82712745666504,5,0,3,4,1,2,E+,1,3,2,400,600,250.0,3,C08YO,49,train
154.96397018432617,5,0,3,4,1,2,E+,1,5,0,400,600,250.0,5,C08YO,50,train
154.80399131774902,5,0,3,4,1,2,E+,1,2,5,400,600,250.0,2,C08YO,51,train
43.12491416931152,5,0,3,4,1,2,E+,1,5,0,400,600,250.0,5,C08YO,52,train
363.1260395050049,5,0,3,4,1,2,E+,1,5,0,400,600,250.0,5,C08YO,53,train
186.6910457611084,5,0,3,4,1,2,E+,0,4,3,400,600,250.0,3,C08YO,54,train
106.98199272155762,5,0,3,4,1,2,E+,1,4,3,400,600,250.0,4,C08YO,55,train
170.84312438964844,5,0,3,4,1,2,E+,1,1,4,400,600,250.0,1,C08YO,56,train
122.7569580078125,5,0,3,4,1,2,E+,1,2,5,400,600,250.0,2,C08YO,57,train
74.79190826416016,5,0,3,4,1,2,E+,1,0,1,400,600,250.0,0,C08YO,58,train
171.16904258728027,5,0,3,4,1,2,E+,1,1,4,400,600,250.0,1,C08YO,59,train
26.892900466918945,5,0,3,4,1,2,E+,1,0,1,400,600,250.0,0,C08YO,60,train
43.15519332885742,5,0,3,4,1,2,E+,1,2,5,400,600,250.0,2,C08YO,61,train
122.87092208862305,5,0,3,4,1,2,E+,1,4,3,400,600,250.0,4,C08YO,62,train
58.82906913757324,5,0,3,4,1,2,E+,1,0,1,400,600,250.0,0,C08YO,63,train
27.137041091918945,5,0,3,4,1,2,E+,1,5,0,400,600,250.0,5,C08YO,64,train
26.617050170898438,5,0,3,4,1,2,E+,1,1,4,400,600,250.0,1,C08YO,65,train
26.707887649536133,5,0,3,4,1,2,E+,1,0,1,400,600,250.0,0,C08YO,66,train
73.99797439575195,5,0,3,4,1,2,E+,1,4,3,400,600,250.0,4,C08YO,67,train
91.3240909576416,5,0,3,4,1,2,E+,1,4,3,400,600,250.0,4,C08YO,68,train
72.76391983032227,5,0,3,4,1,2,E+,1,0,1,400,600,250.0,0,C08YO,69,train
74.8600959777832,5,0,3,4,1,2,E+,1,1,4,400,600,250.0,1,C08YO,70,train
122.9410171508789,5,0,3,4,1,2,E+,1,3,2,400,600,250.0,3,C08YO,71,train
106.92715644836426,5,0,3,4,1,2,E+,1,4,3,400,600,250.0,4,C08YO,72,train
154.91294860839844,5,0,3,4,1,2,E+,1,3,2,400,600,250.0,3,C08YO,73,train
107.13815689086914,5,0,3,4,1,2,E+,1,1,4,400,600,250.0,1,C08YO,74,train
90.9881591796875,5,0,3,4,1,2,E+,1,4,3,400,600,250.0,4,C08YO,75,train
59.821128845214844,5,0,3,4,1,2,E+,1,4,3,400,600,250.0,4,C08YO,76,train
0.17595291137695312,5,0,3,4,1,2,E+,1,3,2,400,600,250.0,3,C08YO,77,train
0.1709461212158203,5,0,3,4,1,2,E+,1,4,3,400,600,250.0,4,C08YO,78,train
42.73819923400879,5,0,3,4,1,2,E+,1,5,0,400,600,250.0,5,C08YO,79,train
10.983943939208984,5,0,3,4,1,2,E+,1,1,4,400,600,250.0,1,C08YO,80,train
74.64408874511719,5,0,3,4,1,2,E+,0,5,0,400,600,250.0,4,C08YO,81,train
58.7918758392334,5,0,3,4,1,2,E+,1,1,4,400,600,250.0,1,C08YO,82,train
0.1289844512939453,5,0,3,4,1,2,E+,1,0,1,400,600,250.0,0,C08YO,83,train
74.86701011657715,5,0,3,4,1,2,E+,1,3,2,400,600,250.0,3,C08YO,84,train
43.2279109954834,5,0,3,4,1,2,E+,1,1,4,400,600,250.0,1,C08YO,85,train
75.15501976013184,5,0,3,4,1,2,E+,1,4,3,400,600,250.0,4,C08YO,86,train
57.753801345825195,5,0,3,4,1,2,E+,1,3,2,400,600,250.0,3,C08YO,87,train
88.8371467590332,5,0,3,4,1,2,E+,1,1,4,400,600,250.0,1,C08YO,88,train
170.7768440246582,5,0,3,4,1,2,E+,1,5,0,400,600,250.0,5,C08YO,89,train
0.18286705017089844,5,0,3,4,1,2,E+,1,3,2,400,600,250.0,3,C08YO,90,train
10.616064071655273,5,0,3,4,1,2,E+,1,0,1,400,600,250.0,0,C08YO,91,train
27.19593048095703,5,0,3,4,1,2,E+,1,0,1,400,600,250.0,0,C08YO,92,train
74.93305206298828,5,0,3,4,1,2,E+,1,5,0,400,600,250.0,5,C08YO,93,train
59.08799171447754,5,0,3,4,1,2,E+,1,0,1,400,600,250.0,0,C08YO,94,train
42.8009033203125,5,0,3,4,1,2,E+,1,5,0,400,600,250.0,5,C08YO,95,train
11.048078536987305,5,0,3,4,1,2,E+,1,5,0,400,600,250.0,5,C08YO,96,train
56.84995651245117,5,0,3,4,1,2,E+,1,1,4,400,600,250.0,1,C08YO,97,train
74.83887672424316,5,0,3,4,1,2,E+,0,5,0,400,600,250.0,4,C08YO,98,train
90.98982810974121,5,0,3,4,1,2,E+,1,0,1,400,600,250.0,0,C08YO,99,train
74.7079849243164,5,0,3,4,1,2,E+,1,1,4,400,600,250.0,1,C08YO,100,train
139.0690803527832,5,0,3,4,1,2,E+,1,4,3,400,600,250.0,4,C08YO,101,train
59.10897254943848,5,0,3,4,1,2,E+,1,1,4,400,600,250.0,1,C08YO,102,train
42.94919967651367,5,0,3,4,1,2,E+,1,2,5,400,600,250.0,2,C08YO,103,train
8.712053298950195,5,0,3,4,1,2,E+,1,3,2,400,600,250.0,3,C08YO,104,train
11.139869689941406,5,0,3,4,1,2,E+,1,4,3,400,600,250.0,4,C08YO,105,train
43.0300235748291,5,0,3,4,1,2,E+,1,3,2,400,600,250.0,3,C08YO,106,train
12.032032012939453,5,0,3,4,1,2,E+,1,4,3,400,600,250.0,4,C08YO,107,train
27.1909236907959,5,0,3,4,1,2,E+,1,3,2,400,600,250.0,3,C08YO,108,train
42.76299476623535,5,0,3,4,1,2,E+,1,4,3,400,600,250.0,4,C08YO,109,train
74.88489151000977,5,0,3,4,1,2,E+,1,3,2,400,600,250.0,3,C08YO,110,train
42.97614097595215,5,0,3,4,1,2,E+,1,2,5,400,600,250.0,2,C08YO,111,train
74.75495338439941,5,0,3,4,1,2,E+,1,2,5,400,600,250.0,2,C08YO,112,train
410.830020904541,5,0,3,4,1,2,E+,1,3,2,400,600,250.0,3,C08YO,113,train
235.23807525634766,5,0,3,4,1,2,E+,0,5,0,400,600,250.0,4,C08YO,114,train
74.74517822265625,5,0,3,4,1,2,E+,1,4,3,400,600,250.0,4,C08YO,115,train
43.029069900512695,5,0,3,4,1,2,E+,1,2,5,400,600,250.0,2,C08YO,116,train
346.90284729003906,5,0,3,4,1,2,E+,1,0,1,400,600,250.0,0,C08YO,117,train
361.9868755340576,5,0,3,4,1,2,E+,1,1,4,400,600,250.0,1,C08YO,118,train
106.92310333251953,5,0,3,4,1,2,E+,1,4,3,400,600,250.0,4,C08YO,119,train
26.91483497619629,5,0,3,4,1,2,E+,1,5,0,400,600,250.0,5,C08YO,120,train
107.09095001220703,5,0,3,4,1,2,E+,0,4,3,400,600,250.0,3,C08YO,121,train
75.20389556884766,5,0,3,4,1,2,E+,1,3,2,400,600,250.0,3,C08YO,122,train
58.75897407531738,5,0,3,4,1,2,E+,1,4,3,400,600,250.0,4,C08YO,123,train
42.97494888305664,5,0,3,4,1,2,E+,1,4,3,400,600,250.0,4,C08YO,124,train
75.15501976013184,5,0,3,4,1,2,E+,1,2,5,400,600,250.0,2,C08YO,125,train
27.170896530151367,5,0,3,4,1,2,E+,1,2,5,400,600,250.0,2,C08YO,126,train
42.87910461425781,5,0,3,4,1,2,E+,1,0,1,400,600,250.0,0,C08YO,127,train
26.788949966430664,5,0,3,4,1,2,E+,1,5,0,400,600,250.0,5,C08YO,128,train
58.78186225891113,5,0,3,4,1,2,E+,1,4,3,400,600,250.0,4,C08YO,129,train
74.99885559082031,5,0,3,4,1,2,E+,1,2,5,400,600,250.0,2,C08YO,130,train
43.21002960205078,5,0,3,4,1,2,E+,1,0,1,400,600,250.0,0,C08YO,131,train
91.03107452392578,5,0,3,4,1,2,E+,1,1,4,400,600,250.0,1,C08YO,132,train
59.0510368347168,5,0,3,4,1,2,E+,1,5,0,400,600,250.0,5,C08YO,133,train
74.99313354492188,5,0,3,4,1,2,E+,1,2,5,400,600,250.0,2,C08YO,134,train
0.15497207641601562,5,0,3,4,1,2,E+,1,0,1,400,600,250.0,0,C08YO,135,train
0.1251697540283203,5,0,3,4,1,2,E+,0,3,2,400,600,250.0,5,C08YO,136,train
76.14707946777344,5,0,3,4,1,2,E+,1,5,0,400,600,250.0,5,C08YO,137,train
346.2369441986084,5,0,3,4,1,2,E+,1,1,4,400,600,250.0,1,C08YO,138,train
43.19906234741211,5,0,3,4,1,2,E+,1,5,0,400,600,250.0,5,C08YO,139,train
26.619911193847656,5,0,3,4,1,2,E+,1,0,1,400,600,250.0,0,C08YO,140,train
74.83506202697754,5,0,3,4,1,2,E+,1,1,4,400,600,250.0,1,C08YO,141,train
27.173995971679688,5,0,3,4,1,2,E+,1,1,4,400,600,250.0,1,C08YO,142,train
154.41322326660156,5,0,3,4,1,2,E+,0,3,2,400,600,250.0,4,C08YO,143,train
58.94112586975098,5,0,3,4,1,2,E+,1,1,4,400,600,250.0,1,C08YO,144,train
75.19388198852539,5,0,3,4,1,2,E+,1,4,3,400,600,250.0,4,C08YO,145,train
58.837890625,5,0,3,4,1,2,E+,1,4,3,400,600,250.0,4,C08YO,146,train
59.83304977416992,5,0,3,4,1,2,E+,1,5,0,400,600,250.0,5,C08YO,147,train
57.57880210876465,5,0,3,4,1,2,E+,1,2,5,400,600,250.0,2,C08YO,148,train
92.30399131774902,5,0,3,4,1,2,E+,1,5,0,400,600,250.0,5,C08YO,149,train
0.12278556823730469,5,0,3,4,1,2,E+,1,1,4,400,600,250.0,1,C08YO,150,train
0.1590251922607422,5,0,3,4,1,2,E+,1,0,1,400,600,250.0,0,C08YO,151,train
43.14398765563965,5,0,3,4,1,2,E+,1,2,5,400,600,250.0,2,C08YO,152,train
90.88301658630371,5,0,3,4,1,2,E+,1,4,3,400,600,250.0,4,C08YO,153,train
91.06016159057617,5,0,3,4,1,2,E+,1,0,1,400,600,250.0,0,C08YO,154,train
0.17714500427246094,5,0,3,4,1,2,E+,1,5,0,400,600,250.0,5,C08YO,155,train
75.04796981811523,5,0,3,4,1,2,E+,0,3,2,400,600,250.0,2,C08YO,156,train
75.13189315795898,5,0,3,4,1,2,E+,1,4,3,400,600,250.0,4,C08YO,157,train
42.76299476623535,5,0,3,4,1,2,E+,1,0,1,400,600,250.0,0,C08YO,158,train
10.663986206054688,5,0,3,4,1,2,E+,1,0,1,400,600,250.0,0,C08YO,159,train
88.91606330871582,5,0,3,4,1,2,E+,0,3,2,400,600,250.0,2,C08YO,160,train
43.81394386291504,5,0,3,4,1,2,E+,1,0,1,400,600,250.0,0,C08YO,161,train
26.72600746154785,5,0,3,4,1,2,E+,1,3,2,400,600,250.0,3,C08YO,162,train
72.95989990234375,5,0,3,4,1,2,E+,1,5,0,400,600,250.0,5,C08YO,163,train
59.09109115600586,5,0,3,4,1,2,E+,1,1,4,400,600,250.0,1,C08YO,164,train
59.188127517700195,5,0,3,4,1,2,E+,1,4,3,400,600,250.0,4,C08YO,165,train
74.99909400939941,5,0,3,4,1,2,E+,1,3,2,400,600,250.0,3,C08YO,166,train
42.5260066986084,5,0,3,4,1,2,E+,1,2,5,400,600,250.0,2,C08YO,167,train
11.214017868041992,5,0,3,4,1,2,E+,1,3,2,400,600,250.0,3,C08YO,168,train
42.92488098144531,5,0,3,4,1,2,E+,1,3,2,400,600,250.0,3,C08YO,169,train
27.462005615234375,5,0,3,4,1,2,E+,1,0,1,400,600,250.0,0,C08YO,170,train
42.68622398376465,5,0,3,4,1,2,E+,0,4,3,400,600,250.0,3,C08YO,171,train
75.02603530883789,5,0,3,4,1,2,E+,1,3,2,400,600,250.0,3,C08YO,172,train
42.96398162841797,5,0,3,4,1,2,E+,1,5,0,400,600,250.0,5,C08YO,173,train
43.15495491027832,5,0,3,4,1,2,E+,1,4,3,400,600,250.0,4,C08YO,174,train
42.84405708312988,5,0,3,4,1,2,E+,1,0,1,400,600,250.0,0,C08YO,175,train
56.858062744140625,5,0,3,4,1,2,E+,1,2,5,400,600,250.0,2,C08YO,176,train
58.888912200927734,5,0,3,4,1,2,E+,1,1,4,400,600,250.0,1,C08YO,177,train
42.83714294433594,5,0,3,4,1,2,E+,1,0,1,400,600,250.0,0,C08YO,178,train
91.16888046264648,5,0,3,4,1,2,E+,1,4,3,400,600,250.0,4,C08YO,179,train
91.01200103759766,5,0,3,4,1,2,E+,1,1,4,400,600,250.0,1,C08YO,180,train
58.815956115722656,5,0,3,4,1,2,E+,1,5,0,400,600,250.0,5,C08YO,181,train
122.82586097717285,5,0,3,4,1,2,E+,1,2,5,400,600,250.0,2,C08YO,182,train
26.990890502929688,5,0,3,4,1,2,E+,1,1,4,400,600,250.0,1,C08YO,183,train
138.7779712677002,5,0,3,4,1,2,E+,1,2,5,400,600,250.0,2,C08YO,184,train
11.17396354675293,5,0,3,4,1,2,E+,1,5,0,400,600,250.0,5,C08YO,185,train
44.12198066711426,5,0,3,4,1,2,E+,1,3,2,400,600,250.0,3,C08YO,186,train
344.91491317749023,5,0,3,4,1,2,E+,1,4,3,400,600,250.0,4,C08YO,187,train
43.200016021728516,5,0,3,4,1,2,E+,1,0,1,400,600,250.0,0,C08YO,188,train
26.793956756591797,5,0,3,4,1,2,E+,1,3,2,400,600,250.0,3,C08YO,189,train
72.75104522705078,5,0,3,4,1,2,E+,1,2,5,400,600,250.0,2,C08YO,190,train
72.82185554504395,5,0,3,4,1,2,E+,1,2,5,400,600,250.0,2,C08YO,191,train
42.79303550720215,5,0,3,4,1,2,E+,0,4,3,400,600,250.0,3,C08YO,192,train
138.5498046875,5,0,3,4,1,2,E+,1,1,4,400,600,250.0,1,C08YO,193,train
139.10484313964844,5,0,3,4,1,2,E+,1,3,2,400,600,250.0,3,C08YO,194,train
26.947021484375,5,0,3,4,1,2,E+,1,0,1,400,600,250.0,0,C08YO,195,train
27.930021286010742,5,0,3,4,1,2,E+,1,3,2,400,600,250.0,3,C08YO,196,train
88.78397941589355,5,0,3,4,1,2,E+,1,2,5,400,600,250.0,2,C08YO,197,train
59.1888427734375,5,0,3,4,1,2,E+,1,0,1,400,600,250.0,0,C08YO,198,train
75.17194747924805,5,0,3,4,1,2,E+,1,5,0,400,600,250.0,5,C08YO,199,train
73.00019264221191,5,0,3,4,1,2,E+,1,3,2,400,600,250.0,3,C08YO,200,train
42.68693923950195,5,0,3,4,1,2,E+,1,2,5,400,600,250.0,2,C08YO,201,train
43.24221611022949,5,0,3,4,1,2,E+,1,4,3,400,600,250.0,4,C08YO,202,train
26.69501304626465,5,0,3,4,1,2,E+,1,4,3,400,600,250.0,4,C08YO,203,train
75.06108283996582,5,0,3,4,1,2,E+,0,1,4,400,600,250.0,2,C08YO,204,train
75.1199722290039,5,0,3,4,1,2,E+,1,2,5,400,600,250.0,2,C08YO,205,train
42.8919792175293,5,0,3,4,1,2,E+,1,3,2,400,600,250.0,3,C08YO,206,train
56.77008628845215,5,0,3,4,1,2,E+,1,3,2,400,600,250.0,3,C08YO,207,train
0.17213821411132812,5,0,3,4,1,2,E+,1,1,4,400,600,250.0,1,C08YO,208,train
58.89582633972168,5,0,3,4,1,2,E+,1,1,4,400,600,250.0,1,C08YO,209,train
58.94899368286133,5,0,3,4,1,2,E+,1,5,0,400,600,250.0,5,C08YO,210,train
56.874990463256836,5,0,3,4,1,2,E+,1,1,4,400,600,250.0,1,C08YO,211,train
27.027130126953125,5,0,3,4,1,2,E+,1,0,1,400,600,250.0,0,C08YO,212,train
42.710065841674805,5,0,3,4,1,2,E+,1,5,0,400,600,250.0,5,C08YO,213,train
43.174028396606445,5,0,3,4,1,2,E+,1,2,5,400,600,250.0,2,C08YO,214,train
26.767969131469727,5,0,3,4,1,2,E+,1,5,0,400,600,250.0,5,C08YO,215,train
58.89081954956055,5,0,3,4,1,2,E+,1,1,4,400,600,250.0,1,C08YO,216,train
90.12198448181152,5,0,3,4,1,2,E+,1,1,4,400,600,250.0,1,C08YO,217,train
43.20788383483887,5,0,3,4,1,2,E+,1,2,5,400,600,250.0,2,C08YO,218,train
43.160200119018555,5,0,3,4,1,2,E+,1,0,1,400,600,250.0,0,C08YO,219,train
59.04388427734375,5,0,3,4,1,2,E+,0,3,2,400,600,250.0,4,C08YO,220,train
107.16819763183594,5,0,3,4,1,2,E+,1,2,5,400,600,250.0,2,C08YO,221,train
60.03594398498535,5,0,3,4,1,2,E+,1,3,2,400,600,250.0,3,C08YO,222,train
58.70699882507324,5,0,3,4,1,2,E+,1,5,0,400,600,250.0,5,C08YO,223,train
72.85094261169434,5,0,3,4,1,2,E+,1,5,0,400,600,250.0,5,C08YO,224,train
75.17790794372559,5,0,3,4,1,2,E+,1,3,2,400,600,250.0,3,C08YO,225,train
104.66814041137695,5,0,3,4,1,2,E+,1,4,3,400,600,250.0,4,C08YO,226,train
58.89296531677246,5,0,3,4,1,2,E+,1,0,1,400,600,250.0,0,C08YO,227,train
10.741949081420898,5,0,3,4,1,2,E+,1,1,4,400,600,250.0,1,C08YO,228,train
26.885032653808594,5,0,3,4,1,2,E+,1,0,1,400,600,250.0,0,C08YO,229,train
0.16808509826660156,5,0,3,4,1,2,E+,1,1,4,400,600,250.0,1,C08YO,230,train
360.8288764953613,5,0,3,4,1,2,E+,1,0,1,400,600,250.0,0,C08YO,231,train
0.18095970153808594,5,0,3,4,1,2,E+,1,0,1,400,600,250.0,0,C08YO,232,train
59.02695655822754,5,0,3,4,1,2,E+,1,0,1,400,600,250.0,0,C08YO,233,train
107.28812217712402,5,0,3,4,1,2,E+,1,3,2,400,600,250.0,3,C08YO,234,train
42.97900199890137,5,0,3,4,1,2,E+,1,4,3,400,600,250.0,4,C08YO,235,train
72.9210376739502,5,0,3,4,1,2,E+,1,1,4,400,600,250.0,1,C08YO,236,train
43.17283630371094,5,0,3,4,1,2,E+,1,2,5,400,600,250.0,2,C08YO,237,train
27.1909236907959,5,0,3,4,1,2,E+,1,0,1,400,600,250.0,0,C08YO,238,train
10.721921920776367,5,0,3,4,1,2,E+,1,5,0,400,600,250.0,5,C08YO,239,train
0.11897087097167969,5,0,3,4,1,2,E+,1,0,1,400,600,250.0,0,C08YO,240,train
75.23512840270996,5,0,3,4,1,2,E+,1,0,1,400,600,250.0,0,C08YO,241,train
75.76394081115723,5,0,3,4,1,2,E+,0,4,3,400,600,250.0,3,C08YO,242,train
59.23199653625488,5,0,3,4,1,2,E+,1,1,4,400,600,250.0,1,C08YO,243,train
43.15495491027832,5,0,3,4,1,2,E+,1,1,4,400,600,250.0,1,C08YO,244,train
75.19698143005371,5,0,3,4,1,2,E+,1,4,3,400,600,250.0,4,C08YO,245,train
75.06680488586426,5,0,3,4,1,2,E+,1,2,5,400,600,250.0,2,C08YO,246,train
11.282920837402344,5,0,3,4,1,2,E+,1,5,0,400,600,250.0,5,C08YO,247,train
91.10808372497559,5,0,3,4,1,2,E+,1,3,2,400,600,250.0,3,C08YO,248,train
10.903120040893555,5,0,3,4,1,2,E+,1,3,2,400,600,250.0,3,C08YO,249,train
912.9359722137451,5,0,3,4,1,2,E+,1,0,1,0,1000,250.0,0,C08YO,250,test
528.9328098297119,5,0,3,4,1,2,E+,1,5,0,0,1000,250.0,5,C08YO,251,test
448.9250183105469,5,0,3,4,1,2,E+,1,3,2,0,1000,250.0,3,C08YO,252,test
592.8409099578857,5,0,3,4,1,2,E+,1,2,5,0,1000,250.0,2,C08YO,253,test
593.0678844451904,5,0,3,4,1,2,E+,1,5,0,0,1000,250.0,5,C08YO,254,test
480.8030128479004,5,0,3,4,1,2,E+,1,3,2,0,1000,250.0,3,C08YO,255,test
384.75704193115234,5,0,3,4,1,2,E+,1,3,2,0,1000,250.0,3,C08YO,256,test
448.9288330078125,5,0,3,4,1,2,E+,0,2,5,0,1000,250.0,3,C08YO,257,test
577.1090984344482,5,0,3,4,1,2,E+,1,5,0,0,1000,250.0,5,C08YO,258,test
512.963056564331,5,0,3,4,1,2,E+,1,0,1,0,1000,250.0,0,C08YO,259,test
289.0458106994629,5,0,3,4,1,2,E+,1,1,4,0,1000,250.0,1,C08YO,260,test
624.993085861206,5,0,3,4,1,2,E+,1,4,3,0,1000,250.0,4,C08YO,261,test
384.98806953430176,5,0,3,4,1,2,E+,0,1,4,0,1000,250.0,5,C08YO,262,test
545.0770854949951,5,0,3,4,1,2,E+,1,5,0,0,1000,250.0,5,C08YO,263,test
432.6589107513428,5,0,3,4,1,2,E+,1,3,2,0,1000,250.0,3,C08YO,264,test
544.7571277618408,5,0,3,4,1,2,E+,1,1,4,0,1000,250.0,1,C08YO,265,test
304.69298362731934,5,0,3,4,1,2,E+,1,0,1,0,1000,250.0,0,C08YO,266,test
624.8219013214111,5,0,3,4,1,2,E+,1,2,5,0,1000,250.0,2,C08YO,267,test
289.0307903289795,5,0,3,4,1,2,E+,1,3,2,0,1000,250.0,3,C08YO,268,test
497.0078468322754,5,0,3,4,1,2,E+,1,2,5,0,1000,250.0,2,C08YO,269,test
449.07093048095703,5,0,3,4,1,2,E+,0,1,4,0,1000,250.0,5,C08YO,270,test
465.04807472229004,5,0,3,4,1,2,E+,1,1,4,0,1000,250.0,1,C08YO,271,test
529.0899276733398,5,0,3,4,1,2,E+,1,0,1,0,1000,250.0,0,C08YO,272,test
544.7227954864502,5,0,3,4,1,2,E+,1,3,2,0,1000,250.0,3,C08YO,273,test
512.7899646759033,5,0,3,4,1,2,E+,0,3,2,0,1000,250.0,2,C08YO,274,test
481.0748100280762,5,0,3,4,1,2,E+,1,0,1,0,1000,250.0,0,C08YO,275,test
512.9909515380859,5,0,3,4,1,2,E+,1,3,2,0,1000,250.0,3,C08YO,276,test
545.0088977813721,5,0,3,4,1,2,E+,1,1,4,0,1000,250.0,1,C08YO,277,test
529.0179252624512,5,0,3,4,1,2,E+,1,5,0,0,1000,250.0,5,C08YO,278,test
481.0819625854492,5,0,3,4,1,2,E+,1,4,3,0,1000,250.0,4,C08YO,279,test
528.7570953369141,5,0,3,4,1,2,E+,1,2,5,0,1000,250.0,2,C08YO,280,test
400.9559154510498,5,0,3,4,1,2,E+,1,4,3,0,1000,250.0,4,C08YO,281,test
433.0580234527588,5,0,3,4,1,2,E+,0,0,1,0,1000,250.0,1,C08YO,282,test
448.7569332122803,5,0,3,4,1,2,E+,1,3,2,0,1000,250.0,3,C08YO,283,test
432.8291416168213,5,0,3,4,1,2,E+,1,0,1,0,1000,250.0,0,C08YO,284,test
336.8098735809326,5,0,3,4,1,2,E+,0,4,3,0,1000,250.0,5,C08YO,285,test
448.84204864501953,5,0,3,4,1,2,E+,1,1,4,0,1000,250.0,1,C08YO,286,test
465.0700092315674,5,0,3,4,1,2,E+,1,3,2,0,1000,250.0,3,C08YO,287,test
542.8211688995361,5,0,3,4,1,2,E+,1,2,5,0,1000,250.0,2,C08YO,288,test
337.069034576416,5,0,3,4,1,2,E+,1,5,0,0,1000,250.0,5,C08YO,289,test
272.799015045166,5,0,3,4,1,2,E+,1,0,1,0,1000,250.0,0,C08YO,290,test
272.7339267730713,5,0,3,4,1,2,E+,1,1,4,0,1000,250.0,1,C08YO,291,test
542.8581237792969,5,0,3,4,1,2,E+,1,2,5,0,1000,250.0,2,C08YO,292,test
398.6191749572754,5,0,3,4,1,2,E+,0,2,5,0,1000,250.0,4,C08YO,293,test
400.7840156555176,5,0,3,4,1,2,E+,0,5,0,0,1000,250.0,2,C08YO,294,test
400.8779525756836,5,0,3,4,1,2,E+,1,5,0,0,1000,250.0,5,C08YO,295,test
593.1129455566406,5,0,3,4,1,2,E+,1,2,5,0,1000,250.0,2,C08YO,296,test
304.98600006103516,5,0,3,4,1,2,E+,1,3,2,0,1000,250.0,3,C08YO,297,test
784.9431037902832,5,0,3,4,1,2,E+,1,5,0,0,1000,250.0,5,C08YO,298,test
416.83197021484375,5,0,3,4,1,2,E+,1,3,2,0,1000,250.0,3,C08YO,299,test
496.63591384887695,5,0,3,4,1,2,E+,1,3,2,0,1000,250.0,3,C08YO,300,test
432.97410011291504,5,0,3,4,1,2,E+,1,0,1,0,1000,250.0,0,C08YO,301,test
960.7038497924805,5,0,3,4,1,2,E+,0,5,0,0,1000,250.0,2,C08YO,302,test
608.7069511413574,5,0,3,4,1,2,E+,1,5,0,0,1000,250.0,5,C08YO,303,test
337.1450901031494,5,0,3,4,1,2,E+,1,2,5,0,1000,250.0,2,C08YO,304,test
513.037919998169,5,0,3,4,1,2,E+,1,4,3,0,1000,250.0,4,C08YO,305,test
479.6769618988037,5,0,3,4,1,2,E+,1,0,1,0,1000,250.0,0,C08YO,306,test
416.7790412902832,5,0,3,4,1,2,E+,1,0,1,0,1000,250.0,0,C08YO,307,test
544.7661876678467,5,0,3,4,1,2,E+,1,1,4,0,1000,250.0,1,C08YO,308,test
480.7918071746826,5,0,3,4,1,2,E+,1,4,3,0,1000,250.0,4,C08YO,309,test
448.9748477935791,5,0,3,4,1,2,E+,1,0,1,0,1000,250.0,0,C08YO,310,test
481.0659885406494,5,0,3,4,1,2,E+,0,3,2,0,1000,250.0,4,C08YO,311,test
464.9839401245117,5,0,3,4,1,2,E+,1,1,4,0,1000,250.0,1,C08YO,312,test
401.11517906188965,5,0,3,4,1,2,E+,1,4,3,0,1000,250.0,4,C08YO,313,test
334.8088264465332,5,0,3,4,1,2,E+,1,4,3,0,1000,250.0,4,C08YO,314,test
417.0198440551758,5,0,3,4,1,2,E+,1,3,2,0,1000,250.0,3,C08YO,315,test
432.7850341796875,5,0,3,4,1,2,E+,0,2,5,0,1000,250.0,4,C08YO,316,test
432.8169822692871,5,0,3,4,1,2,E+,1,3,2,0,1000,250.0,3,C08YO,317,test
464.9941921234131,5,0,3,4,1,2,E+,1,0,1,0,1000,250.0,0,C08YO,318,test
449.92518424987793,5,0,3,4,1,2,E+,1,3,2,0,1000,250.0,3,C08YO,319,test
608.7579727172852,5,0,3,4,1,2,E+,1,0,1,0,1000,250.0,0,C08YO,320,test
512.6709938049316,5,0,3,4,1,2,E+,1,4,3,0,1000,250.0,4,C08YO,321,test
624.6840953826904,5,0,3,4,1,2,E+,1,0,1,0,1000,250.0,0,C08YO,322,test
624.9411106109619,5,0,3,4,1,2,E+,1,1,4,0,1000,250.0,1,C08YO,323,test
496.9370365142822,5,0,3,4,1,2,E+,1,4,3,0,1000,250.0,4,C08YO,324,test
496.6461658477783,5,0,3,4,1,2,E+,1,3,2,0,1000,250.0,3,C08YO,325,test
480.73387145996094,5,0,3,4,1,2,E+,1,1,4,0,1000,250.0,1,C08YO,326,test
608.989953994751,5,0,3,4,1,2,E+,1,4,3,0,1000,250.0,4,C08YO,327,test
448.9941596984863,5,0,3,4,1,2,E+,1,3,2,0,1000,250.0,3,C08YO,328,test
352.95581817626953,5,0,3,4,1,2,E+,0,5,0,0,1000,250.0,1,C08YO,329,test
641.1659717559814,5,0,3,4,1,2,E+,1,5,0,0,1000,250.0,5,C08YO,330,test
320.9190368652344,5,0,3,4,1,2,E+,1,2,5,0,1000,250.0,2,C08YO,331,test
496.57297134399414,5,0,3,4,1,2,E+,1,3,2,0,1000,250.0,3,C08YO,332,test
513.0147933959961,5,0,3,4,1,2,E+,1,5,0,0,1000,250.0,5,C08YO,333,test
416.9797897338867,5,0,3,4,1,2,E+,1,2,5,0,1000,250.0,2,C08YO,334,test
624.8419284820557,5,0,3,4,1,2,E+,1,5,0,0,1000,250.0,5,C08YO,335,test
449.07188415527344,5,0,3,4,1,2,E+,0,5,0,0,1000,250.0,2,C08YO,336,test
480.84211349487305,5,0,3,4,1,2,E+,1,4,3,0,1000,250.0,4,C08YO,337,test
368.6099052429199,5,0,3,4,1,2,E+,1,0,1,0,1000,250.0,0,C08YO,338,test
384.7799301147461,5,0,3,4,1,2,E+,1,0,1,0,1000,250.0,0,C08YO,339,test
512.7990245819092,5,0,3,4,1,2,E+,1,2,5,0,1000,250.0,2,C08YO,340,test
352.8158664703369,5,0,3,4,1,2,E+,0,5,0,0,1000,250.0,2,C08YO,341,test
481.1079502105713,5,0,3,4,1,2,E+,1,0,1,0,1000,250.0,0,C08YO,342,test
384.9930763244629,5,0,3,4,1,2,E+,1,5,0,0,1000,250.0,5,C08YO,343,test
480.9391498565674,5,0,3,4,1,2,E+,0,5,0,0,1000,250.0,2,C08YO,344,test
289.03889656066895,5,0,3,4,1,2,E+,1,5,0,0,1000,250.0,5,C08YO,345,test
448.90403747558594,5,0,3,4,1,2,E+,1,2,5,0,1000,250.0,2,C08YO,346,test
448.93884658813477,5,0,3,4,1,2,E+,1,3,2,0,1000,250.0,3,C08YO,347,test
400.84385871887207,5,0,3,4,1,2,E+,1,3,2,0,1000,250.0,3,C08YO,348,test
353.0881404876709,5,0,3,4,1,2,E+,1,2,5,0,1000,250.0,2,C08YO,349,test
448.72093200683594,5,0,3,4,1,2,E+,1,3,2,0,1000,250.0,3,C08YO,350,test
481.10103607177734,5,0,3,4,1,2,E+,0,2,5,0,1000,250.0,3,C08YO,351,test
432.5690269470215,5,0,3,4,1,2,E+,1,3,2,0,1000,250.0,3,C08YO,352,test
366.0900592803955,5,0,3,4,1,2,E+,1,3,2,0,1000,250.0,3,C08YO,353,test
528.8381576538086,5,0,3,4,1,2,E+,1,3,2,0,1000,250.0,3,C08YO,354,test
479.564905166626,5,0,3,4,1,2,E+,1,1,4,0,1000,250.0,1,C08YO,355,test
688.5530948638916,5,0,3,4,1,2,E+,1,5,0,0,1000,250.0,5,C08YO,356,test
398.8158702850342,5,0,3,4,1,2,E+,0,4,3,0,1000,250.0,2,C08YO,357,test
512.4099254608154,5,0,3,4,1,2,E+,1,3,2,0,1000,250.0,3,C08YO,358,test
337.01086044311523,5,0,3,4,1,2,E+,1,3,2,0,1000,250.0,3,C08YO,359,test
528.7110805511475,5,0,3,4,1,2,E+,1,0,1,0,1000,250.0,0,C08YO,360,test
493.33691596984863,5,0,3,4,1,2,E+,0,4,3,0,1000,250.0,3,C08YO,361,test
481.17995262145996,5,0,3,4,1,2,E+,1,0,1,0,1000,250.0,0,C08YO,362,test
495.8689212799072,5,0,3,4,1,2,E+,1,1,4,0,1000,250.0,1,C08YO,363,test
446.84386253356934,5,0,3,4,1,2,E+,1,0,1,0,1000,250.0,0,C08YO,364,test
606.4450740814209,5,0,3,4,1,2,E+,1,1,4,0,1000,250.0,1,C08YO,365,test
464.83492851257324,5,0,3,4,1,2,E+,1,3,2,0,1000,250.0,3,C08YO,366,test
622.8201389312744,5,0,3,4,1,2,E+,1,1,4,0,1000,250.0,1,C08YO,367,test
496.967077255249,5,0,3,4,1,2,E+,1,4,3,0,1000,250.0,4,C08YO,368,test
529.1440486907959,5,0,3,4,1,2,E+,1,3,2,0,1000,250.0,3,C08YO,369,test
463.001012802124,5,0,3,4,1,2,E+,1,0,1,0,1000,250.0,0,C08YO,370,test
481.1069965362549,5,0,3,4,1,2,E+,1,4,3,0,1000,250.0,4,C08YO,371,test
528.8422107696533,5,0,3,4,1,2,E+,1,1,4,0,1000,250.0,1,C08YO,372,test
464.73217010498047,5,0,3,4,1,2,E+,1,0,1,0,1000,250.0,0,C08YO,373,test
544.8620319366455,5,0,3,4,1,2,E+,1,4,3,0,1000,250.0,4,C08YO,374,test
481.1418056488037,5,0,3,4,1,2,E+,1,0,1,0,1000,250.0,0,C08YO,375,test
449.0020275115967,5,0,3,4,1,2,E+,1,1,4,0,1000,250.0,1,C08YO,376,test
592.9889678955078,5,0,3,4,1,2,E+,1,1,4,0,1000,250.0,1,C08YO,377,test
384.7930431365967,5,0,3,4,1,2,E+,1,2,5,0,1000,250.0,2,C08YO,378,test
641.1418914794922,5,0,3,4,1,2,E+,1,4,3,0,1000,250.0,4,C08YO,379,test
481.0490608215332,5,0,3,4,1,2,E+,0,1,4,0,1000,250.0,2,C08YO,380,test
480.53598403930664,5,0,3,4,1,2,E+,1,3,2,0,1000,250.0,3,C08YO,381,test
449.0389823913574,5,0,3,4,1,2,E+,1,1,4,0,1000,250.0,1,C08YO,382,test
656.7709445953369,5,0,3,4,1,2,E+,1,2,5,0,1000,250.0,2,C08YO,383,test
401.0050296783447,5,0,3,4,1,2,E+,1,5,0,0,1000,250.0,5,C08YO,384,test
416.841983795166,5,0,3,4,1,2,E+,1,5,0,0,1000,250.0,5,C08YO,385,test
464.98894691467285,5,0,3,4,1,2,E+,1,0,1,0,1000,250.0,0,C08YO,386,test
432.5120449066162,5,0,3,4,1,2,E+,1,4,3,0,1000,250.0,4,C08YO,387,test
545.1221466064453,5,0,3,4,1,2,E+,1,3,2,0,1000,250.0,3,C08YO,388,test
464.9171829223633,5,0,3,4,1,2,E+,1,1,4,0,1000,250.0,1,C08YO,389,test
496.6590404510498,5,0,3,4,1,2,E+,1,4,3,0,1000,250.0,4,C08YO,390,test
593.148946762085,5,0,3,4,1,2,E+,1,4,3,0,1000,250.0,4,C08YO,391,test
528.954029083252,5,0,3,4,1,2,E+,1,5,0,0,1000,250.0,5,C08YO,392,test
448.962926864624,5,0,3,4,1,2,E+,1,2,5,0,1000,250.0,2,C08YO,393,test
448.87495040893555,5,0,3,4,1,2,E+,1,3,2,0,1000,250.0,3,C08YO,394,test
464.4498825073242,5,0,3,4,1,2,E+,1,0,1,0,1000,250.0,0,C08YO,395,test
513.0441188812256,5,0,3,4,1,2,E+,1,5,0,0,1000,250.0,5,C08YO,396,test
496.7939853668213,5,0,3,4,1,2,E+,0,2,5,0,1000,250.0,1,C08YO,397,test
465.07787704467773,5,0,3,4,1,2,E+,1,4,3,0,1000,250.0,4,C08YO,398,test
464.78891372680664,5,0,3,4,1,2,E+,1,3,2,0,1000,250.0,3,C08YO,399,test
366.8098449707031,5,0,3,4,1,2,E+,1,2,5,0,1000,250.0,2,C08YO,400,test
464.7529125213623,5,0,3,4,1,2,E+,1,5,0,0,1000,250.0,5,C08YO,401,test
464.832067489624,5,0,3,4,1,2,E+,1,3,2,0,1000,250.0,3,C08YO,402,test
369.049072265625,5,0,3,4,1,2,E+,1,4,3,0,1000,250.0,4,C08YO,403,test
369.03905868530273,5,0,3,4,1,2,E+,1,2,5,0,1000,250.0,2,C08YO,404,test
481.00805282592773,5,0,3,4,1,2,E+,1,0,1,0,1000,250.0,0,C08YO,405,test
464.95985984802246,5,0,3,4,1,2,E+,1,4,3,0,1000,250.0,4,C08YO,406,test
317.9647922515869,5,0,3,4,1,2,E+,1,5,0,0,1000,250.0,5,C08YO,407,test
368.786096572876,5,0,3,4,1,2,E+,1,4,3,0,1000,250.0,4,C08YO,408,test
512.876033782959,5,0,3,4,1,2,E+,1,0,1,0,1000,250.0,0,C08YO,409,test
384.9461078643799,5,0,3,4,1,2,E+,0,4,3,0,1000,250.0,3,C08YO,410,test
432.858943939209,5,0,3,4,1,2,E+,1,3,2,0,1000,250.0,3,C08YO,411,test
449.03087615966797,5,0,3,4,1,2,E+,0,2,5,0,1000,250.0,1,C08YO,412,test
305.04584312438965,5,0,3,4,1,2,E+,1,1,4,0,1000,250.0,1,C08YO,413,test
480.89599609375,5,0,3,4,1,2,E+,1,0,1,0,1000,250.0,0,C08YO,414,test
416.715145111084,5,0,3,4,1,2,E+,1,3,2,0,1000,250.0,3,C08YO,415,test
432.7390193939209,5,0,3,4,1,2,E+,1,2,5,0,1000,250.0,2,C08YO,416,test
573.9748477935791,5,0,3,4,1,2,E+,1,5,0,0,1000,250.0,5,C08YO,417,test
432.7731132507324,5,0,3,4,1,2,E+,1,0,1,0,1000,250.0,0,C08YO,418,test
432.5978755950928,5,0,3,4,1,2,E+,0,3,2,0,1000,250.0,4,C08YO,419,test
528.9959907531738,5,0,3,4,1,2,E+,1,1,4,0,1000,250.0,1,C08YO,420,test
369.0299987792969,5,0,3,4,1,2,E+,1,5,0,0,1000,250.0,5,C08YO,421,test
432.91592597961426,5,0,3,4,1,2,E+,0,0,1,0,1000,250.0,3,C08YO,422,test
656.5217971801758,5,0,3,4,1,2,E+,1,2,5,0,1000,250.0,2,C08YO,423,test
480.53598403930664,5,0,3,4,1,2,E+,1,5,0,0,1000,250.0,5,C08YO,424,test
401.13210678100586,5,0,3,4,1,2,E+,1,4,3,0,1000,250.0,4,C08YO,425,test
335.98995208740234,5,0,3,4,1,2,E+,1,2,5,0,1000,250.0,2,C08YO,426,test
432.82198905944824,5,0,3,4,1,2,E+,1,5,0,0,1000,250.0,5,C08YO,427,test
319.9601173400879,5,0,3,4,1,2,E+,0,5,0,0,1000,250.0,1,C08YO,428,test
496.3259696960449,5,0,3,4,1,2,E+,1,3,2,0,1000,250.0,3,C08YO,429,test
448.793888092041,5,0,3,4,1,2,E+,1,3,2,0,1000,250.0,3,C08YO,430,test
449.10502433776855,5,0,3,4,1,2,E+,1,4,3,0,1000,250.0,4,C08YO,431,test
609.1029644012451,5,0,3,4,1,2,E+,1,1,4,0,1000,250.0,1,C08YO,432,test
528.6798477172852,5,0,3,4,1,2,E+,1,2,5,0,1000,250.0,2,C08YO,433,test
593.0910110473633,5,0,3,4,1,2,E+,1,2,5,0,1000,250.0,2,C08YO,434,test
368.0548667907715,5,0,3,4,1,2,E+,0,5,0,0,1000,250.0,2,C08YO,435,test
512.7151012420654,5,0,3,4,1,2,E+,1,5,0,0,1000,250.0,5,C08YO,436,test
574.6591091156006,5,0,3,4,1,2,E+,1,5,0,0,1000,250.0,5,C08YO,437,test
528.1569957733154,5,0,3,4,1,2,E+,1,0,1,0,1000,250.0,0,C08YO,438,test
464.59007263183594,5,0,3,4,1,2,E+,1,1,4,0,1000,250.0,1,C08YO,439,test
493.0000305175781,5,0,3,4,1,2,E+,1,1,4,0,1000,250.0,1,C08YO,440,test
608.9880466461182,5,0,3,4,1,2,E+,0,1,4,0,1000,250.0,0,C08YO,441,test
577.023983001709,5,0,3,4,1,2,E+,1,5,0,0,1000,250.0,5,C08YO,442,test
977.0278930664062,5,0,3,4,1,2,E+,1,5,0,0,1000,250.0,5,C08YO,443,test
401.1049270629883,5,0,3,4,1,2,E+,1,4,3,0,1000,250.0,4,C08YO,444,test
496.6921806335449,5,0,3,4,1,2,E+,1,1,4,0,1000,250.0,1,C08YO,445,test
446.78401947021484,5,0,3,4,1,2,E+,1,3,2,0,1000,250.0,3,C08YO,446,test
446.95401191711426,5,0,3,4,1,2,E+,1,1,4,0,1000,250.0,1,C08YO,447,test
510.5550289154053,5,0,3,4,1,2,E+,1,5,0,0,1000,250.0,5,C08YO,448,test
448.9169120788574,5,0,3,4,1,2,E+,1,0,1,0,1000,250.0,0,C08YO,449,test
480.72314262390137,5,0,3,4,1,2,E+,1,0,1,0,1000,250.0,0,C08YO,450,test
494.59195137023926,5,0,3,4,1,2,E+,1,4,3,0,1000,250.0,4,C08YO,451,test
464.74194526672363,5,0,3,4,1,2,E+,0,1,4,0,1000,250.0,0,C08YO,452,test
417.04702377319336,5,0,3,4,1,2,E+,1,3,2,0,1000,250.0,3,C08YO,453,test
512.2880935668945,5,0,3,4,1,2,E+,1,5,0,0,1000,250.0,5,C08YO,454,test
398.7569808959961,5,0,3,4,1,2,E+,0,2,5,0,1000,250.0,1,C08YO,455,test
512.8347873687744,5,0,3,4,1,2,E+,1,1,4,0,1000,250.0,1,C08YO,456,test
304.9960136413574,5,0,3,4,1,2,E+,1,4,3,0,1000,250.0,4,C08YO,457,test
528.9878845214844,5,0,3,4,1,2,E+,1,5,0,0,1000,250.0,5,C08YO,458,test
432.54804611206055,5,0,3,4,1,2,E+,1,4,3,0,1000,250.0,4,C08YO,459,test
448.64511489868164,5,0,3,4,1,2,E+,1,1,4,0,1000,250.0,1,C08YO,460,test
430.9878349304199,5,0,3,4,1,2,E+,1,1,4,0,1000,250.0,1,C08YO,461,test
544.98291015625,5,0,3,4,1,2,E+,1,4,3,0,1000,250.0,4,C08YO,462,test
321.0420608520508,5,0,3,4,1,2,E+,1,3,2,0,1000,250.0,3,C08YO,463,test
561.0039234161377,5,0,3,4,1,2,E+,1,4,3,0,1000,250.0,4,C08YO,464,test
432.811975479126,5,0,3,4,1,2,E+,1,0,1,0,1000,250.0,0,C08YO,465,test
304.91185188293457,5,0,3,4,1,2,E+,1,1,4,0,1000,250.0,1,C08YO,466,test
398.50306510925293,5,0,3,4,1,2,E+,0,4,3,0,1000,250.0,3,C08YO,467,test
448.9312171936035,5,0,3,4,1,2,E+,1,2,5,0,1000,250.0,2,C08YO,468,test
496.84810638427734,5,0,3,4,1,2,E+,1,0,1,0,1000,250.0,0,C08YO,469,test
607.9471111297607,5,0,3,4,1,2,E+,1,3,2,0,1000,250.0,3,C08YO,470,test
449.13291931152344,5,0,3,4,1,2,E+,1,0,1,0,1000,250.0,0,C08YO,471,test
593.0731296539307,5,0,3,4,1,2,E+,0,2,5,0,1000,250.0,1,C08YO,472,test
560.8069896697998,5,0,3,4,1,2,E+,1,1,4,0,1000,250.0,1,C08YO,473,test
400.76398849487305,5,0,3,4,1,2,E+,1,3,2,0,1000,250.0,3,C08YO,474,test
432.92713165283203,5,0,3,4,1,2,E+,1,3,2,0,1000,250.0,3,C08YO,475,test
448.76694679260254,5,0,3,4,1,2,E+,1,4,3,0,1000,250.0,4,C08YO,476,test
321.1171627044678,5,0,3,4,1,2,E+,1,2,5,0,1000,250.0,2,C08YO,477,test
305.06300926208496,5,0,3,4,1,2,E+,1,5,0,0,1000,250.0,5,C08YO,478,test
480.8788299560547,5,0,3,4,1,2,E+,0,2,5,0,1000,250.0,3,C08YO,479,test
480.82709312438965,5,0,3,4,1,2,E+,1,5,0,0,1000,250.0,5,C08YO,480,test
416.748046875,5,0,3,4,1,2,E+,1,2,5,0,1000,250.0,2,C08YO,481,test
496.8218803405762,5,0,3,4,1,2,E+,1,1,4,0,1000,250.0,1,C08YO,482,test
544.5458889007568,5,0,3,4,1,2,E+,1,4,3,0,1000,250.0,4,C08YO,483,test
544.9957847595215,5,0,3,4,1,2,E+,1,2,5,0,1000,250.0,2,C08YO,484,test
369.0619468688965,5,0,3,4,1,2,E+,1,2,5,0,1000,250.0,2,C08YO,485,test
480.85594177246094,5,0,3,4,1,2,E+,1,0,1,0,1000,250.0,0,C08YO,486,test
576.9569873809814,5,0,3,4,1,2,E+,1,3,2,0,1000,250.0,3,C08YO,487,test
465.069055557251,5,0,3,4,1,2,E+,1,0,1,0,1000,250.0,0,C08YO,488,test
480.8158874511719,5,0,3,4,1,2,E+,1,0,1,0,1000,250.0,0,C08YO,489,test
480.89098930358887,5,0,3,4,1,2,E+,1,2,5,0,1000,250.0,2,C08YO,490,test
481.02807998657227,5,0,3,4,1,2,E+,1,1,4,0,1000,250.0,1,C08YO,491,test
544.8479652404785,5,0,3,4,1,2,E+,1,4,3,0,1000,250.0,4,C08YO,492,test
302.80208587646484,5,0,3,4,1,2,E+,1,5,0,0,1000,250.0,5,C08YO,493,test
288.47289085388184,5,0,3,4,1,2,E+,1,5,0,0,1000,250.0,5,C08YO,494,test
320.8730220794678,5,0,3,4,1,2,E+,1,5,0,0,1000,250.0,5,C08YO,495,test
417.09208488464355,5,0,3,4,1,2,E+,1,2,5,0,1000,250.0,2,C08YO,496,test
496.87790870666504,5,0,3,4,1,2,E+,0,4,3,0,1000,250.0,3,C08YO,497,test
513.1850242614746,5,0,3,4,1,2,E+,1,1,4,0,1000,250.0,1,C08YO,498,test
400.7000923156738,5,0,3,4,1,2,E+,0,4,3,0,1000,250.0,3,C08YO,499,test
