RT,SRmap_0,SRmap_1,SRmap_2,SRmap_3,SRmap_4,SRmap_5,condition,correct,correct_response,curstim,ms-precue,ms-prestimblank,ntrials,response,subject,trial,type
639.0888690948486,5,2,3,4,0,1,E+,1,2,1,400,600,250.0,2,D10SO,0,train
2351.1269092559814,5,2,3,4,0,1,E+,1,0,4,400,600,250.0,0,D10SO,1,train
1647.1898555755615,5,2,3,4,0,1,E+,1,1,5,400,600,250.0,1,D10SO,2,train
831.3310146331787,5,2,3,4,0,1,E+,1,0,4,400,600,250.0,0,D10SO,3,train
879.2951107025146,5,2,3,4,0,1,E+,1,4,3,400,600,250.0,4,D10SO,4,train
1327.3239135742188,5,2,3,4,0,1,E+,1,1,5,400,600,250.0,1,D10SO,5,train
1759.2871189117432,5,2,3,4,0,1,E+,1,3,2,400,600,250.0,3,D10SO,6,train
1807.4190616607666,5,2,3,4,0,1,E+,1,0,4,400,600,250.0,0,D10SO,7,train
1359.1201305389404,5,2,3,4,0,1,E+,1,3,2,400,600,250.0,3,D10SO,8,train
207.3509693145752,5,2,3,4,0,1,E+,0,2,1,400,600,250.0,1,D10SO,9,train
223.38008880615234,5,2,3,4,0,1,E+,1,3,2,400,600,250.0,3,D10SO,10,train
239.20202255249023,5,2,3,4,0,1,E+,1,5,0,400,600,250.0,5,D10SO,11,train
415.41314125061035,5,2,3,4,0,1,E+,1,1,5,400,600,250.0,1,D10SO,12,train
783.4999561309814,5,2,3,4,0,1,E+,1,4,3,400,600,250.0,4,D10SO,13,train
223.39606285095215,5,2,3,4,0,1,E+,1,0,4,400,600,250.0,0,D10SO,14,train
207.34000205993652,5,2,3,4,0,1,E+,1,2,1,400,600,250.0,2,D10SO,15,train
159.34181213378906,5,2,3,4,0,1,E+,1,5,0,400,600,250.0,5,D10SO,16,train
175.3699779510498,5,2,3,4,0,1,E+,1,1,5,400,600,250.0,1,D10SO,17,train
447.4010467529297,5,2,3,4,0,1,E+,0,4,3,400,600,250.0,5,D10SO,18,train
255.28883934020996,5,2,3,4,0,1,E+,1,4,3,400,600,250.0,4,D10SO,19,train
111.3889217376709,5,2,3,4,0,1,E+,1,5,0,400,600,250.0,5,D10SO,20,train
127.41589546203613,5,2,3,4,0,1,E+,1,4,3,400,600,250.0,4,D10SO,21,train
204.64706420898438,5,2,3,4,0,1,E+,1,0,4,400,600,250.0,0,D10SO,22,train
95.34192085266113,5,2,3,4,0,1,E+,1,1,5,400,600,250.0,1,D10SO,23,train
335.3090286254883,5,2,3,4,0,1,E+,1,3,2,400,600,250.0,3,D10SO,24,train
223.25706481933594,5,2,3,4,0,1,E+,1,1,5,400,600,250.0,1,D10SO,25,train
95.3981876373291,5,2,3,4,0,1,E+,0,4,3,400,600,250.0,5,D10SO,26,train
127.4409294128418,5,2,3,4,0,1,E+,1,1,5,400,600,250.0,1,D10SO,27,train
78.98306846618652,5,2,3,4,0,1,E+,1,0,4,400,600,250.0,0,D10SO,28,train
239.40682411193848,5,2,3,4,0,1,E+,1,5,0,400,600,250.0,5,D10SO,29,train
15.41900634765625,5,2,3,4,0,1,E+,1,0,4,400,600,250.0,0,D10SO,30,train
1343.2860374450684,5,2,3,4,0,1,E+,1,1,5,400,600,250.0,1,D10SO,31,train
95.33405303955078,5,2,3,4,0,1,E+,1,1,5,400,600,250.0,1,D10SO,32,train
31.373977661132812,5,2,3,4,0,1,E+,1,2,1,400,600,250.0,2,D10SO,33,train
95.36194801330566,5,2,3,4,0,1,E+,1,5,0,400,600,250.0,5,D10SO,34,train
0.052928924560546875,5,2,3,4,0,1,E+,1,0,4,400,600,250.0,0,D10SO,35,train
79.35309410095215,5,2,3,4,0,1,E+,1,0,4,400,600,250.0,0,D10SO,36,train
127.4411678314209,5,2,3,4,0,1,E+,1,2,1,400,600,250.0,2,D10SO,37,train
159.3918800354004,5,2,3,4,0,1,E+,1,3,2,400,600,250.0,3,D10SO,38,train
79.32400703430176,5,2,3,4,0,1,E+,1,0,4,400,600,250.0,0,D10SO,39,train
175.1728057861328,5,2,3,4,0,1,E+,1,3,2,400,600,250.0,3,D10SO,40,train
287.31799125671387,5,2,3,4,0,1,E+,1,2,1,400,600,250.0,2,D10SO,41,train
286.9758605957031,5,2,3,4,0,1,E+,1,0,4,400,600,250.0,0,D10SO,42,train
175.2481460571289,5,2,3,4,0,1,E+,1,2,1,400,600,250.0,2,D10SO,43,train
367.37918853759766,5,2,3,4,0,1,E+,1,4,3,400,600,250.0,4,D10SO,44,train
303.24816703796387,5,2,3,4,0,1,E+,1,4,3,400,600,250.0,4,D10SO,45,train
15.32602310180664,5,2,3,4,0,1,E+,0,2,1,400,600,250.0,1,D10SO,46,train
207.26490020751953,5,2,3,4,0,1,E+,1,5,0,400,600,250.0,5,D10SO,47,train
191.3890838623047,5,2,3,4,0,1,E+,1,1,5,400,600,250.0,1,D10SO,48,train
111.45591735839844,5,2,3,4,0,1,E+,1,2,1,400,600,250.0,2,D10SO,49,train
47.39117622375488,5,2,3,4,0,1,E+,1,0,4,400,600,250.0,0,D10SO,50,train
159.3191623687744,5,2,3,4,0,1,E+,1,4,3,400,600,250.0,4,D10SO,51,train
671.3359355926514,5,2,3,4,0,1,E+,1,5,0,400,600,250.0,5,D10SO,52,train
79.42700386047363,5,2,3,4,0,1,E+,1,1,5,400,600,250.0,1,D10SO,53,train
111.38510704040527,5,2,3,4,0,1,E+,0,5,0,400,600,250.0,4,D10SO,54,train
111.38391494750977,5,2,3,4,0,1,E+,1,0,4,400,600,250.0,0,D10SO,55,train
47.4090576171875,5,2,3,4,0,1,E+,1,5,0,400,600,250.0,5,D10SO,56,train
239.32480812072754,5,2,3,4,0,1,E+,1,2,1,400,600,250.0,2,D10SO,57,train
63.31610679626465,5,2,3,4,0,1,E+,1,2,1,400,600,250.0,2,D10SO,58,train
271.3508605957031,5,2,3,4,0,1,E+,1,1,5,400,600,250.0,1,D10SO,59,train
0.051975250244140625,5,2,3,4,0,1,E+,1,2,1,400,600,250.0,2,D10SO,60,train
47.26099967956543,5,2,3,4,0,1,E+,1,5,0,400,600,250.0,5,D10SO,61,train
239.33911323547363,5,2,3,4,0,1,E+,1,4,3,400,600,250.0,4,D10SO,62,train
191.30396842956543,5,2,3,4,0,1,E+,1,3,2,400,600,250.0,3,D10SO,63,train
111.40298843383789,5,2,3,4,0,1,E+,1,2,1,400,600,250.0,2,D10SO,64,train
95.40319442749023,5,2,3,4,0,1,E+,1,5,0,400,600,250.0,5,D10SO,65,train
63.34686279296875,5,2,3,4,0,1,E+,1,4,3,400,600,250.0,4,D10SO,66,train
63.45415115356445,5,2,3,4,0,1,E+,1,4,3,400,600,250.0,4,D10SO,67,train
0.051021575927734375,5,2,3,4,0,1,E+,1,4,3,400,600,250.0,4,D10SO,68,train
127.43091583251953,5,2,3,4,0,1,E+,1,1,5,400,600,250.0,1,D10SO,69,train
15.306949615478516,5,2,3,4,0,1,E+,1,2,1,400,600,250.0,2,D10SO,70,train
47.369956970214844,5,2,3,4,0,1,E+,1,1,5,400,600,250.0,1,D10SO,71,train
111.3128662109375,5,2,3,4,0,1,E+,1,5,0,400,600,250.0,5,D10SO,72,train
79.24795150756836,5,2,3,4,0,1,E+,1,3,2,400,600,250.0,3,D10SO,73,train
143.39494705200195,5,2,3,4,0,1,E+,1,0,4,400,600,250.0,0,D10SO,74,train
191.49017333984375,5,2,3,4,0,1,E+,1,3,2,400,600,250.0,3,D10SO,75,train
95.41010856628418,5,2,3,4,0,1,E+,1,1,5,400,600,250.0,1,D10SO,76,train
63.36688995361328,5,2,3,4,0,1,E+,1,3,2,400,600,250.0,3,D10SO,77,train
175.62413215637207,5,2,3,4,0,1,E+,0,5,0,400,600,250.0,4,D10SO,78,train
143.42904090881348,5,2,3,4,0,1,E+,1,3,2,400,600,250.0,3,D10SO,79,train
159.32703018188477,5,2,3,4,0,1,E+,1,5,0,400,600,250.0,5,D10SO,80,train
175.28080940246582,5,2,3,4,0,1,E+,1,2,1,400,600,250.0,2,D10SO,81,train
46.86617851257324,5,2,3,4,0,1,E+,1,1,5,400,600,250.0,1,D10SO,82,train
78.87482643127441,5,2,3,4,0,1,E+,1,0,4,400,600,250.0,0,D10SO,83,train
110.81695556640625,5,2,3,4,0,1,E+,1,1,5,400,600,250.0,1,D10SO,84,train
414.6418571472168,5,2,3,4,0,1,E+,1,2,1,400,600,250.0,2,D10SO,85,train
174.7448444366455,5,2,3,4,0,1,E+,0,4,3,400,600,250.0,3,D10SO,86,train
30.8380126953125,5,2,3,4,0,1,E+,1,4,3,400,600,250.0,4,D10SO,87,train
494.5559501647949,5,2,3,4,0,1,E+,1,3,2,400,600,250.0,3,D10SO,88,train
286.7097854614258,5,2,3,4,0,1,E+,1,1,5,400,600,250.0,1,D10SO,89,train
62.875986099243164,5,2,3,4,0,1,E+,1,1,5,400,600,250.0,1,D10SO,90,train
126.76215171813965,5,2,3,4,0,1,E+,1,1,5,400,600,250.0,1,D10SO,91,train
478.5878658294678,5,2,3,4,0,1,E+,1,1,5,400,600,250.0,1,D10SO,92,train
207.11708068847656,5,2,3,4,0,1,E+,1,5,0,400,600,250.0,5,D10SO,93,train
334.6529006958008,5,2,3,4,0,1,E+,1,5,0,400,600,250.0,5,D10SO,94,train
111.04798316955566,5,2,3,4,0,1,E+,1,3,2,400,600,250.0,3,D10SO,95,train
158.77103805541992,5,2,3,4,0,1,E+,0,2,1,400,600,250.0,1,D10SO,96,train
222.7039337158203,5,2,3,4,0,1,E+,1,4,3,400,600,250.0,4,D10SO,97,train
94.85602378845215,5,2,3,4,0,1,E+,1,3,2,400,600,250.0,3,D10SO,98,train
190.74106216430664,5,2,3,4,0,1,E+,1,5,0,400,600,250.0,5,D10SO,99,train
110.84294319152832,5,2,3,4,0,1,E+,1,1,5,400,600,250.0,1,D10SO,100,train
158.8289737701416,5,2,3,4,0,1,E+,1,1,5,400,600,250.0,1,D10SO,101,train
143.08905601501465,5,2,3,4,0,1,E+,1,2,1,400,600,250.0,2,D10SO,102,train
127.40707397460938,5,2,3,4,0,1,E+,1,5,0,400,600,250.0,5,D10SO,103,train
143.3730125427246,5,2,3,4,0,1,E+,1,1,5,400,600,250.0,1,D10SO,104,train
223.3130931854248,5,2,3,4,0,1,E+,1,3,2,400,600,250.0,3,D10SO,105,train
127.28190422058105,5,2,3,4,0,1,E+,1,4,3,400,600,250.0,4,D10SO,106,train
0.05507469177246094,5,2,3,4,0,1,E+,1,3,2,400,600,250.0,3,D10SO,107,train
127.40302085876465,5,2,3,4,0,1,E+,1,0,4,400,600,250.0,0,D10SO,108,train
111.39488220214844,5,2,3,4,0,1,E+,1,3,2,400,600,250.0,3,D10SO,109,train
111.05489730834961,5,2,3,4,0,1,E+,1,0,4,400,600,250.0,0,D10SO,110,train
223.2217788696289,5,2,3,4,0,1,E+,1,2,1,400,600,250.0,2,D10SO,111,train
191.32614135742188,5,2,3,4,0,1,E+,1,5,0,400,600,250.0,5,D10SO,112,train
191.03407859802246,5,2,3,4,0,1,E+,1,4,3,400,600,250.0,4,D10SO,113,train
239.3040657043457,5,2,3,4,0,1,E+,1,2,1,400,600,250.0,2,D10SO,114,train
159.37495231628418,5,2,3,4,0,1,E+,1,1,5,400,600,250.0,1,D10SO,115,train
31.301021575927734,5,2,3,4,0,1,E+,1,5,0,400,600,250.0,5,D10SO,116,train
127.40492820739746,5,2,3,4,0,1,E+,0,1,5,400,600,250.0,0,D10SO,117,train
447.34692573547363,5,2,3,4,0,1,E+,0,4,3,400,600,250.0,3,D10SO,118,train
191.40291213989258,5,2,3,4,0,1,E+,1,1,5,400,600,250.0,1,D10SO,119,train
95.39794921875,5,2,3,4,0,1,E+,1,1,5,400,600,250.0,1,D10SO,120,train
159.4090461730957,5,2,3,4,0,1,E+,1,0,4,400,600,250.0,0,D10SO,121,train
383.253812789917,5,2,3,4,0,1,E+,0,2,1,400,600,250.0,3,D10SO,122,train
207.29398727416992,5,2,3,4,0,1,E+,1,3,2,400,600,250.0,3,D10SO,123,train
143.66412162780762,5,2,3,4,0,1,E+,1,2,1,400,600,250.0,2,D10SO,124,train
351.3009548187256,5,2,3,4,0,1,E+,1,5,0,400,600,250.0,5,D10SO,125,train
15.276193618774414,5,2,3,4,0,1,E+,1,4,3,400,600,250.0,4,D10SO,126,train
127.42090225219727,5,2,3,4,0,1,E+,1,1,5,400,600,250.0,1,D10SO,127,train
127.53701210021973,5,2,3,4,0,1,E+,1,4,3,400,600,250.0,4,D10SO,128,train
191.24603271484375,5,2,3,4,0,1,E+,1,0,4,400,600,250.0,0,D10SO,129,train
143.3711051940918,5,2,3,4,0,1,E+,1,1,5,400,600,250.0,1,D10SO,130,train
63.39097023010254,5,2,3,4,0,1,E+,1,5,0,400,600,250.0,5,D10SO,131,train
47.34492301940918,5,2,3,4,0,1,E+,1,3,2,400,600,250.0,3,D10SO,132,train
127.43782997131348,5,2,3,4,0,1,E+,1,5,0,400,600,250.0,5,D10SO,133,train
127.36392021179199,5,2,3,4,0,1,E+,1,5,0,400,600,250.0,5,D10SO,134,train
191.27702713012695,5,2,3,4,0,1,E+,1,2,1,400,600,250.0,2,D10SO,135,train
47.44291305541992,5,2,3,4,0,1,E+,1,3,2,400,600,250.0,3,D10SO,136,train
63.34209442138672,5,2,3,4,0,1,E+,1,3,2,400,600,250.0,3,D10SO,137,train
31.39019012451172,5,2,3,4,0,1,E+,1,5,0,400,600,250.0,5,D10SO,138,train
79.32400703430176,5,2,3,4,0,1,E+,1,3,2,400,600,250.0,3,D10SO,139,train
15.391826629638672,5,2,3,4,0,1,E+,1,5,0,400,600,250.0,5,D10SO,140,train
159.2731475830078,5,2,3,4,0,1,E+,1,2,1,400,600,250.0,2,D10SO,141,train
111.29498481750488,5,2,3,4,0,1,E+,1,0,4,400,600,250.0,0,D10SO,142,train
79.25200462341309,5,2,3,4,0,1,E+,1,5,0,400,600,250.0,5,D10SO,143,train
47.363996505737305,5,2,3,4,0,1,E+,1,0,4,400,600,250.0,0,D10SO,144,train
143.5379981994629,5,2,3,4,0,1,E+,1,1,5,400,600,250.0,1,D10SO,145,train
47.35398292541504,5,2,3,4,0,1,E+,1,5,0,400,600,250.0,5,D10SO,146,train
191.3280487060547,5,2,3,4,0,1,E+,1,2,1,400,600,250.0,2,D10SO,147,train
95.3969955444336,5,2,3,4,0,1,E+,1,3,2,400,600,250.0,3,D10SO,148,train
527.3020267486572,5,2,3,4,0,1,E+,1,4,3,400,600,250.0,4,D10SO,149,train
95.43085098266602,5,2,3,4,0,1,E+,1,2,1,400,600,250.0,2,D10SO,150,train
159.42096710205078,5,2,3,4,0,1,E+,1,1,5,400,600,250.0,1,D10SO,151,train
175.35686492919922,5,2,3,4,0,1,E+,1,2,1,400,600,250.0,2,D10SO,152,train
175.36401748657227,5,2,3,4,0,1,E+,1,1,5,400,600,250.0,1,D10SO,153,train
79.44488525390625,5,2,3,4,0,1,E+,1,2,1,400,600,250.0,2,D10SO,154,train
111.32502555847168,5,2,3,4,0,1,E+,1,5,0,400,600,250.0,5,D10SO,155,train
95.40510177612305,5,2,3,4,0,1,E+,1,0,4,400,600,250.0,0,D10SO,156,train
111.36698722839355,5,2,3,4,0,1,E+,1,2,1,400,600,250.0,2,D10SO,157,train
31.341075897216797,5,2,3,4,0,1,E+,1,2,1,400,600,250.0,2,D10SO,158,train
143.31698417663574,5,2,3,4,0,1,E+,1,0,4,400,600,250.0,0,D10SO,159,train
143.30315589904785,5,2,3,4,0,1,E+,1,1,5,400,600,250.0,1,D10SO,160,train
95.34001350402832,5,2,3,4,0,1,E+,1,1,5,400,600,250.0,1,D10SO,161,train
111.28401756286621,5,2,3,4,0,1,E+,1,2,1,400,600,250.0,2,D10SO,162,train
111.33003234863281,5,2,3,4,0,1,E+,0,4,3,400,600,250.0,5,D10SO,163,train
287.22214698791504,5,2,3,4,0,1,E+,1,3,2,400,600,250.0,3,D10SO,164,train
111.34696006774902,5,2,3,4,0,1,E+,1,0,4,400,600,250.0,0,D10SO,165,train
63.31801414489746,5,2,3,4,0,1,E+,1,0,4,400,600,250.0,0,D10SO,166,train
367.3520088195801,5,2,3,4,0,1,E+,1,4,3,400,600,250.0,4,D10SO,167,train
575.3710269927979,5,2,3,4,0,1,E+,1,3,2,400,600,250.0,3,D10SO,168,train
143.34511756896973,5,2,3,4,0,1,E+,1,2,1,400,600,250.0,2,D10SO,169,train
207.3049545288086,5,2,3,4,0,1,E+,1,4,3,400,600,250.0,4,D10SO,170,train
127.35199928283691,5,2,3,4,0,1,E+,1,0,4,400,600,250.0,0,D10SO,171,train
79.39910888671875,5,2,3,4,0,1,E+,1,4,3,400,600,250.0,4,D10SO,172,train
207.31306076049805,5,2,3,4,0,1,E+,0,1,5,400,600,250.0,0,D10SO,173,train
111.47499084472656,5,2,3,4,0,1,E+,1,3,2,400,600,250.0,3,D10SO,174,train
111.36198043823242,5,2,3,4,0,1,E+,1,4,3,400,600,250.0,4,D10SO,175,train
111.39416694641113,5,2,3,4,0,1,E+,1,0,4,400,600,250.0,0,D10SO,176,train
191.34998321533203,5,2,3,4,0,1,E+,1,3,2,400,600,250.0,3,D10SO,177,train
175.39000511169434,5,2,3,4,0,1,E+,1,1,5,400,600,250.0,1,D10SO,178,train
431.337833404541,5,2,3,4,0,1,E+,1,1,5,400,600,250.0,1,D10SO,179,train
655.3058624267578,5,2,3,4,0,1,E+,1,3,2,400,600,250.0,3,D10SO,180,train
191.3130283355713,5,2,3,4,0,1,E+,1,1,5,400,600,250.0,1,D10SO,181,train
159.3151092529297,5,2,3,4,0,1,E+,1,3,2,400,600,250.0,3,D10SO,182,train
207.33904838562012,5,2,3,4,0,1,E+,1,0,4,400,600,250.0,0,D10SO,183,train
655.4238796234131,5,2,3,4,0,1,E+,1,2,1,400,600,250.0,2,D10SO,184,train
399.5380401611328,5,2,3,4,0,1,E+,0,4,3,400,600,250.0,3,D10SO,185,train
383.314847946167,5,2,3,4,0,1,E+,1,0,4,400,600,250.0,0,D10SO,186,train
111.44495010375977,5,2,3,4,0,1,E+,1,3,2,400,600,250.0,3,D10SO,187,train
159.3770980834961,5,2,3,4,0,1,E+,1,1,5,400,600,250.0,1,D10SO,188,train
159.4078540802002,5,2,3,4,0,1,E+,1,2,1,400,600,250.0,2,D10SO,189,train
159.17396545410156,5,2,3,4,0,1,E+,1,4,3,400,600,250.0,4,D10SO,190,train
207.3361873626709,5,2,3,4,0,1,E+,1,1,5,400,600,250.0,1,D10SO,191,train
111.39416694641113,5,2,3,4,0,1,E+,1,2,1,400,600,250.0,2,D10SO,192,train
110.63098907470703,5,2,3,4,0,1,E+,1,4,3,400,600,250.0,4,D10SO,193,train
31.39495849609375,5,2,3,4,0,1,E+,1,4,3,400,600,250.0,4,D10SO,194,train
127.4111270904541,5,2,3,4,0,1,E+,1,0,4,400,600,250.0,0,D10SO,195,train
47.34206199645996,5,2,3,4,0,1,E+,1,4,3,400,600,250.0,4,D10SO,196,train
63.30609321594238,5,2,3,4,0,1,E+,1,1,5,400,600,250.0,1,D10SO,197,train
63.31801414489746,5,2,3,4,0,1,E+,1,0,4,400,600,250.0,0,D10SO,198,train
63.29703330993652,5,2,3,4,0,1,E+,1,3,2,400,600,250.0,3,D10SO,199,train
0.051975250244140625,5,2,3,4,0,1,E+,1,3,2,400,600,250.0,3,D10SO,200,train
191.37215614318848,5,2,3,4,0,1,E+,1,0,4,400,600,250.0,0,D10SO,201,train
127.42018699645996,5,2,3,4,0,1,E+,1,5,0,400,600,250.0,5,D10SO,202,train
127.41398811340332,5,2,3,4,0,1,E+,1,0,4,400,600,250.0,0,D10SO,203,train
47.27292060852051,5,2,3,4,0,1,E+,1,5,0,400,600,250.0,5,D10SO,204,train
127.34413146972656,5,2,3,4,0,1,E+,1,4,3,400,600,250.0,4,D10SO,205,train
15.459060668945312,5,2,3,4,0,1,E+,1,4,3,400,600,250.0,4,D10SO,206,train
399.0039825439453,5,2,3,4,0,1,E+,1,3,2,400,600,250.0,3,D10SO,207,train
79.39696311950684,5,2,3,4,0,1,E+,1,5,0,400,600,250.0,5,D10SO,208,train
47.389984130859375,5,2,3,4,0,1,E+,1,4,3,400,600,250.0,4,D10SO,209,train
63.36402893066406,5,2,3,4,0,1,E+,1,0,4,400,600,250.0,0,D10SO,210,train
95.38388252258301,5,2,3,4,0,1,E+,1,1,5,400,600,250.0,1,D10SO,211,train
0.052928924560546875,5,2,3,4,0,1,E+,1,0,4,400,600,250.0,0,D10SO,212,train
365.1411533355713,5,2,3,4,0,1,E+,1,4,3,400,600,250.0,4,D10SO,213,train
127.01010704040527,5,2,3,4,0,1,E+,1,5,0,400,600,250.0,5,D10SO,214,train
31.42404556274414,5,2,3,4,0,1,E+,1,3,2,400,600,250.0,3,D10SO,215,train
127.45285034179688,5,2,3,4,0,1,E+,1,4,3,400,600,250.0,4,D10SO,216,train
63.398122787475586,5,2,3,4,0,1,E+,1,4,3,400,600,250.0,4,D10SO,217,train
31.45003318786621,5,2,3,4,0,1,E+,0,2,1,400,600,250.0,3,D10SO,218,train
47.567129135131836,5,2,3,4,0,1,E+,1,2,1,400,600,250.0,2,D10SO,219,train
31.36897087097168,5,2,3,4,0,1,E+,1,1,5,400,600,250.0,1,D10SO,220,train
79.31900024414062,5,2,3,4,0,1,E+,1,3,2,400,600,250.0,3,D10SO,221,train
143.3889865875244,5,2,3,4,0,1,E+,1,4,3,400,600,250.0,4,D10SO,222,train
175.22883415222168,5,2,3,4,0,1,E+,1,5,0,400,600,250.0,5,D10SO,223,train
127.40516662597656,5,2,3,4,0,1,E+,1,4,3,400,600,250.0,4,D10SO,224,train
95.45397758483887,5,2,3,4,0,1,E+,1,1,5,400,600,250.0,1,D10SO,225,train
127.3050308227539,5,2,3,4,0,1,E+,0,5,0,400,600,250.0,4,D10SO,226,train
207.43894577026367,5,2,3,4,0,1,E+,1,1,5,400,600,250.0,1,D10SO,227,train
63.3389949798584,5,2,3,4,0,1,E+,0,3,2,400,600,250.0,4,D10SO,228,train
191.30897521972656,5,2,3,4,0,1,E+,1,2,1,400,600,250.0,2,D10SO,229,train
15.354156494140625,5,2,3,4,0,1,E+,1,3,2,400,600,250.0,3,D10SO,230,train
159.40093994140625,5,2,3,4,0,1,E+,1,5,0,400,600,250.0,5,D10SO,231,train
63.42601776123047,5,2,3,4,0,1,E+,1,5,0,400,600,250.0,5,D10SO,232,train
543.3509349822998,5,2,3,4,0,1,E+,0,3,2,400,600,250.0,2,D10SO,233,train
63.27700614929199,5,2,3,4,0,1,E+,1,3,2,400,600,250.0,3,D10SO,234,train
63.356876373291016,5,2,3,4,0,1,E+,1,4,3,400,600,250.0,4,D10SO,235,train
15.340089797973633,5,2,3,4,0,1,E+,1,4,3,400,600,250.0,4,D10SO,236,train
111.36388778686523,5,2,3,4,0,1,E+,1,0,4,400,600,250.0,0,D10SO,237,train
271.27909660339355,5,2,3,4,0,1,E+,1,4,3,400,600,250.0,4,D10SO,238,train
63.481807708740234,5,2,3,4,0,1,E+,1,3,2,400,600,250.0,3,D10SO,239,train
95.31211853027344,5,2,3,4,0,1,E+,1,0,4,400,600,250.0,0,D10SO,240,train
127.33101844787598,5,2,3,4,0,1,E+,1,5,0,400,600,250.0,5,D10SO,241,train
0.05507469177246094,5,2,3,4,0,1,E+,1,4,3,400,600,250.0,4,D10SO,242,train
47.33109474182129,5,2,3,4,0,1,E+,1,4,3,400,600,250.0,4,D10SO,243,train
671.3058948516846,5,2,3,4,0,1,E+,1,4,3,400,600,250.0,4,D10SO,244,train
239.2408847808838,5,2,3,4,0,1,E+,1,1,5,400,600,250.0,1,D10SO,245,train
63.74692916870117,5,2,3,4,0,1,E+,1,2,1,400,600,250.0,2,D10SO,246,train
143.63694190979004,5,2,3,4,0,1,E+,1,5,0,400,600,250.0,5,D10SO,247,train
319.31495666503906,5,2,3,4,0,1,E+,1,1,5,400,600,250.0,1,D10SO,248,train
191.3321018218994,5,2,3,4,0,1,E+,1,5,0,400,600,250.0,5,D10SO,249,train
2336.5559577941895,5,2,3,4,0,1,E+,1,0,4,0,1000,250.0,0,D10SO,250,test
1168.647050857544,5,2,3,4,0,1,E+,1,5,0,0,1000,250.0,5,D10SO,251,test
1153.0640125274658,5,2,3,4,0,1,E+,1,5,0,0,1000,250.0,5,D10SO,252,test
689.0058517456055,5,2,3,4,0,1,E+,1,3,2,0,1000,250.0,3,D10SO,253,test
1169.0659523010254,5,2,3,4,0,1,E+,1,5,0,0,1000,250.0,5,D10SO,254,test
705.3320407867432,5,2,3,4,0,1,E+,0,4,3,0,1000,250.0,5,D10SO,255,test
689.0461444854736,5,2,3,4,0,1,E+,1,3,2,0,1000,250.0,3,D10SO,256,test
1345.047950744629,5,2,3,4,0,1,E+,1,0,4,0,1000,250.0,0,D10SO,257,test
1057.0659637451172,5,2,3,4,0,1,E+,0,4,3,0,1000,250.0,5,D10SO,258,test
720.9291458129883,5,2,3,4,0,1,E+,0,2,1,0,1000,250.0,3,D10SO,259,test
513.0059719085693,5,2,3,4,0,1,E+,1,2,1,0,1000,250.0,2,D10SO,260,test
1537.0829105377197,5,2,3,4,0,1,E+,1,0,4,0,1000,250.0,0,D10SO,261,test
625.0288486480713,5,2,3,4,0,1,E+,1,0,4,0,1000,250.0,0,D10SO,262,test
897.1641063690186,5,2,3,4,0,1,E+,1,1,5,0,1000,250.0,1,D10SO,263,test
1137.1099948883057,5,2,3,4,0,1,E+,1,2,1,0,1000,250.0,2,D10SO,264,test
513.0338668823242,5,2,3,4,0,1,E+,1,3,2,0,1000,250.0,3,D10SO,265,test
833.1179618835449,5,2,3,4,0,1,E+,1,2,1,0,1000,250.0,2,D10SO,266,test
560.9300136566162,5,2,3,4,0,1,E+,1,3,2,0,1000,250.0,3,D10SO,267,test
993.0708408355713,5,2,3,4,0,1,E+,1,1,5,0,1000,250.0,1,D10SO,268,test
2737.1151447296143,5,2,3,4,0,1,E+,1,4,3,0,1000,250.0,4,D10SO,269,test
561.0079765319824,5,2,3,4,0,1,E+,1,3,2,0,1000,250.0,3,D10SO,270,test
865.0557994842529,5,2,3,4,0,1,E+,1,1,5,0,1000,250.0,1,D10SO,271,test
1505.0418376922607,5,2,3,4,0,1,E+,1,4,3,0,1000,250.0,4,D10SO,272,test
1137.078046798706,5,2,3,4,0,1,E+,1,2,1,0,1000,250.0,2,D10SO,273,test
577.0869255065918,5,2,3,4,0,1,E+,1,4,3,0,1000,250.0,4,D10SO,274,test
688.9932155609131,5,2,3,4,0,1,E+,0,4,3,0,1000,250.0,2,D10SO,275,test
1184.9071979522705,5,2,3,4,0,1,E+,1,5,0,0,1000,250.0,5,D10SO,276,test
384.95516777038574,5,2,3,4,0,1,E+,1,3,2,0,1000,250.0,3,D10SO,277,test
464.9651050567627,5,2,3,4,0,1,E+,1,3,2,0,1000,250.0,3,D10SO,278,test
449.0969181060791,5,2,3,4,0,1,E+,1,3,2,0,1000,250.0,3,D10SO,279,test
801.0079860687256,5,2,3,4,0,1,E+,1,2,1,0,1000,250.0,2,D10SO,280,test
737.0858192443848,5,2,3,4,0,1,E+,1,5,0,0,1000,250.0,5,D10SO,281,test
720.9827899932861,5,2,3,4,0,1,E+,0,1,5,0,1000,250.0,2,D10SO,282,test
1153.1181335449219,5,2,3,4,0,1,E+,1,5,0,0,1000,250.0,5,D10SO,283,test
528.9769172668457,5,2,3,4,0,1,E+,1,3,2,0,1000,250.0,3,D10SO,284,test
513.0620002746582,5,2,3,4,0,1,E+,1,3,2,0,1000,250.0,3,D10SO,285,test
1296.971082687378,5,2,3,4,0,1,E+,1,5,0,0,1000,250.0,5,D10SO,286,test
384.9670886993408,5,2,3,4,0,1,E+,1,0,4,0,1000,250.0,0,D10SO,287,test
833.1160545349121,5,2,3,4,0,1,E+,1,4,3,0,1000,250.0,4,D10SO,288,test
704.754114151001,5,2,3,4,0,1,E+,1,2,1,0,1000,250.0,2,D10SO,289,test
768.5868740081787,5,2,3,4,0,1,E+,1,5,0,0,1000,250.0,5,D10SO,290,test
768.6939239501953,5,2,3,4,0,1,E+,1,2,1,0,1000,250.0,2,D10SO,291,test
576.6201019287109,5,2,3,4,0,1,E+,1,1,5,0,1000,250.0,1,D10SO,292,test
1568.4177875518799,5,2,3,4,0,1,E+,1,5,0,0,1000,250.0,5,D10SO,293,test
608.604907989502,5,2,3,4,0,1,E+,1,0,4,0,1000,250.0,0,D10SO,294,test
496.60706520080566,5,2,3,4,0,1,E+,1,3,2,0,1000,250.0,3,D10SO,295,test
1104.6640872955322,5,2,3,4,0,1,E+,1,4,3,0,1000,250.0,4,D10SO,296,test
1008.6328983306885,5,2,3,4,0,1,E+,1,1,5,0,1000,250.0,1,D10SO,297,test
432.5430393218994,5,2,3,4,0,1,E+,1,3,2,0,1000,250.0,3,D10SO,298,test
1504.5740604400635,5,2,3,4,0,1,E+,1,2,1,0,1000,250.0,2,D10SO,299,test
416.5019989013672,5,2,3,4,0,1,E+,1,2,1,0,1000,250.0,2,D10SO,300,test
1392.6291465759277,5,2,3,4,0,1,E+,0,1,5,0,1000,250.0,0,D10SO,301,test
656.6379070281982,5,2,3,4,0,1,E+,1,5,0,0,1000,250.0,5,D10SO,302,test
752.6230812072754,5,2,3,4,0,1,E+,1,2,1,0,1000,250.0,2,D10SO,303,test
2096.674919128418,5,2,3,4,0,1,E+,1,5,0,0,1000,250.0,5,D10SO,304,test
640.6259536743164,5,2,3,4,0,1,E+,1,5,0,0,1000,250.0,5,D10SO,305,test
1136.6009712219238,5,2,3,4,0,1,E+,1,0,4,0,1000,250.0,0,D10SO,306,test
672.6710796356201,5,2,3,4,0,1,E+,1,1,5,0,1000,250.0,1,D10SO,307,test
896.5718746185303,5,2,3,4,0,1,E+,1,4,3,0,1000,250.0,4,D10SO,308,test
1008.5711479187012,5,2,3,4,0,1,E+,1,1,5,0,1000,250.0,1,D10SO,309,test
480.56888580322266,5,2,3,4,0,1,E+,1,1,5,0,1000,250.0,1,D10SO,310,test
480.557918548584,5,2,3,4,0,1,E+,1,3,2,0,1000,250.0,3,D10SO,311,test
608.5629463195801,5,2,3,4,0,1,E+,1,0,4,0,1000,250.0,0,D10SO,312,test
1120.6259727478027,5,2,3,4,0,1,E+,1,5,0,0,1000,250.0,5,D10SO,313,test
816.5609836578369,5,2,3,4,0,1,E+,1,3,2,0,1000,250.0,3,D10SO,314,test
528.5990238189697,5,2,3,4,0,1,E+,1,3,2,0,1000,250.0,3,D10SO,315,test
592.613935470581,5,2,3,4,0,1,E+,1,0,4,0,1000,250.0,0,D10SO,316,test
512.5579833984375,5,2,3,4,0,1,E+,1,0,4,0,1000,250.0,0,D10SO,317,test
1185.0848197937012,5,2,3,4,0,1,E+,1,5,0,0,1000,250.0,5,D10SO,318,test
592.993974685669,5,2,3,4,0,1,E+,1,4,3,0,1000,250.0,4,D10SO,319,test
528.9409160614014,5,2,3,4,0,1,E+,1,0,4,0,1000,250.0,0,D10SO,320,test
593.0371284484863,5,2,3,4,0,1,E+,1,5,0,0,1000,250.0,5,D10SO,321,test
512.9468441009521,5,2,3,4,0,1,E+,1,3,2,0,1000,250.0,3,D10SO,322,test
400.9740352630615,5,2,3,4,0,1,E+,1,0,4,0,1000,250.0,0,D10SO,323,test
448.98390769958496,5,2,3,4,0,1,E+,0,2,1,0,1000,250.0,3,D10SO,324,test
528.9878845214844,5,2,3,4,0,1,E+,1,1,5,0,1000,250.0,1,D10SO,325,test
657.106876373291,5,2,3,4,0,1,E+,1,2,1,0,1000,250.0,2,D10SO,326,test
704.9310207366943,5,2,3,4,0,1,E+,1,0,4,0,1000,250.0,0,D10SO,327,test
384.54389572143555,5,2,3,4,0,1,E+,1,0,4,0,1000,250.0,0,D10SO,328,test
801.0118007659912,5,2,3,4,0,1,E+,1,5,0,0,1000,250.0,5,D10SO,329,test
481.45222663879395,5,2,3,4,0,1,E+,1,0,4,0,1000,250.0,0,D10SO,330,test
576.5500068664551,5,2,3,4,0,1,E+,1,3,2,0,1000,250.0,3,D10SO,331,test
448.56882095336914,5,2,3,4,0,1,E+,1,4,3,0,1000,250.0,4,D10SO,332,test
464.52784538269043,5,2,3,4,0,1,E+,1,3,2,0,1000,250.0,3,D10SO,333,test
464.59412574768066,5,2,3,4,0,1,E+,1,3,2,0,1000,250.0,3,D10SO,334,test
752.5780200958252,5,2,3,4,0,1,E+,1,2,1,0,1000,250.0,2,D10SO,335,test
560.5311393737793,5,2,3,4,0,1,E+,1,0,4,0,1000,250.0,0,D10SO,336,test
880.5320262908936,5,2,3,4,0,1,E+,1,1,5,0,1000,250.0,1,D10SO,337,test
464.6470546722412,5,2,3,4,0,1,E+,1,3,2,0,1000,250.0,3,D10SO,338,test
816.50710105896,5,2,3,4,0,1,E+,1,0,4,0,1000,250.0,0,D10SO,339,test
624.5341300964355,5,2,3,4,0,1,E+,1,4,3,0,1000,250.0,4,D10SO,340,test
528.5470485687256,5,2,3,4,0,1,E+,1,3,2,0,1000,250.0,3,D10SO,341,test
1376.5869140625,5,2,3,4,0,1,E+,1,5,0,0,1000,250.0,5,D10SO,342,test
512.639045715332,5,2,3,4,0,1,E+,1,4,3,0,1000,250.0,4,D10SO,343,test
544.5871353149414,5,2,3,4,0,1,E+,1,3,2,0,1000,250.0,3,D10SO,344,test
848.5889434814453,5,2,3,4,0,1,E+,1,5,0,0,1000,250.0,5,D10SO,345,test
496.60491943359375,5,2,3,4,0,1,E+,1,2,1,0,1000,250.0,2,D10SO,346,test
689.0401840209961,5,2,3,4,0,1,E+,1,1,5,0,1000,250.0,1,D10SO,347,test
545.0148582458496,5,2,3,4,0,1,E+,1,4,3,0,1000,250.0,4,D10SO,348,test
560.981035232544,5,2,3,4,0,1,E+,1,3,2,0,1000,250.0,3,D10SO,349,test
1200.9670734405518,5,2,3,4,0,1,E+,1,5,0,0,1000,250.0,5,D10SO,350,test
1600.977897644043,5,2,3,4,0,1,E+,1,0,4,0,1000,250.0,0,D10SO,351,test
560.9230995178223,5,2,3,4,0,1,E+,1,4,3,0,1000,250.0,4,D10SO,352,test
465.0459289550781,5,2,3,4,0,1,E+,1,4,3,0,1000,250.0,4,D10SO,353,test
496.8070983886719,5,2,3,4,0,1,E+,1,0,4,0,1000,250.0,0,D10SO,354,test
1153.0399322509766,5,2,3,4,0,1,E+,1,5,0,0,1000,250.0,5,D10SO,355,test
960.9889984130859,5,2,3,4,0,1,E+,1,0,4,0,1000,250.0,0,D10SO,356,test
672.9719638824463,5,2,3,4,0,1,E+,1,2,1,0,1000,250.0,2,D10SO,357,test
672.9640960693359,5,2,3,4,0,1,E+,1,1,5,0,1000,250.0,1,D10SO,358,test
689.0490055084229,5,2,3,4,0,1,E+,1,1,5,0,1000,250.0,1,D10SO,359,test
689.039945602417,5,2,3,4,0,1,E+,1,0,4,0,1000,250.0,0,D10SO,360,test
544.9850559234619,5,2,3,4,0,1,E+,1,1,5,0,1000,250.0,1,D10SO,361,test
1217.081069946289,5,2,3,4,0,1,E+,1,5,0,0,1000,250.0,5,D10SO,362,test
641.0050392150879,5,2,3,4,0,1,E+,1,4,3,0,1000,250.0,4,D10SO,363,test
609.018087387085,5,2,3,4,0,1,E+,0,2,1,0,1000,250.0,1,D10SO,364,test
945.0900554656982,5,2,3,4,0,1,E+,1,0,4,0,1000,250.0,0,D10SO,365,test
833.0051898956299,5,2,3,4,0,1,E+,1,2,1,0,1000,250.0,2,D10SO,366,test
464.92505073547363,5,2,3,4,0,1,E+,1,2,1,0,1000,250.0,2,D10SO,367,test
1009.0858936309814,5,2,3,4,0,1,E+,1,0,4,0,1000,250.0,0,D10SO,368,test
577.0468711853027,5,2,3,4,0,1,E+,1,5,0,0,1000,250.0,5,D10SO,369,test
657.0398807525635,5,2,3,4,0,1,E+,1,2,1,0,1000,250.0,2,D10SO,370,test
849.0750789642334,5,2,3,4,0,1,E+,1,2,1,0,1000,250.0,2,D10SO,371,test
1568.6249732971191,5,2,3,4,0,1,E+,1,5,0,0,1000,250.0,5,D10SO,372,test
497.01690673828125,5,2,3,4,0,1,E+,1,5,0,0,1000,250.0,5,D10SO,373,test
384.8080635070801,5,2,3,4,0,1,E+,1,1,5,0,1000,250.0,1,D10SO,374,test
1136.5909576416016,5,2,3,4,0,1,E+,1,0,4,0,1000,250.0,0,D10SO,375,test
432.6169490814209,5,2,3,4,0,1,E+,1,0,4,0,1000,250.0,0,D10SO,376,test
528.9809703826904,5,2,3,4,0,1,E+,1,5,0,0,1000,250.0,5,D10SO,377,test
641.0079002380371,5,2,3,4,0,1,E+,1,4,3,0,1000,250.0,4,D10SO,378,test
544.9461936950684,5,2,3,4,0,1,E+,1,4,3,0,1000,250.0,4,D10SO,379,test
641.0191059112549,5,2,3,4,0,1,E+,1,3,2,0,1000,250.0,3,D10SO,380,test
545.0279712677002,5,2,3,4,0,1,E+,1,2,1,0,1000,250.0,2,D10SO,381,test
1681.0939311981201,5,2,3,4,0,1,E+,1,5,0,0,1000,250.0,5,D10SO,382,test
529.0811061859131,5,2,3,4,0,1,E+,1,4,3,0,1000,250.0,4,D10SO,383,test
512.5949382781982,5,2,3,4,0,1,E+,1,0,4,0,1000,250.0,0,D10SO,384,test
608.5679531097412,5,2,3,4,0,1,E+,1,1,5,0,1000,250.0,1,D10SO,385,test
592.6110744476318,5,2,3,4,0,1,E+,1,4,3,0,1000,250.0,4,D10SO,386,test
976.5269756317139,5,2,3,4,0,1,E+,1,3,2,0,1000,250.0,3,D10SO,387,test
720.6590175628662,5,2,3,4,0,1,E+,1,1,5,0,1000,250.0,1,D10SO,388,test
528.5952091217041,5,2,3,4,0,1,E+,0,2,1,0,1000,250.0,3,D10SO,389,test
496.5798854827881,5,2,3,4,0,1,E+,1,2,1,0,1000,250.0,2,D10SO,390,test
560.4441165924072,5,2,3,4,0,1,E+,1,4,3,0,1000,250.0,4,D10SO,391,test
576.5519142150879,5,2,3,4,0,1,E+,1,1,5,0,1000,250.0,1,D10SO,392,test
496.5798854827881,5,2,3,4,0,1,E+,1,1,5,0,1000,250.0,1,D10SO,393,test
496.69504165649414,5,2,3,4,0,1,E+,1,3,2,0,1000,250.0,3,D10SO,394,test
624.6659755706787,5,2,3,4,0,1,E+,1,5,0,0,1000,250.0,5,D10SO,395,test
1856.5819263458252,5,2,3,4,0,1,E+,1,0,4,0,1000,250.0,0,D10SO,396,test
592.8938388824463,5,2,3,4,0,1,E+,1,4,3,0,1000,250.0,4,D10SO,397,test
608.6330413818359,5,2,3,4,0,1,E+,1,4,3,0,1000,250.0,4,D10SO,398,test
1024.580955505371,5,2,3,4,0,1,E+,1,2,1,0,1000,250.0,2,D10SO,399,test
544.5652008056641,5,2,3,4,0,1,E+,1,4,3,0,1000,250.0,4,D10SO,400,test
640.6240463256836,5,2,3,4,0,1,E+,1,5,0,0,1000,250.0,5,D10SO,401,test
624.5198249816895,5,2,3,4,0,1,E+,1,3,2,0,1000,250.0,3,D10SO,402,test
928.645133972168,5,2,3,4,0,1,E+,1,5,0,0,1000,250.0,5,D10SO,403,test
496.5839385986328,5,2,3,4,0,1,E+,0,2,1,0,1000,250.0,3,D10SO,404,test
768.618106842041,5,2,3,4,0,1,E+,1,1,5,0,1000,250.0,1,D10SO,405,test
624.6039867401123,5,2,3,4,0,1,E+,1,5,0,0,1000,250.0,5,D10SO,406,test
656.4691066741943,5,2,3,4,0,1,E+,1,0,4,0,1000,250.0,0,D10SO,407,test
576.5848159790039,5,2,3,4,0,1,E+,1,0,4,0,1000,250.0,0,D10SO,408,test
944.6048736572266,5,2,3,4,0,1,E+,1,2,1,0,1000,250.0,2,D10SO,409,test
720.5929756164551,5,2,3,4,0,1,E+,1,1,5,0,1000,250.0,1,D10SO,410,test
544.6128845214844,5,2,3,4,0,1,E+,1,3,2,0,1000,250.0,3,D10SO,411,test
896.6097831726074,5,2,3,4,0,1,E+,1,2,1,0,1000,250.0,2,D10SO,412,test
608.1640720367432,5,2,3,4,0,1,E+,1,3,2,0,1000,250.0,3,D10SO,413,test
912.6079082489014,5,2,3,4,0,1,E+,1,5,0,0,1000,250.0,5,D10SO,414,test
2720.5870151519775,5,2,3,4,0,1,E+,1,0,4,0,1000,250.0,0,D10SO,415,test
528.6059379577637,5,2,3,4,0,1,E+,1,3,2,0,1000,250.0,3,D10SO,416,test
624.6471405029297,5,2,3,4,0,1,E+,0,2,1,0,1000,250.0,1,D10SO,417,test
624.6070861816406,5,2,3,4,0,1,E+,1,4,3,0,1000,250.0,4,D10SO,418,test
928.6379814147949,5,2,3,4,0,1,E+,1,5,0,0,1000,250.0,5,D10SO,419,test
544.5389747619629,5,2,3,4,0,1,E+,1,4,3,0,1000,250.0,4,D10SO,420,test
544.5098876953125,5,2,3,4,0,1,E+,1,2,1,0,1000,250.0,2,D10SO,421,test
656.5251350402832,5,2,3,4,0,1,E+,1,5,0,0,1000,250.0,5,D10SO,422,test
512.5629901885986,5,2,3,4,0,1,E+,1,0,4,0,1000,250.0,0,D10SO,423,test
736.591100692749,5,2,3,4,0,1,E+,1,5,0,0,1000,250.0,5,D10SO,424,test
544.640064239502,5,2,3,4,0,1,E+,1,3,2,0,1000,250.0,3,D10SO,425,test
544.5718765258789,5,2,3,4,0,1,E+,1,4,3,0,1000,250.0,4,D10SO,426,test
432.56402015686035,5,2,3,4,0,1,E+,1,4,3,0,1000,250.0,4,D10SO,427,test
880.6591033935547,5,2,3,4,0,1,E+,1,2,1,0,1000,250.0,2,D10SO,428,test
496.6318607330322,5,2,3,4,0,1,E+,1,3,2,0,1000,250.0,3,D10SO,429,test
752.6140213012695,5,2,3,4,0,1,E+,0,0,4,0,1000,250.0,5,D10SO,430,test
416.5360927581787,5,2,3,4,0,1,E+,1,0,4,0,1000,250.0,0,D10SO,431,test
544.6228981018066,5,2,3,4,0,1,E+,1,4,3,0,1000,250.0,4,D10SO,432,test
720.6530570983887,5,2,3,4,0,1,E+,1,1,5,0,1000,250.0,1,D10SO,433,test
528.5451412200928,5,2,3,4,0,1,E+,1,5,0,0,1000,250.0,5,D10SO,434,test
577.0168304443359,5,2,3,4,0,1,E+,1,3,2,0,1000,250.0,3,D10SO,435,test
577.0339965820312,5,2,3,4,0,1,E+,1,0,4,0,1000,250.0,0,D10SO,436,test
608.5989475250244,5,2,3,4,0,1,E+,1,1,5,0,1000,250.0,1,D10SO,437,test
640.6159400939941,5,2,3,4,0,1,E+,1,0,4,0,1000,250.0,0,D10SO,438,test
800.6350994110107,5,2,3,4,0,1,E+,1,1,5,0,1000,250.0,1,D10SO,439,test
672.5618839263916,5,2,3,4,0,1,E+,1,1,5,0,1000,250.0,1,D10SO,440,test
896.6128826141357,5,2,3,4,0,1,E+,1,4,3,0,1000,250.0,4,D10SO,441,test
592.6189422607422,5,2,3,4,0,1,E+,1,4,3,0,1000,250.0,4,D10SO,442,test
480.5309772491455,5,2,3,4,0,1,E+,1,3,2,0,1000,250.0,3,D10SO,443,test
672.6551055908203,5,2,3,4,0,1,E+,1,0,4,0,1000,250.0,0,D10SO,444,test
448.63104820251465,5,2,3,4,0,1,E+,1,3,2,0,1000,250.0,3,D10SO,445,test
752.5029182434082,5,2,3,4,0,1,E+,1,1,5,0,1000,250.0,1,D10SO,446,test
672.5850105285645,5,2,3,4,0,1,E+,1,0,4,0,1000,250.0,0,D10SO,447,test
624.6340274810791,5,2,3,4,0,1,E+,1,2,1,0,1000,250.0,2,D10SO,448,test
560.8460903167725,5,2,3,4,0,1,E+,1,3,2,0,1000,250.0,3,D10SO,449,test
560.6100559234619,5,2,3,4,0,1,E+,1,4,3,0,1000,250.0,4,D10SO,450,test
624.7150897979736,5,2,3,4,0,1,E+,1,1,5,0,1000,250.0,1,D10SO,451,test
496.9820976257324,5,2,3,4,0,1,E+,1,4,3,0,1000,250.0,4,D10SO,452,test
736.9990348815918,5,2,3,4,0,1,E+,1,1,5,0,1000,250.0,1,D10SO,453,test
1057.1630001068115,5,2,3,4,0,1,E+,1,2,1,0,1000,250.0,2,D10SO,454,test
721.2560176849365,5,2,3,4,0,1,E+,1,5,0,0,1000,250.0,5,D10SO,455,test
432.9509735107422,5,2,3,4,0,1,E+,1,0,4,0,1000,250.0,0,D10SO,456,test
736.9599342346191,5,2,3,4,0,1,E+,1,1,5,0,1000,250.0,1,D10SO,457,test
560.8859062194824,5,2,3,4,0,1,E+,1,0,4,0,1000,250.0,0,D10SO,458,test
624.9139308929443,5,2,3,4,0,1,E+,1,1,5,0,1000,250.0,1,D10SO,459,test
720.9270000457764,5,2,3,4,0,1,E+,1,0,4,0,1000,250.0,0,D10SO,460,test
640.9659385681152,5,2,3,4,0,1,E+,1,5,0,0,1000,250.0,5,D10SO,461,test
368.9429759979248,5,2,3,4,0,1,E+,1,4,3,0,1000,250.0,4,D10SO,462,test
432.8601360321045,5,2,3,4,0,1,E+,1,1,5,0,1000,250.0,1,D10SO,463,test
736.9899749755859,5,2,3,4,0,1,E+,1,3,2,0,1000,250.0,3,D10SO,464,test
719.4271087646484,5,2,3,4,0,1,E+,1,5,0,0,1000,250.0,5,D10SO,465,test
497.0049858093262,5,2,3,4,0,1,E+,1,1,5,0,1000,250.0,1,D10SO,466,test
576.4729976654053,5,2,3,4,0,1,E+,1,4,3,0,1000,250.0,4,D10SO,467,test
608.6149215698242,5,2,3,4,0,1,E+,1,2,1,0,1000,250.0,2,D10SO,468,test
672.5351810455322,5,2,3,4,0,1,E+,1,5,0,0,1000,250.0,5,D10SO,469,test
624.5770454406738,5,2,3,4,0,1,E+,1,2,1,0,1000,250.0,2,D10SO,470,test
752.5689601898193,5,2,3,4,0,1,E+,1,1,5,0,1000,250.0,1,D10SO,471,test
528.569221496582,5,2,3,4,0,1,E+,1,3,2,0,1000,250.0,3,D10SO,472,test
576.6191482543945,5,2,3,4,0,1,E+,1,4,3,0,1000,250.0,4,D10SO,473,test
896.632194519043,5,2,3,4,0,1,E+,1,5,0,0,1000,250.0,5,D10SO,474,test
464.56098556518555,5,2,3,4,0,1,E+,1,5,0,0,1000,250.0,5,D10SO,475,test
512.6280784606934,5,2,3,4,0,1,E+,1,4,3,0,1000,250.0,4,D10SO,476,test
480.5419445037842,5,2,3,4,0,1,E+,1,3,2,0,1000,250.0,3,D10SO,477,test
1072.6189613342285,5,2,3,4,0,1,E+,1,0,4,0,1000,250.0,0,D10SO,478,test
576.8301486968994,5,2,3,4,0,1,E+,1,0,4,0,1000,250.0,0,D10SO,479,test
544.5520877838135,5,2,3,4,0,1,E+,1,4,3,0,1000,250.0,4,D10SO,480,test
912.6410484313965,5,2,3,4,0,1,E+,1,5,0,0,1000,250.0,5,D10SO,481,test
672.6510524749756,5,2,3,4,0,1,E+,1,2,1,0,1000,250.0,2,D10SO,482,test
896.773099899292,5,2,3,4,0,1,E+,1,5,0,0,1000,250.0,5,D10SO,483,test
464.9829864501953,5,2,3,4,0,1,E+,1,5,0,0,1000,250.0,5,D10SO,484,test
560.905933380127,5,2,3,4,0,1,E+,1,0,4,0,1000,250.0,0,D10SO,485,test
368.9448833465576,5,2,3,4,0,1,E+,1,0,4,0,1000,250.0,0,D10SO,486,test
673.1188297271729,5,2,3,4,0,1,E+,1,1,5,0,1000,250.0,1,D10SO,487,test
689.0139579772949,5,2,3,4,0,1,E+,1,5,0,0,1000,250.0,5,D10SO,488,test
433.0430030822754,5,2,3,4,0,1,E+,1,3,2,0,1000,250.0,3,D10SO,489,test
561.0229969024658,5,2,3,4,0,1,E+,1,0,4,0,1000,250.0,0,D10SO,490,test
736.9189262390137,5,2,3,4,0,1,E+,1,2,1,0,1000,250.0,2,D10SO,491,test
656.8319797515869,5,2,3,4,0,1,E+,1,1,5,0,1000,250.0,1,D10SO,492,test
544.9600219726562,5,2,3,4,0,1,E+,1,0,4,0,1000,250.0,0,D10SO,493,test
801.0578155517578,5,2,3,4,0,1,E+,1,5,0,0,1000,250.0,5,D10SO,494,test
513.0441188812256,5,2,3,4,0,1,E+,1,4,3,0,1000,250.0,4,D10SO,495,test
609.0071201324463,5,2,3,4,0,1,E+,1,2,1,0,1000,250.0,2,D10SO,496,test
608.9229583740234,5,2,3,4,0,1,E+,1,1,5,0,1000,250.0,1,D10SO,497,test
800.9541034698486,5,2,3,4,0,1,E+,1,1,5,0,1000,250.0,1,D10SO,498,test
528.9490222930908,5,2,3,4,0,1,E+,1,4,3,0,1000,250.0,4,D10SO,499,test
