RT,SRmap_0,SRmap_1,SRmap_2,SRmap_3,SRmap_4,SRmap_5,condition,correct,correct_response,curstim,ms-precue,ms-prestimblank,ntrials,response,subject,trial,type
1808.647871017456,3,5,1,4,2,0,H+,0,2,4,0,1000,250.0,0,E05SK,0,train
2890.2029991149902,3,5,1,4,2,0,H+,0,2,4,0,1000,250.0,3,E05SK,1,train
1888.5469436645508,3,5,1,4,2,0,H+,1,4,3,0,1000,250.0,4,E05SK,2,train
1984.4510555267334,3,5,1,4,2,0,H+,1,5,1,0,1000,250.0,5,E05SK,3,train
1408.473014831543,3,5,1,4,2,0,H+,1,4,3,0,1000,250.0,4,E05SK,4,train
1360.5380058288574,3,5,1,4,2,0,H+,1,0,5,0,1000,250.0,0,E05SK,5,train
1600.5229949951172,3,5,1,4,2,0,H+,1,2,4,0,1000,250.0,2,E05SK,6,train
2112.5738620758057,3,5,1,4,2,0,H+,1,1,2,0,1000,250.0,1,E05SK,7,train
848.5450744628906,3,5,1,4,2,0,H+,1,1,2,0,1000,250.0,1,E05SK,8,train
944.8089599609375,3,5,1,4,2,0,H+,1,5,1,0,1000,250.0,5,E05SK,9,train
736.7901802062988,3,5,1,4,2,0,H+,0,2,4,0,1000,250.0,3,E05SK,10,train
32.60684013366699,3,5,1,4,2,0,H+,0,5,1,0,1000,250.0,2,E05SK,11,train
1552.4098873138428,3,5,1,4,2,0,H+,1,0,5,0,1000,250.0,0,E05SK,12,train
1648.5559940338135,3,5,1,4,2,0,H+,1,1,2,0,1000,250.0,1,E05SK,13,train
1360.388994216919,3,5,1,4,2,0,H+,1,0,5,0,1000,250.0,0,E05SK,14,train
1280.479907989502,3,5,1,4,2,0,H+,1,4,3,0,1000,250.0,4,E05SK,15,train
672.4917888641357,3,5,1,4,2,0,H+,1,0,5,0,1000,250.0,0,E05SK,16,train
704.5180797576904,3,5,1,4,2,0,H+,1,0,5,0,1000,250.0,0,E05SK,17,train
560.3899955749512,3,5,1,4,2,0,H+,1,0,5,0,1000,250.0,0,E05SK,18,train
544.4910526275635,3,5,1,4,2,0,H+,0,4,3,0,1000,250.0,0,E05SK,19,train
384.5031261444092,3,5,1,4,2,0,H+,1,4,3,0,1000,250.0,4,E05SK,20,train
592.5309658050537,3,5,1,4,2,0,H+,1,5,1,0,1000,250.0,5,E05SK,21,train
1248.5380172729492,3,5,1,4,2,0,H+,1,0,5,0,1000,250.0,0,E05SK,22,train
608.5209846496582,3,5,1,4,2,0,H+,1,1,2,0,1000,250.0,1,E05SK,23,train
1056.6039085388184,3,5,1,4,2,0,H+,1,3,0,0,1000,250.0,3,E05SK,24,train
992.5990104675293,3,5,1,4,2,0,H+,0,4,3,0,1000,250.0,5,E05SK,25,train
944.3089962005615,3,5,1,4,2,0,H+,1,1,2,0,1000,250.0,1,E05SK,26,train
512.563943862915,3,5,1,4,2,0,H+,1,0,5,0,1000,250.0,0,E05SK,27,train
800.6129264831543,3,5,1,4,2,0,H+,1,2,4,0,1000,250.0,2,E05SK,28,train
816.9021606445312,3,5,1,4,2,0,H+,1,2,4,0,1000,250.0,2,E05SK,29,train
832.5240612030029,3,5,1,4,2,0,H+,1,3,0,0,1000,250.0,3,E05SK,30,train
480.47804832458496,3,5,1,4,2,0,H+,1,0,5,0,1000,250.0,0,E05SK,31,train
512.4800205230713,3,5,1,4,2,0,H+,1,1,2,0,1000,250.0,1,E05SK,32,train
576.509952545166,3,5,1,4,2,0,H+,0,2,4,0,1000,250.0,3,E05SK,33,train
928.5969734191895,3,5,1,4,2,0,H+,1,3,0,0,1000,250.0,3,E05SK,34,train
960.5610370635986,3,5,1,4,2,0,H+,0,1,2,0,1000,250.0,0,E05SK,35,train
768.5439586639404,3,5,1,4,2,0,H+,1,5,1,0,1000,250.0,5,E05SK,36,train
1072.3121166229248,3,5,1,4,2,0,H+,1,4,3,0,1000,250.0,4,E05SK,37,train
1184.6528053283691,3,5,1,4,2,0,H+,0,4,3,0,1000,250.0,3,E05SK,38,train
656.5220355987549,3,5,1,4,2,0,H+,1,0,5,0,1000,250.0,0,E05SK,39,train
544.5289611816406,3,5,1,4,2,0,H+,1,0,5,0,1000,250.0,0,E05SK,40,train
720.322847366333,3,5,1,4,2,0,H+,0,2,4,0,1000,250.0,3,E05SK,41,train
928.5540580749512,3,5,1,4,2,0,H+,1,3,0,0,1000,250.0,3,E05SK,42,train
944.5631504058838,3,5,1,4,2,0,H+,0,4,3,0,1000,250.0,0,E05SK,43,train
752.6960372924805,3,5,1,4,2,0,H+,1,1,2,0,1000,250.0,1,E05SK,44,train
656.5439701080322,3,5,1,4,2,0,H+,1,0,5,0,1000,250.0,0,E05SK,45,train
880.3141117095947,3,5,1,4,2,0,H+,1,1,2,0,1000,250.0,1,E05SK,46,train
640.516996383667,3,5,1,4,2,0,H+,1,0,5,0,1000,250.0,0,E05SK,47,train
784.6388816833496,3,5,1,4,2,0,H+,1,1,2,0,1000,250.0,1,E05SK,48,train
1104.6011447906494,3,5,1,4,2,0,H+,1,5,1,0,1000,250.0,5,E05SK,49,train
704.48899269104,3,5,1,4,2,0,H+,1,1,2,0,1000,250.0,1,E05SK,50,train
912.5950336456299,3,5,1,4,2,0,H+,1,2,4,0,1000,250.0,2,E05SK,51,train
624.4018077850342,3,5,1,4,2,0,H+,1,1,2,0,1000,250.0,1,E05SK,52,train
544.4998741149902,3,5,1,4,2,0,H+,1,1,2,0,1000,250.0,1,E05SK,53,train
448.4720230102539,3,5,1,4,2,0,H+,1,1,2,0,1000,250.0,1,E05SK,54,train
576.591968536377,3,5,1,4,2,0,H+,1,5,1,0,1000,250.0,5,E05SK,55,train
720.6158638000488,3,5,1,4,2,0,H+,1,3,0,0,1000,250.0,3,E05SK,56,train
800.4889488220215,3,5,1,4,2,0,H+,1,0,5,0,1000,250.0,0,E05SK,57,train
752.540111541748,3,5,1,4,2,0,H+,0,4,3,0,1000,250.0,5,E05SK,58,train
1232.3272228240967,3,5,1,4,2,0,H+,0,4,3,0,1000,250.0,5,E05SK,59,train
1120.650053024292,3,5,1,4,2,0,H+,1,3,0,0,1000,250.0,3,E05SK,60,train
784.4748497009277,3,5,1,4,2,0,H+,1,0,5,0,1000,250.0,0,E05SK,61,train
720.6101417541504,3,5,1,4,2,0,H+,1,1,2,0,1000,250.0,1,E05SK,62,train
688.5659694671631,3,5,1,4,2,0,H+,1,0,5,0,1000,250.0,0,E05SK,63,train
544.5270538330078,3,5,1,4,2,0,H+,1,1,2,0,1000,250.0,1,E05SK,64,train
1008.6190700531006,3,5,1,4,2,0,H+,1,5,1,0,1000,250.0,5,E05SK,65,train
720.6721305847168,3,5,1,4,2,0,H+,1,2,4,0,1000,250.0,2,E05SK,66,train
480.52501678466797,3,5,1,4,2,0,H+,0,2,4,0,1000,250.0,3,E05SK,67,train
784.5637798309326,3,5,1,4,2,0,H+,1,0,5,0,1000,250.0,0,E05SK,68,train
752.5379657745361,3,5,1,4,2,0,H+,1,1,2,0,1000,250.0,1,E05SK,69,train
544.5730686187744,3,5,1,4,2,0,H+,0,1,2,0,1000,250.0,0,E05SK,70,train
1408.621072769165,3,5,1,4,2,0,H+,1,3,0,0,1000,250.0,3,E05SK,71,train
641.0529613494873,3,5,1,4,2,0,H+,1,1,2,0,1000,250.0,1,E05SK,72,train
593.235969543457,3,5,1,4,2,0,H+,1,5,1,0,1000,250.0,5,E05SK,73,train
721.3990688323975,3,5,1,4,2,0,H+,1,1,2,0,1000,250.0,1,E05SK,74,train
561.4461898803711,3,5,1,4,2,0,H+,1,5,1,0,1000,250.0,5,E05SK,75,train
625.3819465637207,3,5,1,4,2,0,H+,1,3,0,0,1000,250.0,3,E05SK,76,train
528.5887718200684,3,5,1,4,2,0,H+,1,1,2,0,1000,250.0,1,E05SK,77,train
1088.683843612671,3,5,1,4,2,0,H+,1,3,0,0,1000,250.0,3,E05SK,78,train
1152.7559757232666,3,5,1,4,2,0,H+,1,4,3,0,1000,250.0,4,E05SK,79,train
528.5630226135254,3,5,1,4,2,0,H+,1,4,3,0,1000,250.0,4,E05SK,80,train
608.5991859436035,3,5,1,4,2,0,H+,1,5,1,0,1000,250.0,5,E05SK,81,train
608.7238788604736,3,5,1,4,2,0,H+,1,4,3,0,1000,250.0,4,E05SK,82,train
784.6698760986328,3,5,1,4,2,0,H+,1,4,3,0,1000,250.0,4,E05SK,83,train
576.5578746795654,3,5,1,4,2,0,H+,0,0,5,0,1000,250.0,1,E05SK,84,train
784.5981121063232,3,5,1,4,2,0,H+,1,3,0,0,1000,250.0,3,E05SK,85,train
928.6930561065674,3,5,1,4,2,0,H+,1,0,5,0,1000,250.0,0,E05SK,86,train
784.5690250396729,3,5,1,4,2,0,H+,1,2,4,0,1000,250.0,2,E05SK,87,train
720.6330299377441,3,5,1,4,2,0,H+,1,4,3,0,1000,250.0,4,E05SK,88,train
896.6569900512695,3,5,1,4,2,0,H+,1,5,1,0,1000,250.0,5,E05SK,89,train
736.5779876708984,3,5,1,4,2,0,H+,1,4,3,0,1000,250.0,4,E05SK,90,train
592.7488803863525,3,5,1,4,2,0,H+,1,4,3,0,1000,250.0,4,E05SK,91,train
592.3900604248047,3,5,1,4,2,0,H+,1,5,1,0,1000,250.0,5,E05SK,92,train
544.7020530700684,3,5,1,4,2,0,H+,1,5,1,0,1000,250.0,5,E05SK,93,train
448.87590408325195,3,5,1,4,2,0,H+,1,0,5,0,1000,250.0,0,E05SK,94,train
1072.5810527801514,3,5,1,4,2,0,H+,1,3,0,0,1000,250.0,3,E05SK,95,train
528.5367965698242,3,5,1,4,2,0,H+,1,5,1,0,1000,250.0,5,E05SK,96,train
432.70397186279297,3,5,1,4,2,0,H+,1,5,1,0,1000,250.0,5,E05SK,97,train
672.6579666137695,3,5,1,4,2,0,H+,1,3,0,0,1000,250.0,3,E05SK,98,train
480.7140827178955,3,5,1,4,2,0,H+,1,3,0,0,1000,250.0,3,E05SK,99,train
704.6229839324951,3,5,1,4,2,0,H+,1,0,5,0,1000,250.0,0,E05SK,100,train
640.6018733978271,3,5,1,4,2,0,H+,1,1,2,0,1000,250.0,1,E05SK,101,train
976.6290187835693,3,5,1,4,2,0,H+,1,4,3,0,1000,250.0,4,E05SK,102,train
560.6179237365723,3,5,1,4,2,0,H+,1,1,2,0,1000,250.0,1,E05SK,103,train
496.6850280761719,3,5,1,4,2,0,H+,1,1,2,0,1000,250.0,1,E05SK,104,train
624.6328353881836,3,5,1,4,2,0,H+,1,0,5,0,1000,250.0,0,E05SK,105,train
864.7031784057617,3,5,1,4,2,0,H+,0,4,3,0,1000,250.0,5,E05SK,106,train
656.696081161499,3,5,1,4,2,0,H+,1,5,1,0,1000,250.0,5,E05SK,107,train
736.6259098052979,3,5,1,4,2,0,H+,1,2,4,0,1000,250.0,2,E05SK,108,train
640.5520439147949,3,5,1,4,2,0,H+,1,3,0,0,1000,250.0,3,E05SK,109,train
528.555154800415,3,5,1,4,2,0,H+,1,1,2,0,1000,250.0,1,E05SK,110,train
624.6578693389893,3,5,1,4,2,0,H+,1,2,4,0,1000,250.0,2,E05SK,111,train
720.6850051879883,3,5,1,4,2,0,H+,1,0,5,0,1000,250.0,0,E05SK,112,train
592.5788879394531,3,5,1,4,2,0,H+,1,0,5,0,1000,250.0,0,E05SK,113,train
1120.5830574035645,3,5,1,4,2,0,H+,1,5,1,0,1000,250.0,5,E05SK,114,train
560.5969429016113,3,5,1,4,2,0,H+,1,5,1,0,1000,250.0,5,E05SK,115,train
528.6290645599365,3,5,1,4,2,0,H+,1,1,2,0,1000,250.0,1,E05SK,116,train
528.7160873413086,3,5,1,4,2,0,H+,1,1,2,0,1000,250.0,1,E05SK,117,train
704.5879364013672,3,5,1,4,2,0,H+,0,3,0,0,1000,250.0,2,E05SK,118,train
1280.5659770965576,3,5,1,4,2,0,H+,1,0,5,0,1000,250.0,0,E05SK,119,train
704.5300006866455,3,5,1,4,2,0,H+,1,1,2,0,1000,250.0,1,E05SK,120,train
992.6669597625732,3,5,1,4,2,0,H+,0,3,0,0,1000,250.0,2,E05SK,121,train
704.6990394592285,3,5,1,4,2,0,H+,1,3,0,0,1000,250.0,3,E05SK,122,train
688.6329650878906,3,5,1,4,2,0,H+,1,1,2,0,1000,250.0,1,E05SK,123,train
720.6480503082275,3,5,1,4,2,0,H+,1,3,0,0,1000,250.0,3,E05SK,124,train
736.469030380249,3,5,1,4,2,0,H+,1,2,4,0,1000,250.0,2,E05SK,125,train
992.6290512084961,3,5,1,4,2,0,H+,1,5,1,0,1000,250.0,5,E05SK,126,train
864.6938800811768,3,5,1,4,2,0,H+,1,0,5,0,1000,250.0,0,E05SK,127,train
768.5651779174805,3,5,1,4,2,0,H+,1,0,5,0,1000,250.0,0,E05SK,128,train
1056.570053100586,3,5,1,4,2,0,H+,1,1,2,0,1000,250.0,1,E05SK,129,train
1200.984001159668,3,5,1,4,2,0,H+,1,3,0,0,1000,250.0,3,E05SK,130,train
640.5401229858398,3,5,1,4,2,0,H+,1,5,1,0,1000,250.0,5,E05SK,131,train
656.6789150238037,3,5,1,4,2,0,H+,1,0,5,0,1000,250.0,0,E05SK,132,train
864.7229671478271,3,5,1,4,2,0,H+,1,4,3,0,1000,250.0,4,E05SK,133,train
576.5790939331055,3,5,1,4,2,0,H+,1,4,3,0,1000,250.0,4,E05SK,134,train
1296.6868877410889,3,5,1,4,2,0,H+,1,2,4,0,1000,250.0,2,E05SK,135,train
784.6460342407227,3,5,1,4,2,0,H+,1,1,2,0,1000,250.0,1,E05SK,136,train
704.7379016876221,3,5,1,4,2,0,H+,1,0,5,0,1000,250.0,0,E05SK,137,train
592.7278995513916,3,5,1,4,2,0,H+,1,1,2,0,1000,250.0,1,E05SK,138,train
592.6249027252197,3,5,1,4,2,0,H+,1,1,2,0,1000,250.0,1,E05SK,139,train
624.5851516723633,3,5,1,4,2,0,H+,1,5,1,0,1000,250.0,5,E05SK,140,train
672.6510524749756,3,5,1,4,2,0,H+,1,4,3,0,1000,250.0,4,E05SK,141,train
608.5519790649414,3,5,1,4,2,0,H+,0,0,5,0,1000,250.0,1,E05SK,142,train
672.7051734924316,3,5,1,4,2,0,H+,1,5,1,0,1000,250.0,5,E05SK,143,train
1104.766845703125,3,5,1,4,2,0,H+,0,4,3,0,1000,250.0,1,E05SK,144,train
848.6511707305908,3,5,1,4,2,0,H+,1,0,5,0,1000,250.0,0,E05SK,145,train
960.564136505127,3,5,1,4,2,0,H+,1,4,3,0,1000,250.0,4,E05SK,146,train
1488.6729717254639,3,5,1,4,2,0,H+,1,4,3,0,1000,250.0,4,E05SK,147,train
784.7568988800049,3,5,1,4,2,0,H+,1,0,5,0,1000,250.0,0,E05SK,148,train
896.5959548950195,3,5,1,4,2,0,H+,1,4,3,0,1000,250.0,4,E05SK,149,train
944.5290565490723,3,5,1,4,2,0,H+,1,2,4,0,1000,250.0,2,E05SK,150,train
816.6248798370361,3,5,1,4,2,0,H+,1,3,0,0,1000,250.0,3,E05SK,151,train
1232.5260639190674,3,5,1,4,2,0,H+,0,0,5,0,1000,250.0,1,E05SK,152,train
864.6130561828613,3,5,1,4,2,0,H+,0,3,0,0,1000,250.0,2,E05SK,153,train
800.7369041442871,3,5,1,4,2,0,H+,1,4,3,0,1000,250.0,4,E05SK,154,train
800.5180358886719,3,5,1,4,2,0,H+,1,0,5,0,1000,250.0,0,E05SK,155,train
496.51598930358887,3,5,1,4,2,0,H+,1,0,5,0,1000,250.0,0,E05SK,156,train
896.5559005737305,3,5,1,4,2,0,H+,1,4,3,0,1000,250.0,4,E05SK,157,train
1152.5590419769287,3,5,1,4,2,0,H+,1,0,5,0,1000,250.0,0,E05SK,158,train
896.9001770019531,3,5,1,4,2,0,H+,1,5,1,0,1000,250.0,5,E05SK,159,train
960.8690738677979,3,5,1,4,2,0,H+,1,2,4,0,1000,250.0,2,E05SK,160,train
704.5609951019287,3,5,1,4,2,0,H+,1,1,2,0,1000,250.0,1,E05SK,161,train
864.6299839019775,3,5,1,4,2,0,H+,1,4,3,0,1000,250.0,4,E05SK,162,train
864.6559715270996,3,5,1,4,2,0,H+,1,5,1,0,1000,250.0,5,E05SK,163,train
1120.5790042877197,3,5,1,4,2,0,H+,1,1,2,0,1000,250.0,1,E05SK,164,train
912.567138671875,3,5,1,4,2,0,H+,1,4,3,0,1000,250.0,4,E05SK,165,train
1040.7249927520752,3,5,1,4,2,0,H+,1,3,0,0,1000,250.0,3,E05SK,166,train
592.6809310913086,3,5,1,4,2,0,H+,1,2,4,0,1000,250.0,2,E05SK,167,train
560.5659484863281,3,5,1,4,2,0,H+,1,2,4,0,1000,250.0,2,E05SK,168,train
752.5200843811035,3,5,1,4,2,0,H+,0,3,0,0,1000,250.0,2,E05SK,169,train
1040.602207183838,3,5,1,4,2,0,H+,1,3,0,0,1000,250.0,3,E05SK,170,train
864.5589351654053,3,5,1,4,2,0,H+,1,4,3,0,1000,250.0,4,E05SK,171,train
656.5210819244385,3,5,1,4,2,0,H+,1,5,1,0,1000,250.0,5,E05SK,172,train
960.5481624603271,3,5,1,4,2,0,H+,1,2,4,0,1000,250.0,2,E05SK,173,train
864.6881580352783,3,5,1,4,2,0,H+,1,5,1,0,1000,250.0,5,E05SK,174,train
864.5460605621338,3,5,1,4,2,0,H+,1,4,3,0,1000,250.0,4,E05SK,175,train
688.560962677002,3,5,1,4,2,0,H+,1,4,3,0,1000,250.0,4,E05SK,176,train
896.6319561004639,3,5,1,4,2,0,H+,1,1,2,0,1000,250.0,1,E05SK,177,train
1584.6021175384521,3,5,1,4,2,0,H+,1,5,1,0,1000,250.0,5,E05SK,178,train
928.5488128662109,3,5,1,4,2,0,H+,1,3,0,0,1000,250.0,3,E05SK,179,train
1056.5309524536133,3,5,1,4,2,0,H+,1,0,5,0,1000,250.0,0,E05SK,180,train
1008.6319446563721,3,5,1,4,2,0,H+,1,2,4,0,1000,250.0,2,E05SK,181,train
800.5599975585938,3,5,1,4,2,0,H+,0,3,0,0,1000,250.0,2,E05SK,182,train
1120.650053024292,3,5,1,4,2,0,H+,1,2,4,0,1000,250.0,2,E05SK,183,train
688.5240077972412,3,5,1,4,2,0,H+,1,4,3,0,1000,250.0,4,E05SK,184,train
544.5678234100342,3,5,1,4,2,0,H+,1,2,4,0,1000,250.0,2,E05SK,185,train
608.5159778594971,3,5,1,4,2,0,H+,1,5,1,0,1000,250.0,5,E05SK,186,train
608.5569858551025,3,5,1,4,2,0,H+,1,4,3,0,1000,250.0,4,E05SK,187,train
560.6169700622559,3,5,1,4,2,0,H+,1,1,2,0,1000,250.0,1,E05SK,188,train
512.5260353088379,3,5,1,4,2,0,H+,1,1,2,0,1000,250.0,1,E05SK,189,train
528.5210609436035,3,5,1,4,2,0,H+,1,4,3,0,1000,250.0,4,E05SK,190,train
560.4519844055176,3,5,1,4,2,0,H+,1,3,0,0,1000,250.0,3,E05SK,191,train
576.6079425811768,3,5,1,4,2,0,H+,1,1,2,0,1000,250.0,1,E05SK,192,train
560.5869293212891,3,5,1,4,2,0,H+,1,1,2,0,1000,250.0,1,E05SK,193,train
608.6080074310303,3,5,1,4,2,0,H+,1,0,5,0,1000,250.0,0,E05SK,194,train
624.5570182800293,3,5,1,4,2,0,H+,1,4,3,0,1000,250.0,4,E05SK,195,train
576.850175857544,3,5,1,4,2,0,H+,1,5,1,0,1000,250.0,5,E05SK,196,train
400.5439281463623,3,5,1,4,2,0,H+,1,5,1,0,1000,250.0,5,E05SK,197,train
1248.507022857666,3,5,1,4,2,0,H+,1,2,4,0,1000,250.0,2,E05SK,198,train
528.6071300506592,3,5,1,4,2,0,H+,1,3,0,0,1000,250.0,3,E05SK,199,train
512.5448703765869,3,5,1,4,2,0,H+,1,5,1,0,1000,250.0,5,E05SK,200,train
752.6137828826904,3,5,1,4,2,0,H+,1,4,3,0,1000,250.0,4,E05SK,201,train
704.1788101196289,3,5,1,4,2,0,H+,1,0,5,0,1000,250.0,0,E05SK,202,train
624.547004699707,3,5,1,4,2,0,H+,1,5,1,0,1000,250.0,5,E05SK,203,train
656.55517578125,3,5,1,4,2,0,H+,1,1,2,0,1000,250.0,1,E05SK,204,train
976.470947265625,3,5,1,4,2,0,H+,1,4,3,0,1000,250.0,4,E05SK,205,train
1056.5581321716309,3,5,1,4,2,0,H+,1,2,4,0,1000,250.0,2,E05SK,206,train
752.5620460510254,3,5,1,4,2,0,H+,1,0,5,0,1000,250.0,0,E05SK,207,train
672.3840236663818,3,5,1,4,2,0,H+,0,3,0,0,1000,250.0,2,E05SK,208,train
624.6020793914795,3,5,1,4,2,0,H+,1,5,1,0,1000,250.0,5,E05SK,209,train
1184.6001148223877,3,5,1,4,2,0,H+,1,2,4,0,1000,250.0,2,E05SK,210,train
1040.5519008636475,3,5,1,4,2,0,H+,1,3,0,0,1000,250.0,3,E05SK,211,train
592.4930572509766,3,5,1,4,2,0,H+,1,1,2,0,1000,250.0,1,E05SK,212,train
592.4961566925049,3,5,1,4,2,0,H+,1,0,5,0,1000,250.0,0,E05SK,213,train
592.5920009613037,3,5,1,4,2,0,H+,1,3,0,0,1000,250.0,3,E05SK,214,train
560.6851577758789,3,5,1,4,2,0,H+,1,5,1,0,1000,250.0,5,E05SK,215,train
608.5779666900635,3,5,1,4,2,0,H+,1,3,0,0,1000,250.0,3,E05SK,216,train
528.0578136444092,3,5,1,4,2,0,H+,1,5,1,0,1000,250.0,5,E05SK,217,train
512.6078128814697,3,5,1,4,2,0,H+,1,0,5,0,1000,250.0,0,E05SK,218,train
736.518144607544,3,5,1,4,2,0,H+,1,3,0,0,1000,250.0,3,E05SK,219,train
704.4861316680908,3,5,1,4,2,0,H+,0,0,5,0,1000,250.0,4,E05SK,220,train
624.567985534668,3,5,1,4,2,0,H+,1,4,3,0,1000,250.0,4,E05SK,221,train
624.5431900024414,3,5,1,4,2,0,H+,1,3,0,0,1000,250.0,3,E05SK,222,train
624.579906463623,3,5,1,4,2,0,H+,1,2,4,0,1000,250.0,2,E05SK,223,train
592.5910472869873,3,5,1,4,2,0,H+,1,1,2,0,1000,250.0,1,E05SK,224,train
608.5140705108643,3,5,1,4,2,0,H+,1,4,3,0,1000,250.0,4,E05SK,225,train
512.5269889831543,3,5,1,4,2,0,H+,1,4,3,0,1000,250.0,4,E05SK,226,train
544.2919731140137,3,5,1,4,2,0,H+,1,5,1,0,1000,250.0,5,E05SK,227,train
672.5521087646484,3,5,1,4,2,0,H+,1,1,2,0,1000,250.0,1,E05SK,228,train
544.5659160614014,3,5,1,4,2,0,H+,1,5,1,0,1000,250.0,5,E05SK,229,train
608.4980964660645,3,5,1,4,2,0,H+,1,0,5,0,1000,250.0,0,E05SK,230,train
528.5458564758301,3,5,1,4,2,0,H+,1,0,5,0,1000,250.0,0,E05SK,231,train
496.57607078552246,3,5,1,4,2,0,H+,1,4,3,0,1000,250.0,4,E05SK,232,train
768.5317993164062,3,5,1,4,2,0,H+,1,3,0,0,1000,250.0,3,E05SK,233,train
512.5370025634766,3,5,1,4,2,0,H+,1,2,4,0,1000,250.0,2,E05SK,234,train
592.6661491394043,3,5,1,4,2,0,H+,1,4,3,0,1000,250.0,4,E05SK,235,train
480.55005073547363,3,5,1,4,2,0,H+,1,0,5,0,1000,250.0,0,E05SK,236,train
528.073787689209,3,5,1,4,2,0,H+,1,0,5,0,1000,250.0,0,E05SK,237,train
752.5858879089355,3,5,1,4,2,0,H+,1,5,1,0,1000,250.0,5,E05SK,238,train
736.6950511932373,3,5,1,4,2,0,H+,1,4,3,0,1000,250.0,4,E05SK,239,train
512.5229358673096,3,5,1,4,2,0,H+,1,5,1,0,1000,250.0,5,E05SK,240,train
608.4578037261963,3,5,1,4,2,0,H+,0,0,5,0,1000,250.0,4,E05SK,241,train
496.600866317749,3,5,1,4,2,0,H+,1,5,1,0,1000,250.0,5,E05SK,242,train
576.57790184021,3,5,1,4,2,0,H+,1,1,2,0,1000,250.0,1,E05SK,243,train
848.5779762268066,3,5,1,4,2,0,H+,1,3,0,0,1000,250.0,3,E05SK,244,train
752.5439262390137,3,5,1,4,2,0,H+,1,4,3,0,1000,250.0,4,E05SK,245,train
688.5790824890137,3,5,1,4,2,0,H+,1,2,4,0,1000,250.0,2,E05SK,246,train
576.6730308532715,3,5,1,4,2,0,H+,1,3,0,0,1000,250.0,3,E05SK,247,train
528.533935546875,3,5,1,4,2,0,H+,1,1,2,0,1000,250.0,1,E05SK,248,train
736.6170883178711,3,5,1,4,2,0,H+,1,0,5,0,1000,250.0,0,E05SK,249,train
1104.5379638671875,3,5,1,4,2,0,H+,1,5,1,0,1000,250.0,5,E05SK,250,test
480.48996925354004,3,5,1,4,2,0,H+,1,5,1,0,1000,250.0,5,E05SK,251,test
864.5548820495605,3,5,1,4,2,0,H+,1,0,5,0,1000,250.0,0,E05SK,252,test
832.5519561767578,3,5,1,4,2,0,H+,1,2,4,0,1000,250.0,2,E05SK,253,test
960.5450630187988,3,5,1,4,2,0,H+,1,2,4,0,1000,250.0,2,E05SK,254,test
912.7030372619629,3,5,1,4,2,0,H+,1,5,1,0,1000,250.0,5,E05SK,255,test
752.561092376709,3,5,1,4,2,0,H+,1,5,1,0,1000,250.0,5,E05SK,256,test
832.6840400695801,3,5,1,4,2,0,H+,1,2,4,0,1000,250.0,2,E05SK,257,test
880.5780410766602,3,5,1,4,2,0,H+,1,0,5,0,1000,250.0,0,E05SK,258,test
672.0740795135498,3,5,1,4,2,0,H+,0,3,0,0,1000,250.0,2,E05SK,259,test
960.5770111083984,3,5,1,4,2,0,H+,1,4,3,0,1000,250.0,4,E05SK,260,test
848.5751152038574,3,5,1,4,2,0,H+,1,2,4,0,1000,250.0,2,E05SK,261,test
624.5629787445068,3,5,1,4,2,0,H+,1,2,4,0,1000,250.0,2,E05SK,262,test
752.6569366455078,3,5,1,4,2,0,H+,1,5,1,0,1000,250.0,5,E05SK,263,test
720.6771373748779,3,5,1,4,2,0,H+,1,5,1,0,1000,250.0,5,E05SK,264,test
1248.5730648040771,3,5,1,4,2,0,H+,1,3,0,0,1000,250.0,3,E05SK,265,test
736.407995223999,3,5,1,4,2,0,H+,1,1,2,0,1000,250.0,1,E05SK,266,test
944.5888996124268,3,5,1,4,2,0,H+,1,2,4,0,1000,250.0,2,E05SK,267,test
832.5788974761963,3,5,1,4,2,0,H+,1,2,4,0,1000,250.0,2,E05SK,268,test
960.6530666351318,3,5,1,4,2,0,H+,1,0,5,0,1000,250.0,0,E05SK,269,test
688.5690689086914,3,5,1,4,2,0,H+,1,2,4,0,1000,250.0,2,E05SK,270,test
736.6089820861816,3,5,1,4,2,0,H+,1,5,1,0,1000,250.0,5,E05SK,271,test
624.6418952941895,3,5,1,4,2,0,H+,0,3,0,0,1000,250.0,2,E05SK,272,test
688.6019706726074,3,5,1,4,2,0,H+,1,4,3,0,1000,250.0,4,E05SK,273,test
848.6039638519287,3,5,1,4,2,0,H+,1,3,0,0,1000,250.0,3,E05SK,274,test
608.5529327392578,3,5,1,4,2,0,H+,1,2,4,0,1000,250.0,2,E05SK,275,test
784.621000289917,3,5,1,4,2,0,H+,1,4,3,0,1000,250.0,4,E05SK,276,test
577.1739482879639,3,5,1,4,2,0,H+,1,2,4,0,1000,250.0,2,E05SK,277,test
704.6570777893066,3,5,1,4,2,0,H+,1,2,4,0,1000,250.0,2,E05SK,278,test
624.4628429412842,3,5,1,4,2,0,H+,1,3,0,0,1000,250.0,3,E05SK,279,test
592.7140712738037,3,5,1,4,2,0,H+,1,5,1,0,1000,250.0,5,E05SK,280,test
657.1938991546631,3,5,1,4,2,0,H+,1,2,4,0,1000,250.0,2,E05SK,281,test
1136.5888118743896,3,5,1,4,2,0,H+,1,0,5,0,1000,250.0,0,E05SK,282,test
784.5461368560791,3,5,1,4,2,0,H+,1,2,4,0,1000,250.0,2,E05SK,283,test
816.6780471801758,3,5,1,4,2,0,H+,1,2,4,0,1000,250.0,2,E05SK,284,test
1296.59104347229,3,5,1,4,2,0,H+,1,5,1,0,1000,250.0,5,E05SK,285,test
592.5781726837158,3,5,1,4,2,0,H+,1,2,4,0,1000,250.0,2,E05SK,286,test
704.6101093292236,3,5,1,4,2,0,H+,1,1,2,0,1000,250.0,1,E05SK,287,test
528.5160541534424,3,5,1,4,2,0,H+,1,1,2,0,1000,250.0,1,E05SK,288,test
752.6400089263916,3,5,1,4,2,0,H+,1,2,4,0,1000,250.0,2,E05SK,289,test
736.5708351135254,3,5,1,4,2,0,H+,1,3,0,0,1000,250.0,3,E05SK,290,test
576.664924621582,3,5,1,4,2,0,H+,0,3,0,0,1000,250.0,2,E05SK,291,test
544.6469783782959,3,5,1,4,2,0,H+,1,3,0,0,1000,250.0,3,E05SK,292,test
544.6910858154297,3,5,1,4,2,0,H+,1,5,1,0,1000,250.0,5,E05SK,293,test
656.6171646118164,3,5,1,4,2,0,H+,1,1,2,0,1000,250.0,1,E05SK,294,test
544.6641445159912,3,5,1,4,2,0,H+,1,5,1,0,1000,250.0,5,E05SK,295,test
816.5950775146484,3,5,1,4,2,0,H+,1,3,0,0,1000,250.0,3,E05SK,296,test
848.7169742584229,3,5,1,4,2,0,H+,1,0,5,0,1000,250.0,0,E05SK,297,test
608.5350513458252,3,5,1,4,2,0,H+,1,2,4,0,1000,250.0,2,E05SK,298,test
1600.597858428955,3,5,1,4,2,0,H+,1,3,0,0,1000,250.0,3,E05SK,299,test
624.5880126953125,3,5,1,4,2,0,H+,1,1,2,0,1000,250.0,1,E05SK,300,test
592.6649570465088,3,5,1,4,2,0,H+,1,3,0,0,1000,250.0,3,E05SK,301,test
640.6850814819336,3,5,1,4,2,0,H+,1,1,2,0,1000,250.0,1,E05SK,302,test
608.6411476135254,3,5,1,4,2,0,H+,1,2,4,0,1000,250.0,2,E05SK,303,test
736.5779876708984,3,5,1,4,2,0,H+,1,1,2,0,1000,250.0,1,E05SK,304,test
496.5648651123047,3,5,1,4,2,0,H+,1,1,2,0,1000,250.0,1,E05SK,305,test
576.0538578033447,3,5,1,4,2,0,H+,1,5,1,0,1000,250.0,5,E05SK,306,test
544.5079803466797,3,5,1,4,2,0,H+,1,2,4,0,1000,250.0,2,E05SK,307,test
672.5258827209473,3,5,1,4,2,0,H+,1,1,2,0,1000,250.0,1,E05SK,308,test
704.5860290527344,3,5,1,4,2,0,H+,1,0,5,0,1000,250.0,0,E05SK,309,test
640.6021118164062,3,5,1,4,2,0,H+,1,4,3,0,1000,250.0,4,E05SK,310,test
752.6211738586426,3,5,1,4,2,0,H+,1,3,0,0,1000,250.0,3,E05SK,311,test
480.58199882507324,3,5,1,4,2,0,H+,1,2,4,0,1000,250.0,2,E05SK,312,test
592.5931930541992,3,5,1,4,2,0,H+,1,2,4,0,1000,250.0,2,E05SK,313,test
640.5260562896729,3,5,1,4,2,0,H+,1,1,2,0,1000,250.0,1,E05SK,314,test
608.7019443511963,3,5,1,4,2,0,H+,1,3,0,0,1000,250.0,3,E05SK,315,test
608.6089611053467,3,5,1,4,2,0,H+,1,3,0,0,1000,250.0,3,E05SK,316,test
768.6619758605957,3,5,1,4,2,0,H+,1,5,1,0,1000,250.0,5,E05SK,317,test
1040.6241416931152,3,5,1,4,2,0,H+,1,1,2,0,1000,250.0,1,E05SK,318,test
576.5419006347656,3,5,1,4,2,0,H+,1,1,2,0,1000,250.0,1,E05SK,319,test
528.5449028015137,3,5,1,4,2,0,H+,1,3,0,0,1000,250.0,3,E05SK,320,test
576.6630172729492,3,5,1,4,2,0,H+,1,2,4,0,1000,250.0,2,E05SK,321,test
720.5438613891602,3,5,1,4,2,0,H+,0,0,5,0,1000,250.0,1,E05SK,322,test
912.621021270752,3,5,1,4,2,0,H+,1,3,0,0,1000,250.0,3,E05SK,323,test
496.41895294189453,3,5,1,4,2,0,H+,1,3,0,0,1000,250.0,3,E05SK,324,test
560.50705909729,3,5,1,4,2,0,H+,1,2,4,0,1000,250.0,2,E05SK,325,test
608.5128784179688,3,5,1,4,2,0,H+,1,3,0,0,1000,250.0,3,E05SK,326,test
560.5318546295166,3,5,1,4,2,0,H+,1,5,1,0,1000,250.0,5,E05SK,327,test
576.51686668396,3,5,1,4,2,0,H+,1,2,4,0,1000,250.0,2,E05SK,328,test
752.6178359985352,3,5,1,4,2,0,H+,1,2,4,0,1000,250.0,2,E05SK,329,test
544.5690155029297,3,5,1,4,2,0,H+,0,0,5,0,1000,250.0,1,E05SK,330,test
384.54198837280273,3,5,1,4,2,0,H+,1,0,5,0,1000,250.0,0,E05SK,331,test
496.61993980407715,3,5,1,4,2,0,H+,1,5,1,0,1000,250.0,5,E05SK,332,test
480.61108589172363,3,5,1,4,2,0,H+,1,5,1,0,1000,250.0,5,E05SK,333,test
640.6979560852051,3,5,1,4,2,0,H+,1,1,2,0,1000,250.0,1,E05SK,334,test
800.4720211029053,3,5,1,4,2,0,H+,1,1,2,0,1000,250.0,1,E05SK,335,test
736.6771697998047,3,5,1,4,2,0,H+,1,0,5,0,1000,250.0,0,E05SK,336,test
544.5370674133301,3,5,1,4,2,0,H+,1,1,2,0,1000,250.0,1,E05SK,337,test
560.8201026916504,3,5,1,4,2,0,H+,1,0,5,0,1000,250.0,0,E05SK,338,test
464.51783180236816,3,5,1,4,2,0,H+,1,1,2,0,1000,250.0,1,E05SK,339,test
800.6150722503662,3,5,1,4,2,0,H+,1,4,3,0,1000,250.0,4,E05SK,340,test
752.3269653320312,3,5,1,4,2,0,H+,1,1,2,0,1000,250.0,1,E05SK,341,test
816.5440559387207,3,5,1,4,2,0,H+,1,0,5,0,1000,250.0,0,E05SK,342,test
784.60693359375,3,5,1,4,2,0,H+,1,0,5,0,1000,250.0,0,E05SK,343,test
608.8109016418457,3,5,1,4,2,0,H+,1,5,1,0,1000,250.0,5,E05SK,344,test
800.6119728088379,3,5,1,4,2,0,H+,1,0,5,0,1000,250.0,0,E05SK,345,test
1088.5670185089111,3,5,1,4,2,0,H+,1,3,0,0,1000,250.0,3,E05SK,346,test
960.5147838592529,3,5,1,4,2,0,H+,1,0,5,0,1000,250.0,0,E05SK,347,test
976.3619899749756,3,5,1,4,2,0,H+,1,3,0,0,1000,250.0,3,E05SK,348,test
752.7179718017578,3,5,1,4,2,0,H+,1,4,3,0,1000,250.0,4,E05SK,349,test
816.5450096130371,3,5,1,4,2,0,H+,1,2,4,0,1000,250.0,2,E05SK,350,test
880.2800178527832,3,5,1,4,2,0,H+,1,3,0,0,1000,250.0,3,E05SK,351,test
896.5671062469482,3,5,1,4,2,0,H+,1,1,2,0,1000,250.0,1,E05SK,352,test
912.600040435791,3,5,1,4,2,0,H+,1,4,3,0,1000,250.0,4,E05SK,353,test
912.6110076904297,3,5,1,4,2,0,H+,1,3,0,0,1000,250.0,3,E05SK,354,test
960.6161117553711,3,5,1,4,2,0,H+,1,1,2,0,1000,250.0,1,E05SK,355,test
576.5161514282227,3,5,1,4,2,0,H+,1,1,2,0,1000,250.0,1,E05SK,356,test
1552.626132965088,3,5,1,4,2,0,H+,1,2,4,0,1000,250.0,2,E05SK,357,test
944.5521831512451,3,5,1,4,2,0,H+,1,0,5,0,1000,250.0,0,E05SK,358,test
1248.6019134521484,3,5,1,4,2,0,H+,1,0,5,0,1000,250.0,0,E05SK,359,test
592.494010925293,3,5,1,4,2,0,H+,1,1,2,0,1000,250.0,1,E05SK,360,test
1024.6601104736328,3,5,1,4,2,0,H+,1,3,0,0,1000,250.0,3,E05SK,361,test
688.5459423065186,3,5,1,4,2,0,H+,1,2,4,0,1000,250.0,2,E05SK,362,test
656.5771102905273,3,5,1,4,2,0,H+,1,5,1,0,1000,250.0,5,E05SK,363,test
768.5980796813965,3,5,1,4,2,0,H+,1,4,3,0,1000,250.0,4,E05SK,364,test
640.570878982544,3,5,1,4,2,0,H+,1,2,4,0,1000,250.0,2,E05SK,365,test
672.9490756988525,3,5,1,4,2,0,H+,1,0,5,0,1000,250.0,0,E05SK,366,test
544.4338321685791,3,5,1,4,2,0,H+,1,2,4,0,1000,250.0,2,E05SK,367,test
992.7849769592285,3,5,1,4,2,0,H+,1,3,0,0,1000,250.0,3,E05SK,368,test
608.6089611053467,3,5,1,4,2,0,H+,1,2,4,0,1000,250.0,2,E05SK,369,test
720.526933670044,3,5,1,4,2,0,H+,1,0,5,0,1000,250.0,0,E05SK,370,test
592.6990509033203,3,5,1,4,2,0,H+,1,5,1,0,1000,250.0,5,E05SK,371,test
832.4041366577148,3,5,1,4,2,0,H+,1,4,3,0,1000,250.0,4,E05SK,372,test
544.6860790252686,3,5,1,4,2,0,H+,1,5,1,0,1000,250.0,5,E05SK,373,test
768.8539028167725,3,5,1,4,2,0,H+,1,3,0,0,1000,250.0,3,E05SK,374,test
592.5500392913818,3,5,1,4,2,0,H+,1,5,1,0,1000,250.0,5,E05SK,375,test
608.5870265960693,3,5,1,4,2,0,H+,1,4,3,0,1000,250.0,4,E05SK,376,test
528.702974319458,3,5,1,4,2,0,H+,1,2,4,0,1000,250.0,2,E05SK,377,test
1104.6018600463867,3,5,1,4,2,0,H+,1,2,4,0,1000,250.0,2,E05SK,378,test
1184.6270561218262,3,5,1,4,2,0,H+,1,0,5,0,1000,250.0,0,E05SK,379,test
560.870885848999,3,5,1,4,2,0,H+,1,2,4,0,1000,250.0,2,E05SK,380,test
624.518871307373,3,5,1,4,2,0,H+,1,1,2,0,1000,250.0,1,E05SK,381,test
608.4940433502197,3,5,1,4,2,0,H+,1,2,4,0,1000,250.0,2,E05SK,382,test
624.5291233062744,3,5,1,4,2,0,H+,1,5,1,0,1000,250.0,5,E05SK,383,test
864.5279407501221,3,5,1,4,2,0,H+,1,0,5,0,1000,250.0,0,E05SK,384,test
656.6309928894043,3,5,1,4,2,0,H+,1,4,3,0,1000,250.0,4,E05SK,385,test
944.6980953216553,3,5,1,4,2,0,H+,1,3,0,0,1000,250.0,3,E05SK,386,test
832.7250480651855,3,5,1,4,2,0,H+,1,0,5,0,1000,250.0,0,E05SK,387,test
656.6870212554932,3,5,1,4,2,0,H+,1,1,2,0,1000,250.0,1,E05SK,388,test
576.5330791473389,3,5,1,4,2,0,H+,0,0,5,0,1000,250.0,1,E05SK,389,test
464.53404426574707,3,5,1,4,2,0,H+,1,0,5,0,1000,250.0,0,E05SK,390,test
512.5000476837158,3,5,1,4,2,0,H+,1,5,1,0,1000,250.0,5,E05SK,391,test
496.57416343688965,3,5,1,4,2,0,H+,1,1,2,0,1000,250.0,1,E05SK,392,test
1280.5190086364746,3,5,1,4,2,0,H+,1,3,0,0,1000,250.0,3,E05SK,393,test
592.5581455230713,3,5,1,4,2,0,H+,1,5,1,0,1000,250.0,5,E05SK,394,test
576.617956161499,3,5,1,4,2,0,H+,1,5,1,0,1000,250.0,5,E05SK,395,test
608.7160110473633,3,5,1,4,2,0,H+,1,2,4,0,1000,250.0,2,E05SK,396,test
560.478925704956,3,5,1,4,2,0,H+,1,5,1,0,1000,250.0,5,E05SK,397,test
608.1712245941162,3,5,1,4,2,0,H+,1,4,3,0,1000,250.0,4,E05SK,398,test
592.5140380859375,3,5,1,4,2,0,H+,0,3,0,0,1000,250.0,2,E05SK,399,test
512.6678943634033,3,5,1,4,2,0,H+,1,5,1,0,1000,250.0,5,E05SK,400,test
702.7578353881836,3,5,1,4,2,0,H+,1,3,0,0,1000,250.0,3,E05SK,401,test
625.4279613494873,3,5,1,4,2,0,H+,1,0,5,0,1000,250.0,0,E05SK,402,test
480.99398612976074,3,5,1,4,2,0,H+,1,0,5,0,1000,250.0,0,E05SK,403,test
640.9540176391602,3,5,1,4,2,0,H+,1,4,3,0,1000,250.0,4,E05SK,404,test
705.1520347595215,3,5,1,4,2,0,H+,1,3,0,0,1000,250.0,3,E05SK,405,test
624.8888969421387,3,5,1,4,2,0,H+,1,3,0,0,1000,250.0,3,E05SK,406,test
481.04095458984375,3,5,1,4,2,0,H+,1,5,1,0,1000,250.0,5,E05SK,407,test
640.9509181976318,3,5,1,4,2,0,H+,1,2,4,0,1000,250.0,2,E05SK,408,test
608.9460849761963,3,5,1,4,2,0,H+,1,4,3,0,1000,250.0,4,E05SK,409,test
561.1288547515869,3,5,1,4,2,0,H+,0,1,2,0,1000,250.0,2,E05SK,410,test
1025.0709056854248,3,5,1,4,2,0,H+,1,3,0,0,1000,250.0,3,E05SK,411,test
624.9701976776123,3,5,1,4,2,0,H+,1,5,1,0,1000,250.0,5,E05SK,412,test
624.9661445617676,3,5,1,4,2,0,H+,1,4,3,0,1000,250.0,4,E05SK,413,test
1089.1752243041992,3,5,1,4,2,0,H+,1,1,2,0,1000,250.0,1,E05SK,414,test
561.1438751220703,3,5,1,4,2,0,H+,1,1,2,0,1000,250.0,1,E05SK,415,test
945.1158046722412,3,5,1,4,2,0,H+,1,5,1,0,1000,250.0,5,E05SK,416,test
1392.8658962249756,3,5,1,4,2,0,H+,1,3,0,0,1000,250.0,3,E05SK,417,test
528.5708904266357,3,5,1,4,2,0,H+,1,3,0,0,1000,250.0,3,E05SK,418,test
752.5839805603027,3,5,1,4,2,0,H+,1,2,4,0,1000,250.0,2,E05SK,419,test
848.5801219940186,3,5,1,4,2,0,H+,1,0,5,0,1000,250.0,0,E05SK,420,test
656.6228866577148,3,5,1,4,2,0,H+,1,1,2,0,1000,250.0,1,E05SK,421,test
640.5649185180664,3,5,1,4,2,0,H+,1,4,3,0,1000,250.0,4,E05SK,422,test
704.7290802001953,3,5,1,4,2,0,H+,1,2,4,0,1000,250.0,2,E05SK,423,test
480.5121421813965,3,5,1,4,2,0,H+,1,2,4,0,1000,250.0,2,E05SK,424,test
624.5279312133789,3,5,1,4,2,0,H+,1,1,2,0,1000,250.0,1,E05SK,425,test
672.6300716400146,3,5,1,4,2,0,H+,1,4,3,0,1000,250.0,4,E05SK,426,test
544.5079803466797,3,5,1,4,2,0,H+,1,2,4,0,1000,250.0,2,E05SK,427,test
528.6188125610352,3,5,1,4,2,0,H+,1,4,3,0,1000,250.0,4,E05SK,428,test
832.6900005340576,3,5,1,4,2,0,H+,1,0,5,0,1000,250.0,0,E05SK,429,test
560.560941696167,3,5,1,4,2,0,H+,1,5,1,0,1000,250.0,5,E05SK,430,test
864.5639419555664,3,5,1,4,2,0,H+,1,0,5,0,1000,250.0,0,E05SK,431,test
496.6750144958496,3,5,1,4,2,0,H+,1,5,1,0,1000,250.0,5,E05SK,432,test
720.5760478973389,3,5,1,4,2,0,H+,1,4,3,0,1000,250.0,4,E05SK,433,test
560.7078075408936,3,5,1,4,2,0,H+,1,5,1,0,1000,250.0,5,E05SK,434,test
1264.8260593414307,3,5,1,4,2,0,H+,1,3,0,0,1000,250.0,3,E05SK,435,test
528.5370349884033,3,5,1,4,2,0,H+,1,4,3,0,1000,250.0,4,E05SK,436,test
704.5748233795166,3,5,1,4,2,0,H+,1,3,0,0,1000,250.0,3,E05SK,437,test
528.7690162658691,3,5,1,4,2,0,H+,1,5,1,0,1000,250.0,5,E05SK,438,test
624.946117401123,3,5,1,4,2,0,H+,1,4,3,0,1000,250.0,4,E05SK,439,test
913.1450653076172,3,5,1,4,2,0,H+,1,0,5,0,1000,250.0,0,E05SK,440,test
640.9471035003662,3,5,1,4,2,0,H+,1,2,4,0,1000,250.0,2,E05SK,441,test
640.8908367156982,3,5,1,4,2,0,H+,1,0,5,0,1000,250.0,0,E05SK,442,test
849.1668701171875,3,5,1,4,2,0,H+,1,3,0,0,1000,250.0,3,E05SK,443,test
576.9748687744141,3,5,1,4,2,0,H+,1,5,1,0,1000,250.0,5,E05SK,444,test
721.1551666259766,3,5,1,4,2,0,H+,1,0,5,0,1000,250.0,0,E05SK,445,test
609.1129779815674,3,5,1,4,2,0,H+,1,2,4,0,1000,250.0,2,E05SK,446,test
960.9909057617188,3,5,1,4,2,0,H+,1,0,5,0,1000,250.0,0,E05SK,447,test
705.1389217376709,3,5,1,4,2,0,H+,1,4,3,0,1000,250.0,4,E05SK,448,test
577.4688720703125,3,5,1,4,2,0,H+,1,4,3,0,1000,250.0,4,E05SK,449,test
673.1400489807129,3,5,1,4,2,0,H+,1,0,5,0,1000,250.0,0,E05SK,450,test
561.0699653625488,3,5,1,4,2,0,H+,1,4,3,0,1000,250.0,4,E05SK,451,test
625.1518726348877,3,5,1,4,2,0,H+,1,0,5,0,1000,250.0,0,E05SK,452,test
544.9352264404297,3,5,1,4,2,0,H+,1,0,5,0,1000,250.0,0,E05SK,453,test
561.0229969024658,3,5,1,4,2,0,H+,1,4,3,0,1000,250.0,4,E05SK,454,test
528.9340019226074,3,5,1,4,2,0,H+,1,4,3,0,1000,250.0,4,E05SK,455,test
592.9980278015137,3,5,1,4,2,0,H+,1,0,5,0,1000,250.0,0,E05SK,456,test
641.1290168762207,3,5,1,4,2,0,H+,1,4,3,0,1000,250.0,4,E05SK,457,test
609.097957611084,3,5,1,4,2,0,H+,1,2,4,0,1000,250.0,2,E05SK,458,test
784.9490642547607,3,5,1,4,2,0,H+,1,3,0,0,1000,250.0,3,E05SK,459,test
721.0309505462646,3,5,1,4,2,0,H+,1,1,2,0,1000,250.0,1,E05SK,460,test
609.1210842132568,3,5,1,4,2,0,H+,1,4,3,0,1000,250.0,4,E05SK,461,test
640.8958435058594,3,5,1,4,2,0,H+,1,2,4,0,1000,250.0,2,E05SK,462,test
1521.0299491882324,3,5,1,4,2,0,H+,1,0,5,0,1000,250.0,0,E05SK,463,test
641.0419940948486,3,5,1,4,2,0,H+,1,1,2,0,1000,250.0,1,E05SK,464,test
576.9999027252197,3,5,1,4,2,0,H+,1,1,2,0,1000,250.0,1,E05SK,465,test
641.0870552062988,3,5,1,4,2,0,H+,0,0,5,0,1000,250.0,4,E05SK,466,test
753.0331611633301,3,5,1,4,2,0,H+,1,5,1,0,1000,250.0,5,E05SK,467,test
656.9530963897705,3,5,1,4,2,0,H+,1,2,4,0,1000,250.0,2,E05SK,468,test
560.8770847320557,3,5,1,4,2,0,H+,1,4,3,0,1000,250.0,4,E05SK,469,test
576.9548416137695,3,5,1,4,2,0,H+,1,5,1,0,1000,250.0,5,E05SK,470,test
817.0130252838135,3,5,1,4,2,0,H+,1,3,0,0,1000,250.0,3,E05SK,471,test
561.0978603363037,3,5,1,4,2,0,H+,1,4,3,0,1000,250.0,4,E05SK,472,test
561.1248016357422,3,5,1,4,2,0,H+,1,4,3,0,1000,250.0,4,E05SK,473,test
769.1400051116943,3,5,1,4,2,0,H+,1,0,5,0,1000,250.0,0,E05SK,474,test
544.989824295044,3,5,1,4,2,0,H+,1,1,2,0,1000,250.0,1,E05SK,475,test
865.1828765869141,3,5,1,4,2,0,H+,1,3,0,0,1000,250.0,3,E05SK,476,test
673.0039119720459,3,5,1,4,2,0,H+,0,0,5,0,1000,250.0,4,E05SK,477,test
753.093957901001,3,5,1,4,2,0,H+,1,3,0,0,1000,250.0,3,E05SK,478,test
592.9770469665527,3,5,1,4,2,0,H+,1,2,4,0,1000,250.0,2,E05SK,479,test
464.8609161376953,3,5,1,4,2,0,H+,1,2,4,0,1000,250.0,2,E05SK,480,test
448.86112213134766,3,5,1,4,2,0,H+,1,2,4,0,1000,250.0,2,E05SK,481,test
448.9409923553467,3,5,1,4,2,0,H+,1,2,4,0,1000,250.0,2,E05SK,482,test
704.9920558929443,3,5,1,4,2,0,H+,1,1,2,0,1000,250.0,1,E05SK,483,test
513.0760669708252,3,5,1,4,2,0,H+,0,3,0,0,1000,250.0,2,E05SK,484,test
592.9689407348633,3,5,1,4,2,0,H+,1,2,4,0,1000,250.0,2,E05SK,485,test
640.8989429473877,3,5,1,4,2,0,H+,1,4,3,0,1000,250.0,4,E05SK,486,test
688.884973526001,3,5,1,4,2,0,H+,1,3,0,0,1000,250.0,3,E05SK,487,test
672.5671291351318,3,5,1,4,2,0,H+,0,0,5,0,1000,250.0,4,E05SK,488,test
688.878059387207,3,5,1,4,2,0,H+,1,3,0,0,1000,250.0,3,E05SK,489,test
528.717041015625,3,5,1,4,2,0,H+,1,3,0,0,1000,250.0,3,E05SK,490,test
672.9879379272461,3,5,1,4,2,0,H+,1,5,1,0,1000,250.0,5,E05SK,491,test
641.0670280456543,3,5,1,4,2,0,H+,1,2,4,0,1000,250.0,2,E05SK,492,test
560.5881214141846,3,5,1,4,2,0,H+,1,3,0,0,1000,250.0,3,E05SK,493,test
448.52185249328613,3,5,1,4,2,0,H+,1,3,0,0,1000,250.0,3,E05SK,494,test
784.6131324768066,3,5,1,4,2,0,H+,1,3,0,0,1000,250.0,3,E05SK,495,test
640.7570838928223,3,5,1,4,2,0,H+,1,1,2,0,1000,250.0,1,E05SK,496,test
672.7170944213867,3,5,1,4,2,0,H+,1,4,3,0,1000,250.0,4,E05SK,497,test
528.555154800415,3,5,1,4,2,0,H+,1,0,5,0,1000,250.0,0,E05SK,498,test
560.2519512176514,3,5,1,4,2,0,H+,1,0,5,0,1000,250.0,0,E05SK,499,test
