RT,SRmap_0,SRmap_1,SRmap_2,SRmap_3,SRmap_4,SRmap_5,condition,correct,correct_response,curstim,ms-precue,ms-prestimblank,ntrials,response,subject,trial,type
1007.0290565490723,5,3,1,0,4,2,E+,1,1,2,400,600,250.0,1,d17mj,0,train
2303.1389713287354,5,3,1,0,4,2,E+,1,4,4,400,600,250.0,4,d17mj,1,train
143.19705963134766,5,3,1,0,4,2,E+,1,1,2,400,600,250.0,1,d17mj,2,train
46.827077865600586,5,3,1,0,4,2,E+,1,0,3,400,600,250.0,0,d17mj,3,train
2015.117883682251,5,3,1,0,4,2,E+,1,4,4,400,600,250.0,4,d17mj,4,train
63.26794624328613,5,3,1,0,4,2,E+,1,4,4,400,600,250.0,4,d17mj,5,train
31.126976013183594,5,3,1,0,4,2,E+,1,3,1,400,600,250.0,3,d17mj,6,train
111.19794845581055,5,3,1,0,4,2,E+,1,3,1,400,600,250.0,3,d17mj,7,train
431.26702308654785,5,3,1,0,4,2,E+,1,1,2,400,600,250.0,1,d17mj,8,train
175.20809173583984,5,3,1,0,4,2,E+,1,1,2,400,600,250.0,1,d17mj,9,train
159.13891792297363,5,3,1,0,4,2,E+,1,3,1,400,600,250.0,3,d17mj,10,train
895.1470851898193,5,3,1,0,4,2,E+,1,2,5,400,600,250.0,2,d17mj,11,train
591.2439823150635,5,3,1,0,4,2,E+,1,5,0,400,600,250.0,5,d17mj,12,train
287.2481346130371,5,3,1,0,4,2,E+,0,4,4,400,600,250.0,3,d17mj,13,train
383.16893577575684,5,3,1,0,4,2,E+,1,3,1,400,600,250.0,3,d17mj,14,train
175.15301704406738,5,3,1,0,4,2,E+,1,4,4,400,600,250.0,4,d17mj,15,train
143.22590827941895,5,3,1,0,4,2,E+,1,0,3,400,600,250.0,0,d17mj,16,train
223.25396537780762,5,3,1,0,4,2,E+,1,3,1,400,600,250.0,3,d17mj,17,train
47.30820655822754,5,3,1,0,4,2,E+,1,3,1,400,600,250.0,3,d17mj,18,train
15.323877334594727,5,3,1,0,4,2,E+,1,0,3,400,600,250.0,0,d17mj,19,train
159.32798385620117,5,3,1,0,4,2,E+,1,5,0,400,600,250.0,5,d17mj,20,train
15.267133712768555,5,3,1,0,4,2,E+,1,4,4,400,600,250.0,4,d17mj,21,train
111.20200157165527,5,3,1,0,4,2,E+,1,1,2,400,600,250.0,1,d17mj,22,train
63.26484680175781,5,3,1,0,4,2,E+,1,0,3,400,600,250.0,0,d17mj,23,train
126.88803672790527,5,3,1,0,4,2,E+,1,0,3,400,600,250.0,0,d17mj,24,train
111.37986183166504,5,3,1,0,4,2,E+,1,4,4,400,600,250.0,4,d17mj,25,train
79.73313331604004,5,3,1,0,4,2,E+,1,3,1,400,600,250.0,3,d17mj,26,train
175.68397521972656,5,3,1,0,4,2,E+,1,2,5,400,600,250.0,2,d17mj,27,train
31.356096267700195,5,3,1,0,4,2,E+,1,0,3,400,600,250.0,0,d17mj,28,train
239.3500804901123,5,3,1,0,4,2,E+,1,4,4,400,600,250.0,4,d17mj,29,train
63.243865966796875,5,3,1,0,4,2,E+,1,5,0,400,600,250.0,5,d17mj,30,train
15.856027603149414,5,3,1,0,4,2,E+,1,0,3,400,600,250.0,0,d17mj,31,train
463.8688564300537,5,3,1,0,4,2,E+,1,1,2,400,600,250.0,1,d17mj,32,train
31.495094299316406,5,3,1,0,4,2,E+,1,1,2,400,600,250.0,1,d17mj,33,train
79.29706573486328,5,3,1,0,4,2,E+,1,0,3,400,600,250.0,0,d17mj,34,train
47.31607437133789,5,3,1,0,4,2,E+,1,5,0,400,600,250.0,5,d17mj,35,train
175.22001266479492,5,3,1,0,4,2,E+,1,1,2,400,600,250.0,1,d17mj,36,train
335.176944732666,5,3,1,0,4,2,E+,1,2,5,400,600,250.0,2,d17mj,37,train
223.1159210205078,5,3,1,0,4,2,E+,1,3,1,400,600,250.0,3,d17mj,38,train
831.1729431152344,5,3,1,0,4,2,E+,1,4,4,400,600,250.0,4,d17mj,39,train
63.32898139953613,5,3,1,0,4,2,E+,1,5,0,400,600,250.0,5,d17mj,40,train
63.467979431152344,5,3,1,0,4,2,E+,1,4,4,400,600,250.0,4,d17mj,41,train
159.11293029785156,5,3,1,0,4,2,E+,1,2,5,400,600,250.0,2,d17mj,42,train
127.18605995178223,5,3,1,0,4,2,E+,1,0,3,400,600,250.0,0,d17mj,43,train
127.64787673950195,5,3,1,0,4,2,E+,1,4,4,400,600,250.0,4,d17mj,44,train
190.94204902648926,5,3,1,0,4,2,E+,1,1,2,400,600,250.0,1,d17mj,45,train
111.26589775085449,5,3,1,0,4,2,E+,1,1,2,400,600,250.0,1,d17mj,46,train
47.21808433532715,5,3,1,0,4,2,E+,1,0,3,400,600,250.0,0,d17mj,47,train
47.32322692871094,5,3,1,0,4,2,E+,1,5,0,400,600,250.0,5,d17mj,48,train
239.23397064208984,5,3,1,0,4,2,E+,0,3,1,400,600,250.0,2,d17mj,49,train
351.27997398376465,5,3,1,0,4,2,E+,1,1,2,400,600,250.0,1,d17mj,50,train
143.17703247070312,5,3,1,0,4,2,E+,1,2,5,400,600,250.0,2,d17mj,51,train
0.052928924560546875,5,3,1,0,4,2,E+,1,1,2,400,600,250.0,1,d17mj,52,train
191.17212295532227,5,3,1,0,4,2,E+,1,4,4,400,600,250.0,4,d17mj,53,train
0.052928924560546875,5,3,1,0,4,2,E+,1,0,3,400,600,250.0,0,d17mj,54,train
335.21318435668945,5,3,1,0,4,2,E+,1,4,4,400,600,250.0,4,d17mj,55,train
79.25701141357422,5,3,1,0,4,2,E+,1,1,2,400,600,250.0,1,d17mj,56,train
447.2651481628418,5,3,1,0,4,2,E+,1,0,3,400,600,250.0,0,d17mj,57,train
399.32799339294434,5,3,1,0,4,2,E+,1,3,1,400,600,250.0,3,d17mj,58,train
143.30101013183594,5,3,1,0,4,2,E+,1,5,0,400,600,250.0,5,d17mj,59,train
143.24498176574707,5,3,1,0,4,2,E+,1,2,5,400,600,250.0,2,d17mj,60,train
591.3071632385254,5,3,1,0,4,2,E+,1,3,1,400,600,250.0,3,d17mj,61,train
0.051021575927734375,5,3,1,0,4,2,E+,1,3,1,400,600,250.0,3,d17mj,62,train
63.311100006103516,5,3,1,0,4,2,E+,1,1,2,400,600,250.0,1,d17mj,63,train
111.3121509552002,5,3,1,0,4,2,E+,1,1,2,400,600,250.0,1,d17mj,64,train
95.30997276306152,5,3,1,0,4,2,E+,1,2,5,400,600,250.0,2,d17mj,65,train
95.3378677368164,5,3,1,0,4,2,E+,1,4,4,400,600,250.0,4,d17mj,66,train
207.258939743042,5,3,1,0,4,2,E+,1,2,5,400,600,250.0,2,d17mj,67,train
47.35279083251953,5,3,1,0,4,2,E+,1,0,3,400,600,250.0,0,d17mj,68,train
191.11204147338867,5,3,1,0,4,2,E+,1,5,0,400,600,250.0,5,d17mj,69,train
159.19780731201172,5,3,1,0,4,2,E+,1,0,3,400,600,250.0,0,d17mj,70,train
255.1407814025879,5,3,1,0,4,2,E+,1,5,0,400,600,250.0,5,d17mj,71,train
143.36204528808594,5,3,1,0,4,2,E+,0,3,1,400,600,250.0,2,d17mj,72,train
95.50094604492188,5,3,1,0,4,2,E+,1,3,1,400,600,250.0,3,d17mj,73,train
15.219926834106445,5,3,1,0,4,2,E+,1,0,3,400,600,250.0,0,d17mj,74,train
127.2580623626709,5,3,1,0,4,2,E+,1,4,4,400,600,250.0,4,d17mj,75,train
319.60487365722656,5,3,1,0,4,2,E+,1,4,4,400,600,250.0,4,d17mj,76,train
127.18510627746582,5,3,1,0,4,2,E+,1,3,1,400,600,250.0,3,d17mj,77,train
63.211917877197266,5,3,1,0,4,2,E+,1,3,1,400,600,250.0,3,d17mj,78,train
175.1999855041504,5,3,1,0,4,2,E+,1,5,0,400,600,250.0,5,d17mj,79,train
191.27583503723145,5,3,1,0,4,2,E+,1,2,5,400,600,250.0,2,d17mj,80,train
127.3660659790039,5,3,1,0,4,2,E+,1,1,2,400,600,250.0,1,d17mj,81,train
543.2419776916504,5,3,1,0,4,2,E+,1,0,3,400,600,250.0,0,d17mj,82,train
0.052928924560546875,5,3,1,0,4,2,E+,1,1,2,400,600,250.0,1,d17mj,83,train
79.42700386047363,5,3,1,0,4,2,E+,1,2,5,400,600,250.0,2,d17mj,84,train
127.39014625549316,5,3,1,0,4,2,E+,1,4,4,400,600,250.0,4,d17mj,85,train
463.238000869751,5,3,1,0,4,2,E+,1,5,0,400,600,250.0,5,d17mj,86,train
127.30193138122559,5,3,1,0,4,2,E+,1,3,1,400,600,250.0,3,d17mj,87,train
479.4139862060547,5,3,1,0,4,2,E+,1,0,3,400,600,250.0,0,d17mj,88,train
191.29109382629395,5,3,1,0,4,2,E+,1,2,5,400,600,250.0,2,d17mj,89,train
623.2831478118896,5,3,1,0,4,2,E+,1,2,5,400,600,250.0,2,d17mj,90,train
206.8018913269043,5,3,1,0,4,2,E+,1,2,5,400,600,250.0,2,d17mj,91,train
271.14295959472656,5,3,1,0,4,2,E+,1,4,4,400,600,250.0,4,d17mj,92,train
463.31787109375,5,3,1,0,4,2,E+,1,3,1,400,600,250.0,3,d17mj,93,train
287.186861038208,5,3,1,0,4,2,E+,1,0,3,400,600,250.0,0,d17mj,94,train
158.96296501159668,5,3,1,0,4,2,E+,1,4,4,400,600,250.0,4,d17mj,95,train
127.0899772644043,5,3,1,0,4,2,E+,1,5,0,400,600,250.0,5,d17mj,96,train
111.2070083618164,5,3,1,0,4,2,E+,0,2,5,400,600,250.0,4,d17mj,97,train
175.51016807556152,5,3,1,0,4,2,E+,1,5,0,400,600,250.0,5,d17mj,98,train
31.179189682006836,5,3,1,0,4,2,E+,1,5,0,400,600,250.0,5,d17mj,99,train
207.2441577911377,5,3,1,0,4,2,E+,1,2,5,400,600,250.0,2,d17mj,100,train
175.1718521118164,5,3,1,0,4,2,E+,1,4,4,400,600,250.0,4,d17mj,101,train
142.45295524597168,5,3,1,0,4,2,E+,1,2,5,400,600,250.0,2,d17mj,102,train
79.45680618286133,5,3,1,0,4,2,E+,1,2,5,400,600,250.0,2,d17mj,103,train
271.21901512145996,5,3,1,0,4,2,E+,1,5,0,400,600,250.0,5,d17mj,104,train
159.0721607208252,5,3,1,0,4,2,E+,1,1,2,400,600,250.0,1,d17mj,105,train
63.25721740722656,5,3,1,0,4,2,E+,1,5,0,400,600,250.0,5,d17mj,106,train
111.2217903137207,5,3,1,0,4,2,E+,1,2,5,400,600,250.0,2,d17mj,107,train
127.12502479553223,5,3,1,0,4,2,E+,1,0,3,400,600,250.0,0,d17mj,108,train
207.15093612670898,5,3,1,0,4,2,E+,1,3,1,400,600,250.0,3,d17mj,109,train
111.22298240661621,5,3,1,0,4,2,E+,1,4,4,400,600,250.0,4,d17mj,110,train
127.11381912231445,5,3,1,0,4,2,E+,0,3,1,400,600,250.0,2,d17mj,111,train
223.62995147705078,5,3,1,0,4,2,E+,1,3,1,400,600,250.0,3,d17mj,112,train
127.14982032775879,5,3,1,0,4,2,E+,1,0,3,400,600,250.0,0,d17mj,113,train
127.16102600097656,5,3,1,0,4,2,E+,1,2,5,400,600,250.0,2,d17mj,114,train
207.20314979553223,5,3,1,0,4,2,E+,1,5,0,400,600,250.0,5,d17mj,115,train
79.2689323425293,5,3,1,0,4,2,E+,1,0,3,400,600,250.0,0,d17mj,116,train
79.1621208190918,5,3,1,0,4,2,E+,1,5,0,400,600,250.0,5,d17mj,117,train
127.20990180969238,5,3,1,0,4,2,E+,1,4,4,400,600,250.0,4,d17mj,118,train
303.86900901794434,5,3,1,0,4,2,E+,1,4,4,400,600,250.0,4,d17mj,119,train
111.82618141174316,5,3,1,0,4,2,E+,1,3,1,400,600,250.0,3,d17mj,120,train
79.9109935760498,5,3,1,0,4,2,E+,1,1,2,400,600,250.0,1,d17mj,121,train
575.7260322570801,5,3,1,0,4,2,E+,1,0,3,400,600,250.0,0,d17mj,122,train
159.9428653717041,5,3,1,0,4,2,E+,1,1,2,400,600,250.0,1,d17mj,123,train
207.83686637878418,5,3,1,0,4,2,E+,0,3,1,400,600,250.0,4,d17mj,124,train
415.8060550689697,5,3,1,0,4,2,E+,1,3,1,400,600,250.0,3,d17mj,125,train
431.86402320861816,5,3,1,0,4,2,E+,1,3,1,400,600,250.0,3,d17mj,126,train
63.928842544555664,5,3,1,0,4,2,E+,0,1,2,400,600,250.0,0,d17mj,127,train
847.4099636077881,5,3,1,0,4,2,E+,1,4,4,400,600,250.0,4,d17mj,128,train
223.16884994506836,5,3,1,0,4,2,E+,1,2,5,400,600,250.0,2,d17mj,129,train
111.19890213012695,5,3,1,0,4,2,E+,1,0,3,400,600,250.0,0,d17mj,130,train
143.2480812072754,5,3,1,0,4,2,E+,1,2,5,400,600,250.0,2,d17mj,131,train
143.25809478759766,5,3,1,0,4,2,E+,1,4,4,400,600,250.0,4,d17mj,132,train
95.26801109313965,5,3,1,0,4,2,E+,0,3,1,400,600,250.0,2,d17mj,133,train
623.2039928436279,5,3,1,0,4,2,E+,1,2,5,400,600,250.0,2,d17mj,134,train
319.047212600708,5,3,1,0,4,2,E+,1,5,0,400,600,250.0,5,d17mj,135,train
127.23207473754883,5,3,1,0,4,2,E+,1,2,5,400,600,250.0,2,d17mj,136,train
95.91889381408691,5,3,1,0,4,2,E+,1,5,0,400,600,250.0,5,d17mj,137,train
175.7340431213379,5,3,1,0,4,2,E+,1,1,2,400,600,250.0,1,d17mj,138,train
175.92620849609375,5,3,1,0,4,2,E+,1,3,1,400,600,250.0,3,d17mj,139,train
15.733003616333008,5,3,1,0,4,2,E+,1,3,1,400,600,250.0,3,d17mj,140,train
111.15097999572754,5,3,1,0,4,2,E+,1,5,0,400,600,250.0,5,d17mj,141,train
95.19791603088379,5,3,1,0,4,2,E+,1,4,4,400,600,250.0,4,d17mj,142,train
207.1840763092041,5,3,1,0,4,2,E+,1,1,2,400,600,250.0,1,d17mj,143,train
303.1420707702637,5,3,1,0,4,2,E+,1,2,5,400,600,250.0,2,d17mj,144,train
15.20991325378418,5,3,1,0,4,2,E+,1,0,3,400,600,250.0,0,d17mj,145,train
511.1570358276367,5,3,1,0,4,2,E+,1,2,5,400,600,250.0,2,d17mj,146,train
111.24205589294434,5,3,1,0,4,2,E+,1,1,2,400,600,250.0,1,d17mj,147,train
431.2407970428467,5,3,1,0,4,2,E+,1,0,3,400,600,250.0,0,d17mj,148,train
175.2939224243164,5,3,1,0,4,2,E+,1,5,0,400,600,250.0,5,d17mj,149,train
63.32206726074219,5,3,1,0,4,2,E+,1,0,3,400,600,250.0,0,d17mj,150,train
575.253963470459,5,3,1,0,4,2,E+,1,1,2,400,600,250.0,1,d17mj,151,train
127.22992897033691,5,3,1,0,4,2,E+,1,3,1,400,600,250.0,3,d17mj,152,train
63.21978569030762,5,3,1,0,4,2,E+,1,4,4,400,600,250.0,4,d17mj,153,train
207.23485946655273,5,3,1,0,4,2,E+,1,2,5,400,600,250.0,2,d17mj,154,train
95.3831672668457,5,3,1,0,4,2,E+,1,4,4,400,600,250.0,4,d17mj,155,train
143.2809829711914,5,3,1,0,4,2,E+,1,5,0,400,600,250.0,5,d17mj,156,train
143.23091506958008,5,3,1,0,4,2,E+,1,1,2,400,600,250.0,1,d17mj,157,train
143.23806762695312,5,3,1,0,4,2,E+,1,3,1,400,600,250.0,3,d17mj,158,train
111.16981506347656,5,3,1,0,4,2,E+,1,0,3,400,600,250.0,0,d17mj,159,train
94.05398368835449,5,3,1,0,4,2,E+,1,3,1,400,600,250.0,3,d17mj,160,train
111.21392250061035,5,3,1,0,4,2,E+,1,1,2,400,600,250.0,1,d17mj,161,train
431.31208419799805,5,3,1,0,4,2,E+,1,5,0,400,600,250.0,5,d17mj,162,train
223.15382957458496,5,3,1,0,4,2,E+,0,3,1,400,600,250.0,2,d17mj,163,train
175.21405220031738,5,3,1,0,4,2,E+,1,5,0,400,600,250.0,5,d17mj,164,train
127.2270679473877,5,3,1,0,4,2,E+,0,4,4,400,600,250.0,3,d17mj,165,train
335.2489471435547,5,3,1,0,4,2,E+,1,4,4,400,600,250.0,4,d17mj,166,train
175.31895637512207,5,3,1,0,4,2,E+,1,0,3,400,600,250.0,0,d17mj,167,train
207.09991455078125,5,3,1,0,4,2,E+,1,3,1,400,600,250.0,3,d17mj,168,train
63.2021427154541,5,3,1,0,4,2,E+,1,2,5,400,600,250.0,2,d17mj,169,train
79.85496520996094,5,3,1,0,4,2,E+,1,3,1,400,600,250.0,3,d17mj,170,train
287.08720207214355,5,3,1,0,4,2,E+,1,1,2,400,600,250.0,1,d17mj,171,train
143.2478427886963,5,3,1,0,4,2,E+,1,0,3,400,600,250.0,0,d17mj,172,train
111.1459732055664,5,3,1,0,4,2,E+,1,1,2,400,600,250.0,1,d17mj,173,train
95.2291488647461,5,3,1,0,4,2,E+,1,0,3,400,600,250.0,0,d17mj,174,train
127.14910507202148,5,3,1,0,4,2,E+,1,0,3,400,600,250.0,0,d17mj,175,train
63.143014907836914,5,3,1,0,4,2,E+,1,0,3,400,600,250.0,0,d17mj,176,train
191.2679672241211,5,3,1,0,4,2,E+,1,2,5,400,600,250.0,2,d17mj,177,train
95.03698348999023,5,3,1,0,4,2,E+,1,0,3,400,600,250.0,0,d17mj,178,train
63.30108642578125,5,3,1,0,4,2,E+,1,0,3,400,600,250.0,0,d17mj,179,train
207.28206634521484,5,3,1,0,4,2,E+,1,4,4,400,600,250.0,4,d17mj,180,train
239.25304412841797,5,3,1,0,4,2,E+,1,5,0,400,600,250.0,5,d17mj,181,train
127.17795372009277,5,3,1,0,4,2,E+,1,2,5,400,600,250.0,2,d17mj,182,train
47.239065170288086,5,3,1,0,4,2,E+,1,4,4,400,600,250.0,4,d17mj,183,train
47.254085540771484,5,3,1,0,4,2,E+,1,4,4,400,600,250.0,4,d17mj,184,train
111.19198799133301,5,3,1,0,4,2,E+,1,1,2,400,600,250.0,1,d17mj,185,train
111.21702194213867,5,3,1,0,4,2,E+,1,2,5,400,600,250.0,2,d17mj,186,train
15.197038650512695,5,3,1,0,4,2,E+,1,4,4,400,600,250.0,4,d17mj,187,train
111.1757755279541,5,3,1,0,4,2,E+,1,0,3,400,600,250.0,0,d17mj,188,train
63.32683563232422,5,3,1,0,4,2,E+,1,1,2,400,600,250.0,1,d17mj,189,train
127.18820571899414,5,3,1,0,4,2,E+,1,2,5,400,600,250.0,2,d17mj,190,train
125.99802017211914,5,3,1,0,4,2,E+,1,3,1,400,600,250.0,3,d17mj,191,train
95.14284133911133,5,3,1,0,4,2,E+,1,1,2,400,600,250.0,1,d17mj,192,train
207.25703239440918,5,3,1,0,4,2,E+,1,3,1,400,600,250.0,3,d17mj,193,train
143.22996139526367,5,3,1,0,4,2,E+,1,2,5,400,600,250.0,2,d17mj,194,train
79.27894592285156,5,3,1,0,4,2,E+,1,1,2,400,600,250.0,1,d17mj,195,train
111.21106147766113,5,3,1,0,4,2,E+,1,3,1,400,600,250.0,3,d17mj,196,train
143.25499534606934,5,3,1,0,4,2,E+,1,2,5,400,600,250.0,2,d17mj,197,train
495.1171875,5,3,1,0,4,2,E+,1,1,2,400,600,250.0,1,d17mj,198,train
31.330108642578125,5,3,1,0,4,2,E+,1,1,2,400,600,250.0,1,d17mj,199,train
63.27080726623535,5,3,1,0,4,2,E+,1,1,2,400,600,250.0,1,d17mj,200,train
255.1419734954834,5,3,1,0,4,2,E+,1,3,1,400,600,250.0,3,d17mj,201,train
175.7810115814209,5,3,1,0,4,2,E+,1,5,0,400,600,250.0,5,d17mj,202,train
143.71514320373535,5,3,1,0,4,2,E+,1,4,4,400,600,250.0,4,d17mj,203,train
15.882015228271484,5,3,1,0,4,2,E+,0,2,5,400,600,250.0,1,d17mj,204,train
79.99086380004883,5,3,1,0,4,2,E+,1,2,5,400,600,250.0,2,d17mj,205,train
63.97199630737305,5,3,1,0,4,2,E+,1,0,3,400,600,250.0,0,d17mj,206,train
111.72795295715332,5,3,1,0,4,2,E+,1,5,0,400,600,250.0,5,d17mj,207,train
207.88121223449707,5,3,1,0,4,2,E+,1,2,5,400,600,250.0,2,d17mj,208,train
431.9028854370117,5,3,1,0,4,2,E+,1,2,5,400,600,250.0,2,d17mj,209,train
63.92502784729004,5,3,1,0,4,2,E+,1,2,5,400,600,250.0,2,d17mj,210,train
111.88602447509766,5,3,1,0,4,2,E+,1,4,4,400,600,250.0,4,d17mj,211,train
79.44989204406738,5,3,1,0,4,2,E+,1,5,0,400,600,250.0,5,d17mj,212,train
32.02009201049805,5,3,1,0,4,2,E+,1,2,5,400,600,250.0,2,d17mj,213,train
95.23701667785645,5,3,1,0,4,2,E+,1,1,2,400,600,250.0,1,d17mj,214,train
31.25,5,3,1,0,4,2,E+,1,1,2,400,600,250.0,1,d17mj,215,train
127.16507911682129,5,3,1,0,4,2,E+,0,3,1,400,600,250.0,4,d17mj,216,train
95.17383575439453,5,3,1,0,4,2,E+,1,0,3,400,600,250.0,0,d17mj,217,train
95.0319766998291,5,3,1,0,4,2,E+,1,4,4,400,600,250.0,4,d17mj,218,train
0.05507469177246094,5,3,1,0,4,2,E+,1,3,1,400,600,250.0,3,d17mj,219,train
79.31804656982422,5,3,1,0,4,2,E+,1,4,4,400,600,250.0,4,d17mj,220,train
111.1440658569336,5,3,1,0,4,2,E+,1,5,0,400,600,250.0,5,d17mj,221,train
127.2439956665039,5,3,1,0,4,2,E+,1,5,0,400,600,250.0,5,d17mj,222,train
79.18405532836914,5,3,1,0,4,2,E+,1,0,3,400,600,250.0,0,d17mj,223,train
143.17989349365234,5,3,1,0,4,2,E+,1,5,0,400,600,250.0,5,d17mj,224,train
367.26903915405273,5,3,1,0,4,2,E+,1,2,5,400,600,250.0,2,d17mj,225,train
63.282012939453125,5,3,1,0,4,2,E+,1,2,5,400,600,250.0,2,d17mj,226,train
191.13898277282715,5,3,1,0,4,2,E+,1,3,1,400,600,250.0,3,d17mj,227,train
78.80210876464844,5,3,1,0,4,2,E+,1,0,3,400,600,250.0,0,d17mj,228,train
238.18516731262207,5,3,1,0,4,2,E+,1,3,1,400,600,250.0,3,d17mj,229,train
63.256025314331055,5,3,1,0,4,2,E+,1,4,4,400,600,250.0,4,d17mj,230,train
0.053882598876953125,5,3,1,0,4,2,E+,1,5,0,400,600,250.0,5,d17mj,231,train
0.054836273193359375,5,3,1,0,4,2,E+,1,3,1,400,600,250.0,3,d17mj,232,train
0.051021575927734375,5,3,1,0,4,2,E+,0,2,5,400,600,250.0,1,d17mj,233,train
15.405893325805664,5,3,1,0,4,2,E+,1,3,1,400,600,250.0,3,d17mj,234,train
159.21401977539062,5,3,1,0,4,2,E+,1,2,5,400,600,250.0,2,d17mj,235,train
79.29682731628418,5,3,1,0,4,2,E+,1,5,0,400,600,250.0,5,d17mj,236,train
63.32898139953613,5,3,1,0,4,2,E+,1,0,3,400,600,250.0,0,d17mj,237,train
0.051021575927734375,5,3,1,0,4,2,E+,1,1,2,400,600,250.0,1,d17mj,238,train
63.268184661865234,5,3,1,0,4,2,E+,1,3,1,400,600,250.0,3,d17mj,239,train
143.25380325317383,5,3,1,0,4,2,E+,1,5,0,400,600,250.0,5,d17mj,240,train
79.31804656982422,5,3,1,0,4,2,E+,1,5,0,400,600,250.0,5,d17mj,241,train
110.51201820373535,5,3,1,0,4,2,E+,1,2,5,400,600,250.0,2,d17mj,242,train
638.8251781463623,5,3,1,0,4,2,E+,1,3,1,400,600,250.0,3,d17mj,243,train
31.347036361694336,5,3,1,0,4,2,E+,1,5,0,400,600,250.0,5,d17mj,244,train
30.956029891967773,5,3,1,0,4,2,E+,1,5,0,400,600,250.0,5,d17mj,245,train
127.2580623626709,5,3,1,0,4,2,E+,0,1,2,400,600,250.0,2,d17mj,246,train
2062.930107116699,5,3,1,0,4,2,E+,1,0,3,400,600,250.0,0,d17mj,247,train
159.21902656555176,5,3,1,0,4,2,E+,1,5,0,400,600,250.0,5,d17mj,248,train
31.280040740966797,5,3,1,0,4,2,E+,1,5,0,400,600,250.0,5,d17mj,249,train
2368.480920791626,5,3,1,0,4,2,E+,1,1,2,0,1000,250.0,1,d17mj,250,test
1584.446907043457,5,3,1,0,4,2,E+,1,0,3,0,1000,250.0,0,d17mj,251,test
1216.609001159668,5,3,1,0,4,2,E+,1,0,3,0,1000,250.0,0,d17mj,252,test
560.5268478393555,5,3,1,0,4,2,E+,1,0,3,0,1000,250.0,0,d17mj,253,test
1600.4729270935059,5,3,1,0,4,2,E+,1,3,1,0,1000,250.0,3,d17mj,254,test
400.5000591278076,5,3,1,0,4,2,E+,1,4,4,0,1000,250.0,4,d17mj,255,test
672.5130081176758,5,3,1,0,4,2,E+,1,4,4,0,1000,250.0,4,d17mj,256,test
992.4619197845459,5,3,1,0,4,2,E+,0,2,5,0,1000,250.0,0,d17mj,257,test
1136.5129947662354,5,3,1,0,4,2,E+,1,0,3,0,1000,250.0,0,d17mj,258,test
576.8940448760986,5,3,1,0,4,2,E+,1,0,3,0,1000,250.0,0,d17mj,259,test
1233.139991760254,5,3,1,0,4,2,E+,1,3,1,0,1000,250.0,3,d17mj,260,test
785.146951675415,5,3,1,0,4,2,E+,1,1,2,0,1000,250.0,1,d17mj,261,test
801.177978515625,5,3,1,0,4,2,E+,1,0,3,0,1000,250.0,0,d17mj,262,test
1168.9119338989258,5,3,1,0,4,2,E+,1,4,4,0,1000,250.0,4,d17mj,263,test
721.0588455200195,5,3,1,0,4,2,E+,1,1,2,0,1000,250.0,1,d17mj,264,test
448.84490966796875,5,3,1,0,4,2,E+,1,1,2,0,1000,250.0,1,d17mj,265,test
448.5361576080322,5,3,1,0,4,2,E+,1,1,2,0,1000,250.0,1,d17mj,266,test
512.4630928039551,5,3,1,0,4,2,E+,1,0,3,0,1000,250.0,0,d17mj,267,test
1056.5719604492188,5,3,1,0,4,2,E+,1,3,1,0,1000,250.0,3,d17mj,268,test
560.4920387268066,5,3,1,0,4,2,E+,0,2,5,0,1000,250.0,0,d17mj,269,test
736.4740371704102,5,3,1,0,4,2,E+,1,3,1,0,1000,250.0,3,d17mj,270,test
912.661075592041,5,3,1,0,4,2,E+,1,5,0,0,1000,250.0,5,d17mj,271,test
609.1058254241943,5,3,1,0,4,2,E+,1,4,4,0,1000,250.0,4,d17mj,272,test
656.9700241088867,5,3,1,0,4,2,E+,1,3,1,0,1000,250.0,3,d17mj,273,test
321.1219310760498,5,3,1,0,4,2,E+,1,2,5,0,1000,250.0,2,d17mj,274,test
384.97400283813477,5,3,1,0,4,2,E+,0,5,0,0,1000,250.0,0,d17mj,275,test
1009.1509819030762,5,3,1,0,4,2,E+,1,0,3,0,1000,250.0,0,d17mj,276,test
1553.0641078948975,5,3,1,0,4,2,E+,1,4,4,0,1000,250.0,4,d17mj,277,test
1136.535882949829,5,3,1,0,4,2,E+,1,5,0,0,1000,250.0,5,d17mj,278,test
1424.4320392608643,5,3,1,0,4,2,E+,1,5,0,0,1000,250.0,5,d17mj,279,test
656.4440727233887,5,3,1,0,4,2,E+,1,5,0,0,1000,250.0,5,d17mj,280,test
592.6189422607422,5,3,1,0,4,2,E+,1,0,3,0,1000,250.0,0,d17mj,281,test
1152.5092124938965,5,3,1,0,4,2,E+,1,4,4,0,1000,250.0,4,d17mj,282,test
800.3790378570557,5,3,1,0,4,2,E+,1,2,5,0,1000,250.0,2,d17mj,283,test
1056.5788745880127,5,3,1,0,4,2,E+,1,4,4,0,1000,250.0,4,d17mj,284,test
848.5119342803955,5,3,1,0,4,2,E+,1,0,3,0,1000,250.0,0,d17mj,285,test
656.6259860992432,5,3,1,0,4,2,E+,0,0,3,0,1000,250.0,2,d17mj,286,test
832.3590755462646,5,3,1,0,4,2,E+,1,4,4,0,1000,250.0,4,d17mj,287,test
800.5530834197998,5,3,1,0,4,2,E+,1,3,1,0,1000,250.0,3,d17mj,288,test
576.2410163879395,5,3,1,0,4,2,E+,1,0,3,0,1000,250.0,0,d17mj,289,test
608.536958694458,5,3,1,0,4,2,E+,1,1,2,0,1000,250.0,1,d17mj,290,test
609.0309619903564,5,3,1,0,4,2,E+,1,4,4,0,1000,250.0,4,d17mj,291,test
704.9770355224609,5,3,1,0,4,2,E+,1,5,0,0,1000,250.0,5,d17mj,292,test
624.9229907989502,5,3,1,0,4,2,E+,1,4,4,0,1000,250.0,4,d17mj,293,test
368.82495880126953,5,3,1,0,4,2,E+,1,3,1,0,1000,250.0,3,d17mj,294,test
705.082893371582,5,3,1,0,4,2,E+,1,5,0,0,1000,250.0,5,d17mj,295,test
704.99587059021,5,3,1,0,4,2,E+,1,2,5,0,1000,250.0,2,d17mj,296,test
592.9780006408691,5,3,1,0,4,2,E+,1,2,5,0,1000,250.0,2,d17mj,297,test
608.9959144592285,5,3,1,0,4,2,E+,1,3,1,0,1000,250.0,3,d17mj,298,test
657.0219993591309,5,3,1,0,4,2,E+,1,0,3,0,1000,250.0,0,d17mj,299,test
752.9428005218506,5,3,1,0,4,2,E+,1,4,4,0,1000,250.0,4,d17mj,300,test
544.4839000701904,5,3,1,0,4,2,E+,1,0,3,0,1000,250.0,0,d17mj,301,test
560.2970123291016,5,3,1,0,4,2,E+,1,3,1,0,1000,250.0,3,d17mj,302,test
592.6361083984375,5,3,1,0,4,2,E+,0,2,5,0,1000,250.0,0,d17mj,303,test
560.4469776153564,5,3,1,0,4,2,E+,1,2,5,0,1000,250.0,2,d17mj,304,test
576.6439437866211,5,3,1,0,4,2,E+,1,4,4,0,1000,250.0,4,d17mj,305,test
641.0210132598877,5,3,1,0,4,2,E+,0,1,2,0,1000,250.0,2,d17mj,306,test
704.9260139465332,5,3,1,0,4,2,E+,1,0,3,0,1000,250.0,0,d17mj,307,test
544.9340343475342,5,3,1,0,4,2,E+,1,3,1,0,1000,250.0,3,d17mj,308,test
1056.8017959594727,5,3,1,0,4,2,E+,1,2,5,0,1000,250.0,2,d17mj,309,test
624.8958110809326,5,3,1,0,4,2,E+,1,5,0,0,1000,250.0,5,d17mj,310,test
769.0069675445557,5,3,1,0,4,2,E+,1,1,2,0,1000,250.0,1,d17mj,311,test
673.1009483337402,5,3,1,0,4,2,E+,1,4,4,0,1000,250.0,4,d17mj,312,test
609.0128421783447,5,3,1,0,4,2,E+,1,1,2,0,1000,250.0,1,d17mj,313,test
561.0151290893555,5,3,1,0,4,2,E+,1,3,1,0,1000,250.0,3,d17mj,314,test
545.0429916381836,5,3,1,0,4,2,E+,1,3,1,0,1000,250.0,3,d17mj,315,test
881.0470104217529,5,3,1,0,4,2,E+,0,2,5,0,1000,250.0,0,d17mj,316,test
1089.0450477600098,5,3,1,0,4,2,E+,1,4,4,0,1000,250.0,4,d17mj,317,test
817.0511722564697,5,3,1,0,4,2,E+,1,0,3,0,1000,250.0,0,d17mj,318,test
704.5261859893799,5,3,1,0,4,2,E+,1,1,2,0,1000,250.0,1,d17mj,319,test
624.5439052581787,5,3,1,0,4,2,E+,1,0,3,0,1000,250.0,0,d17mj,320,test
992.5320148468018,5,3,1,0,4,2,E+,1,5,0,0,1000,250.0,5,d17mj,321,test
608.583927154541,5,3,1,0,4,2,E+,1,5,0,0,1000,250.0,5,d17mj,322,test
1023.6220359802246,5,3,1,0,4,2,E+,1,0,3,0,1000,250.0,0,d17mj,323,test
800.5998134613037,5,3,1,0,4,2,E+,1,3,1,0,1000,250.0,3,d17mj,324,test
640.5658721923828,5,3,1,0,4,2,E+,1,5,0,0,1000,250.0,5,d17mj,325,test
1136.441946029663,5,3,1,0,4,2,E+,1,2,5,0,1000,250.0,2,d17mj,326,test
944.5810317993164,5,3,1,0,4,2,E+,1,4,4,0,1000,250.0,4,d17mj,327,test
688.4720325469971,5,3,1,0,4,2,E+,1,0,3,0,1000,250.0,0,d17mj,328,test
688.521146774292,5,3,1,0,4,2,E+,1,5,0,0,1000,250.0,5,d17mj,329,test
576.3289928436279,5,3,1,0,4,2,E+,1,5,0,0,1000,250.0,5,d17mj,330,test
752.5668144226074,5,3,1,0,4,2,E+,0,2,5,0,1000,250.0,0,d17mj,331,test
768.5320377349854,5,3,1,0,4,2,E+,1,5,0,0,1000,250.0,5,d17mj,332,test
815.9341812133789,5,3,1,0,4,2,E+,1,0,3,0,1000,250.0,0,d17mj,333,test
784.5149040222168,5,3,1,0,4,2,E+,1,1,2,0,1000,250.0,1,d17mj,334,test
672.5339889526367,5,3,1,0,4,2,E+,0,2,5,0,1000,250.0,0,d17mj,335,test
800.5640506744385,5,3,1,0,4,2,E+,1,2,5,0,1000,250.0,2,d17mj,336,test
624.4399547576904,5,3,1,0,4,2,E+,1,5,0,0,1000,250.0,5,d17mj,337,test
656.4860343933105,5,3,1,0,4,2,E+,1,0,3,0,1000,250.0,0,d17mj,338,test
368.53790283203125,5,3,1,0,4,2,E+,1,3,1,0,1000,250.0,3,d17mj,339,test
384.49621200561523,5,3,1,0,4,2,E+,1,4,4,0,1000,250.0,4,d17mj,340,test
528.5229682922363,5,3,1,0,4,2,E+,1,4,4,0,1000,250.0,4,d17mj,341,test
384.5858573913574,5,3,1,0,4,2,E+,1,4,4,0,1000,250.0,4,d17mj,342,test
1152.980089187622,5,3,1,0,4,2,E+,1,2,5,0,1000,250.0,2,d17mj,343,test
464.8878574371338,5,3,1,0,4,2,E+,1,0,3,0,1000,250.0,0,d17mj,344,test
640.9568786621094,5,3,1,0,4,2,E+,1,5,0,0,1000,250.0,5,d17mj,345,test
576.9400596618652,5,3,1,0,4,2,E+,1,4,4,0,1000,250.0,4,d17mj,346,test
673.0210781097412,5,3,1,0,4,2,E+,1,5,0,0,1000,250.0,5,d17mj,347,test
672.9121208190918,5,3,1,0,4,2,E+,1,3,1,0,1000,250.0,3,d17mj,348,test
672.9800701141357,5,3,1,0,4,2,E+,1,1,2,0,1000,250.0,1,d17mj,349,test
976.9370555877686,5,3,1,0,4,2,E+,1,2,5,0,1000,250.0,2,d17mj,350,test
576.9059658050537,5,3,1,0,4,2,E+,1,0,3,0,1000,250.0,0,d17mj,351,test
753.032922744751,5,3,1,0,4,2,E+,1,4,4,0,1000,250.0,4,d17mj,352,test
897.0952033996582,5,3,1,0,4,2,E+,1,4,4,0,1000,250.0,4,d17mj,353,test
960.9420299530029,5,3,1,0,4,2,E+,1,2,5,0,1000,250.0,2,d17mj,354,test
657.0799350738525,5,3,1,0,4,2,E+,1,5,0,0,1000,250.0,5,d17mj,355,test
624.9639987945557,5,3,1,0,4,2,E+,1,1,2,0,1000,250.0,1,d17mj,356,test
640.9919261932373,5,3,1,0,4,2,E+,1,5,0,0,1000,250.0,5,d17mj,357,test
497.0269203186035,5,3,1,0,4,2,E+,0,5,0,0,1000,250.0,1,d17mj,358,test
736.9399070739746,5,3,1,0,4,2,E+,1,4,4,0,1000,250.0,4,d17mj,359,test
465.0118350982666,5,3,1,0,4,2,E+,1,4,4,0,1000,250.0,4,d17mj,360,test
545.0661182403564,5,3,1,0,4,2,E+,1,3,1,0,1000,250.0,3,d17mj,361,test
848.9639759063721,5,3,1,0,4,2,E+,1,2,5,0,1000,250.0,2,d17mj,362,test
753.0100345611572,5,3,1,0,4,2,E+,1,5,0,0,1000,250.0,5,d17mj,363,test
544.8219776153564,5,3,1,0,4,2,E+,1,4,4,0,1000,250.0,4,d17mj,364,test
608.896017074585,5,3,1,0,4,2,E+,1,3,1,0,1000,250.0,3,d17mj,365,test
848.4678268432617,5,3,1,0,4,2,E+,1,2,5,0,1000,250.0,2,d17mj,366,test
704.470157623291,5,3,1,0,4,2,E+,1,3,1,0,1000,250.0,3,d17mj,367,test
992.5470352172852,5,3,1,0,4,2,E+,1,2,5,0,1000,250.0,2,d17mj,368,test
880.4590702056885,5,3,1,0,4,2,E+,1,4,4,0,1000,250.0,4,d17mj,369,test
864.8531436920166,5,3,1,0,4,2,E+,1,0,3,0,1000,250.0,0,d17mj,370,test
832.4940204620361,5,3,1,0,4,2,E+,1,3,1,0,1000,250.0,3,d17mj,371,test
800.947904586792,5,3,1,0,4,2,E+,1,4,4,0,1000,250.0,4,d17mj,372,test
753.1149387359619,5,3,1,0,4,2,E+,1,4,4,0,1000,250.0,4,d17mj,373,test
593.0221080780029,5,3,1,0,4,2,E+,1,3,1,0,1000,250.0,3,d17mj,374,test
929.0320873260498,5,3,1,0,4,2,E+,1,0,3,0,1000,250.0,0,d17mj,375,test
640.9449577331543,5,3,1,0,4,2,E+,1,0,3,0,1000,250.0,0,d17mj,376,test
688.9979839324951,5,3,1,0,4,2,E+,1,5,0,0,1000,250.0,5,d17mj,377,test
1521.2149620056152,5,3,1,0,4,2,E+,1,2,5,0,1000,250.0,2,d17mj,378,test
561.0389709472656,5,3,1,0,4,2,E+,1,3,1,0,1000,250.0,3,d17mj,379,test
673.3338832855225,5,3,1,0,4,2,E+,1,1,2,0,1000,250.0,1,d17mj,380,test
592.9598808288574,5,3,1,0,4,2,E+,1,2,5,0,1000,250.0,2,d17mj,381,test
512.5069618225098,5,3,1,0,4,2,E+,1,3,1,0,1000,250.0,3,d17mj,382,test
768.5041427612305,5,3,1,0,4,2,E+,1,4,4,0,1000,250.0,4,d17mj,383,test
528.6858081817627,5,3,1,0,4,2,E+,1,3,1,0,1000,250.0,3,d17mj,384,test
785.1090431213379,5,3,1,0,4,2,E+,1,2,5,0,1000,250.0,2,d17mj,385,test
528.9380550384521,5,3,1,0,4,2,E+,1,2,5,0,1000,250.0,2,d17mj,386,test
416.5189266204834,5,3,1,0,4,2,E+,1,2,5,0,1000,250.0,2,d17mj,387,test
496.08707427978516,5,3,1,0,4,2,E+,1,2,5,0,1000,250.0,2,d17mj,388,test
624.4959831237793,5,3,1,0,4,2,E+,1,4,4,0,1000,250.0,4,d17mj,389,test
560.7268810272217,5,3,1,0,4,2,E+,0,0,3,0,1000,250.0,2,d17mj,390,test
688.6138916015625,5,3,1,0,4,2,E+,1,2,5,0,1000,250.0,2,d17mj,391,test
800.4541397094727,5,3,1,0,4,2,E+,1,0,3,0,1000,250.0,0,d17mj,392,test
544.5129871368408,5,3,1,0,4,2,E+,1,4,4,0,1000,250.0,4,d17mj,393,test
672.508955001831,5,3,1,0,4,2,E+,1,0,3,0,1000,250.0,0,d17mj,394,test
352.5121212005615,5,3,1,0,4,2,E+,1,0,3,0,1000,250.0,0,d17mj,395,test
624.7780323028564,5,3,1,0,4,2,E+,1,2,5,0,1000,250.0,2,d17mj,396,test
849.0068912506104,5,3,1,0,4,2,E+,1,5,0,0,1000,250.0,5,d17mj,397,test
641.0818099975586,5,3,1,0,4,2,E+,1,5,0,0,1000,250.0,5,d17mj,398,test
512.9919052124023,5,3,1,0,4,2,E+,1,4,4,0,1000,250.0,4,d17mj,399,test
561.0058307647705,5,3,1,0,4,2,E+,1,3,1,0,1000,250.0,3,d17mj,400,test
416.99695587158203,5,3,1,0,4,2,E+,1,3,1,0,1000,250.0,3,d17mj,401,test
528.9568901062012,5,3,1,0,4,2,E+,0,4,4,0,1000,250.0,5,d17mj,402,test
817.0650005340576,5,3,1,0,4,2,E+,1,5,0,0,1000,250.0,5,d17mj,403,test
625.0810623168945,5,3,1,0,4,2,E+,1,3,1,0,1000,250.0,3,d17mj,404,test
768.9609527587891,5,3,1,0,4,2,E+,1,0,3,0,1000,250.0,0,d17mj,405,test
432.9960346221924,5,3,1,0,4,2,E+,1,0,3,0,1000,250.0,0,d17mj,406,test
512.8910541534424,5,3,1,0,4,2,E+,1,3,1,0,1000,250.0,3,d17mj,407,test
401.07083320617676,5,3,1,0,4,2,E+,1,4,4,0,1000,250.0,4,d17mj,408,test
592.9369926452637,5,3,1,0,4,2,E+,1,0,3,0,1000,250.0,0,d17mj,409,test
416.7649745941162,5,3,1,0,4,2,E+,1,0,3,0,1000,250.0,0,d17mj,410,test
497.01714515686035,5,3,1,0,4,2,E+,1,1,2,0,1000,250.0,1,d17mj,411,test
593.1119918823242,5,3,1,0,4,2,E+,1,5,0,0,1000,250.0,5,d17mj,412,test
384.5040798187256,5,3,1,0,4,2,E+,1,5,0,0,1000,250.0,5,d17mj,413,test
592.5028324127197,5,3,1,0,4,2,E+,1,1,2,0,1000,250.0,1,d17mj,414,test
608.4527969360352,5,3,1,0,4,2,E+,1,3,1,0,1000,250.0,3,d17mj,415,test
512.4919414520264,5,3,1,0,4,2,E+,1,1,2,0,1000,250.0,1,d17mj,416,test
384.45186614990234,5,3,1,0,4,2,E+,1,1,2,0,1000,250.0,1,d17mj,417,test
400.8028507232666,5,3,1,0,4,2,E+,1,1,2,0,1000,250.0,1,d17mj,418,test
560.542106628418,5,3,1,0,4,2,E+,1,0,3,0,1000,250.0,0,d17mj,419,test
368.4120178222656,5,3,1,0,4,2,E+,1,0,3,0,1000,250.0,0,d17mj,420,test
544.4691181182861,5,3,1,0,4,2,E+,0,4,4,0,1000,250.0,5,d17mj,421,test
528.4647941589355,5,3,1,0,4,2,E+,1,0,3,0,1000,250.0,0,d17mj,422,test
623.0330467224121,5,3,1,0,4,2,E+,1,1,2,0,1000,250.0,1,d17mj,423,test
1184.5169067382812,5,3,1,0,4,2,E+,1,5,0,0,1000,250.0,5,d17mj,424,test
560.3330135345459,5,3,1,0,4,2,E+,1,3,1,0,1000,250.0,3,d17mj,425,test
976.5839576721191,5,3,1,0,4,2,E+,1,2,5,0,1000,250.0,2,d17mj,426,test
496.45185470581055,5,3,1,0,4,2,E+,1,3,1,0,1000,250.0,3,d17mj,427,test
464.4460678100586,5,3,1,0,4,2,E+,0,1,2,0,1000,250.0,3,d17mj,428,test
608.4718704223633,5,3,1,0,4,2,E+,1,3,1,0,1000,250.0,3,d17mj,429,test
496.5839385986328,5,3,1,0,4,2,E+,1,1,2,0,1000,250.0,1,d17mj,430,test
1216.1040306091309,5,3,1,0,4,2,E+,1,4,4,0,1000,250.0,4,d17mj,431,test
512.5060081481934,5,3,1,0,4,2,E+,1,0,3,0,1000,250.0,0,d17mj,432,test
544.5189476013184,5,3,1,0,4,2,E+,1,3,1,0,1000,250.0,3,d17mj,433,test
1152.4569988250732,5,3,1,0,4,2,E+,1,5,0,0,1000,250.0,5,d17mj,434,test
560.5659484863281,5,3,1,0,4,2,E+,1,1,2,0,1000,250.0,1,d17mj,435,test
576.4658451080322,5,3,1,0,4,2,E+,1,2,5,0,1000,250.0,2,d17mj,436,test
544.5117950439453,5,3,1,0,4,2,E+,1,3,1,0,1000,250.0,3,d17mj,437,test
560.5490207672119,5,3,1,0,4,2,E+,1,3,1,0,1000,250.0,3,d17mj,438,test
624.4940757751465,5,3,1,0,4,2,E+,1,3,1,0,1000,250.0,3,d17mj,439,test
496.4578151702881,5,3,1,0,4,2,E+,0,1,2,0,1000,250.0,3,d17mj,440,test
848.6118316650391,5,3,1,0,4,2,E+,1,0,3,0,1000,250.0,0,d17mj,441,test
1056.7641258239746,5,3,1,0,4,2,E+,1,4,4,0,1000,250.0,4,d17mj,442,test
1376.964807510376,5,3,1,0,4,2,E+,1,4,4,0,1000,250.0,4,d17mj,443,test
576.9989490509033,5,3,1,0,4,2,E+,1,5,0,0,1000,250.0,5,d17mj,444,test
736.807107925415,5,3,1,0,4,2,E+,1,0,3,0,1000,250.0,0,d17mj,445,test
688.3080005645752,5,3,1,0,4,2,E+,1,0,3,0,1000,250.0,0,d17mj,446,test
432.4970245361328,5,3,1,0,4,2,E+,1,2,5,0,1000,250.0,2,d17mj,447,test
608.4690093994141,5,3,1,0,4,2,E+,1,2,5,0,1000,250.0,2,d17mj,448,test
624.5160102844238,5,3,1,0,4,2,E+,1,3,1,0,1000,250.0,3,d17mj,449,test
416.5232181549072,5,3,1,0,4,2,E+,1,3,1,0,1000,250.0,3,d17mj,450,test
560.4269504547119,5,3,1,0,4,2,E+,1,4,4,0,1000,250.0,4,d17mj,451,test
560.5120658874512,5,3,1,0,4,2,E+,1,4,4,0,1000,250.0,4,d17mj,452,test
816.5872097015381,5,3,1,0,4,2,E+,0,0,3,0,1000,250.0,2,d17mj,453,test
928.635835647583,5,3,1,0,4,2,E+,1,0,3,0,1000,250.0,0,d17mj,454,test
656.440019607544,5,3,1,0,4,2,E+,1,1,2,0,1000,250.0,1,d17mj,455,test
1008.6209774017334,5,3,1,0,4,2,E+,1,2,5,0,1000,250.0,2,d17mj,456,test
752.5711059570312,5,3,1,0,4,2,E+,0,1,2,0,1000,250.0,0,d17mj,457,test
976.5589237213135,5,3,1,0,4,2,E+,1,5,0,0,1000,250.0,5,d17mj,458,test
928.4391403198242,5,3,1,0,4,2,E+,1,2,5,0,1000,250.0,2,d17mj,459,test
720.4861640930176,5,3,1,0,4,2,E+,1,2,5,0,1000,250.0,2,d17mj,460,test
1008.5549354553223,5,3,1,0,4,2,E+,1,5,0,0,1000,250.0,5,d17mj,461,test
784.5029830932617,5,3,1,0,4,2,E+,1,3,1,0,1000,250.0,3,d17mj,462,test
976.5498638153076,5,3,1,0,4,2,E+,1,4,4,0,1000,250.0,4,d17mj,463,test
880.5949687957764,5,3,1,0,4,2,E+,1,2,5,0,1000,250.0,2,d17mj,464,test
608.6289882659912,5,3,1,0,4,2,E+,1,2,5,0,1000,250.0,2,d17mj,465,test
912.4610424041748,5,3,1,0,4,2,E+,1,1,2,0,1000,250.0,1,d17mj,466,test
688.6801719665527,5,3,1,0,4,2,E+,1,1,2,0,1000,250.0,1,d17mj,467,test
1056.6449165344238,5,3,1,0,4,2,E+,1,3,1,0,1000,250.0,3,d17mj,468,test
944.5638656616211,5,3,1,0,4,2,E+,1,4,4,0,1000,250.0,4,d17mj,469,test
1072.3721981048584,5,3,1,0,4,2,E+,1,0,3,0,1000,250.0,0,d17mj,470,test
784.5618724822998,5,3,1,0,4,2,E+,1,1,2,0,1000,250.0,1,d17mj,471,test
688.5371208190918,5,3,1,0,4,2,E+,1,0,3,0,1000,250.0,0,d17mj,472,test
624.5369911193848,5,3,1,0,4,2,E+,1,2,5,0,1000,250.0,2,d17mj,473,test
432.72995948791504,5,3,1,0,4,2,E+,0,1,2,0,1000,250.0,3,d17mj,474,test
560.6029033660889,5,3,1,0,4,2,E+,1,3,1,0,1000,250.0,3,d17mj,475,test
1120.4581260681152,5,3,1,0,4,2,E+,1,0,3,0,1000,250.0,0,d17mj,476,test
560.5599880218506,5,3,1,0,4,2,E+,1,0,3,0,1000,250.0,0,d17mj,477,test
432.8029155731201,5,3,1,0,4,2,E+,1,0,3,0,1000,250.0,0,d17mj,478,test
768.5348987579346,5,3,1,0,4,2,E+,1,2,5,0,1000,250.0,2,d17mj,479,test
592.5159454345703,5,3,1,0,4,2,E+,1,4,4,0,1000,250.0,4,d17mj,480,test
416.5010452270508,5,3,1,0,4,2,E+,1,5,0,0,1000,250.0,5,d17mj,481,test
816.4939880371094,5,3,1,0,4,2,E+,1,2,5,0,1000,250.0,2,d17mj,482,test
448.50611686706543,5,3,1,0,4,2,E+,1,5,0,0,1000,250.0,5,d17mj,483,test
672.52516746521,5,3,1,0,4,2,E+,1,3,1,0,1000,250.0,3,d17mj,484,test
576.4689445495605,5,3,1,0,4,2,E+,1,4,4,0,1000,250.0,4,d17mj,485,test
576.4939785003662,5,3,1,0,4,2,E+,1,5,0,0,1000,250.0,5,d17mj,486,test
768.5630321502686,5,3,1,0,4,2,E+,1,3,1,0,1000,250.0,3,d17mj,487,test
720.52001953125,5,3,1,0,4,2,E+,1,0,3,0,1000,250.0,0,d17mj,488,test
400.44283866882324,5,3,1,0,4,2,E+,1,2,5,0,1000,250.0,2,d17mj,489,test
496.5388774871826,5,3,1,0,4,2,E+,1,3,1,0,1000,250.0,3,d17mj,490,test
656.5079689025879,5,3,1,0,4,2,E+,1,2,5,0,1000,250.0,2,d17mj,491,test
672.5478172302246,5,3,1,0,4,2,E+,1,5,0,0,1000,250.0,5,d17mj,492,test
560.4541301727295,5,3,1,0,4,2,E+,1,3,1,0,1000,250.0,3,d17mj,493,test
800.5099296569824,5,3,1,0,4,2,E+,1,4,4,0,1000,250.0,4,d17mj,494,test
752.5119781494141,5,3,1,0,4,2,E+,1,1,2,0,1000,250.0,1,d17mj,495,test
496.48404121398926,5,3,1,0,4,2,E+,1,1,2,0,1000,250.0,1,d17mj,496,test
480.54003715515137,5,3,1,0,4,2,E+,1,1,2,0,1000,250.0,1,d17mj,497,test
608.5889339447021,5,3,1,0,4,2,E+,1,3,1,0,1000,250.0,3,d17mj,498,test
576.4579772949219,5,3,1,0,4,2,E+,1,3,1,0,1000,250.0,3,d17mj,499,test
