RT,SRmap_0,SRmap_1,SRmap_2,SRmap_3,SRmap_4,SRmap_5,condition,correct,correct_response,curstim,ms-precue,ms-prestimblank,ntrials,response,subject,trial,type
5135.468006134033,4,1,2,0,3,5,E+,1,4,0,400,600,250.0,4,d04tm,0,train
7199.302911758423,4,1,2,0,3,5,E+,1,5,5,400,600,250.0,5,d04tm,1,train
4575.2599239349365,4,1,2,0,3,5,E+,1,3,4,400,600,250.0,3,d04tm,2,train
1439.7940635681152,4,1,2,0,3,5,E+,1,3,4,400,600,250.0,3,d04tm,3,train
1487.804889678955,4,1,2,0,3,5,E+,1,3,4,400,600,250.0,3,d04tm,4,train
1487.6761436462402,4,1,2,0,3,5,E+,1,0,3,400,600,250.0,0,d04tm,5,train
783.9920520782471,4,1,2,0,3,5,E+,1,0,3,400,600,250.0,0,d04tm,6,train
1791.900873184204,4,1,2,0,3,5,E+,1,5,5,400,600,250.0,5,d04tm,7,train
1007.9398155212402,4,1,2,0,3,5,E+,1,5,5,400,600,250.0,5,d04tm,8,train
895.9529399871826,4,1,2,0,3,5,E+,1,5,5,400,600,250.0,5,d04tm,9,train
1311.363935470581,4,1,2,0,3,5,E+,1,3,4,400,600,250.0,3,d04tm,10,train
911.4599227905273,4,1,2,0,3,5,E+,1,0,3,400,600,250.0,0,d04tm,11,train
2383.363962173462,4,1,2,0,3,5,E+,1,2,2,400,600,250.0,2,d04tm,12,train
303.2951354980469,4,1,2,0,3,5,E+,1,2,2,400,600,250.0,2,d04tm,13,train
1279.3278694152832,4,1,2,0,3,5,E+,1,5,5,400,600,250.0,5,d04tm,14,train
1327.4290561676025,4,1,2,0,3,5,E+,1,4,0,400,600,250.0,4,d04tm,15,train
671.4580059051514,4,1,2,0,3,5,E+,1,5,5,400,600,250.0,5,d04tm,16,train
1439.4011497497559,4,1,2,0,3,5,E+,1,3,4,400,600,250.0,3,d04tm,17,train
831.3288688659668,4,1,2,0,3,5,E+,1,1,1,400,600,250.0,1,d04tm,18,train
559.4220161437988,4,1,2,0,3,5,E+,1,5,5,400,600,250.0,5,d04tm,19,train
1407.4580669403076,4,1,2,0,3,5,E+,1,2,2,400,600,250.0,2,d04tm,20,train
495.1620101928711,4,1,2,0,3,5,E+,1,0,3,400,600,250.0,0,d04tm,21,train
1055.4990768432617,4,1,2,0,3,5,E+,1,4,0,400,600,250.0,4,d04tm,22,train
495.42713165283203,4,1,2,0,3,5,E+,1,0,3,400,600,250.0,0,d04tm,23,train
111.3429069519043,4,1,2,0,3,5,E+,1,0,3,400,600,250.0,0,d04tm,24,train
623.3530044555664,4,1,2,0,3,5,E+,1,2,2,400,600,250.0,2,d04tm,25,train
1423.2690334320068,4,1,2,0,3,5,E+,1,3,4,400,600,250.0,3,d04tm,26,train
1055.3548336029053,4,1,2,0,3,5,E+,1,2,2,400,600,250.0,2,d04tm,27,train
303.44390869140625,4,1,2,0,3,5,E+,1,2,2,400,600,250.0,2,d04tm,28,train
815.4408931732178,4,1,2,0,3,5,E+,1,4,0,400,600,250.0,4,d04tm,29,train
479.28810119628906,4,1,2,0,3,5,E+,1,0,3,400,600,250.0,0,d04tm,30,train
543.3709621429443,4,1,2,0,3,5,E+,0,1,1,400,600,250.0,2,d04tm,31,train
1535.3178977966309,4,1,2,0,3,5,E+,1,2,2,400,600,250.0,2,d04tm,32,train
1743.4420585632324,4,1,2,0,3,5,E+,1,3,4,400,600,250.0,3,d04tm,33,train
687.4110698699951,4,1,2,0,3,5,E+,1,3,4,400,600,250.0,3,d04tm,34,train
511.3849639892578,4,1,2,0,3,5,E+,1,5,5,400,600,250.0,5,d04tm,35,train
559.2830181121826,4,1,2,0,3,5,E+,1,2,2,400,600,250.0,2,d04tm,36,train
511.3489627838135,4,1,2,0,3,5,E+,1,0,3,400,600,250.0,0,d04tm,37,train
591.4700031280518,4,1,2,0,3,5,E+,0,1,1,400,600,250.0,2,d04tm,38,train
1279.3540954589844,4,1,2,0,3,5,E+,1,3,4,400,600,250.0,3,d04tm,39,train
879.3671131134033,4,1,2,0,3,5,E+,1,1,1,400,600,250.0,1,d04tm,40,train
543.3709621429443,4,1,2,0,3,5,E+,1,4,0,400,600,250.0,4,d04tm,41,train
975.6920337677002,4,1,2,0,3,5,E+,1,2,2,400,600,250.0,2,d04tm,42,train
127.96902656555176,4,1,2,0,3,5,E+,1,1,1,400,600,250.0,1,d04tm,43,train
335.82401275634766,4,1,2,0,3,5,E+,1,0,3,400,600,250.0,0,d04tm,44,train
175.45604705810547,4,1,2,0,3,5,E+,1,0,3,400,600,250.0,0,d04tm,45,train
687.4139308929443,4,1,2,0,3,5,E+,1,3,4,400,600,250.0,3,d04tm,46,train
527.1420478820801,4,1,2,0,3,5,E+,0,1,1,400,600,250.0,0,d04tm,47,train
239.41898345947266,4,1,2,0,3,5,E+,1,5,5,400,600,250.0,5,d04tm,48,train
287.37711906433105,4,1,2,0,3,5,E+,0,2,2,400,600,250.0,1,d04tm,49,train
191.32018089294434,4,1,2,0,3,5,E+,1,0,3,400,600,250.0,0,d04tm,50,train
191.48778915405273,4,1,2,0,3,5,E+,1,2,2,400,600,250.0,2,d04tm,51,train
463.2298946380615,4,1,2,0,3,5,E+,1,3,4,400,600,250.0,3,d04tm,52,train
239.3929958343506,4,1,2,0,3,5,E+,1,3,4,400,600,250.0,3,d04tm,53,train
607.3811054229736,4,1,2,0,3,5,E+,1,4,0,400,600,250.0,4,d04tm,54,train
351.35388374328613,4,1,2,0,3,5,E+,1,3,4,400,600,250.0,3,d04tm,55,train
111.48214340209961,4,1,2,0,3,5,E+,1,3,4,400,600,250.0,3,d04tm,56,train
239.55893516540527,4,1,2,0,3,5,E+,1,0,3,400,600,250.0,0,d04tm,57,train
159.81197357177734,4,1,2,0,3,5,E+,1,2,2,400,600,250.0,2,d04tm,58,train
1039.680004119873,4,1,2,0,3,5,E+,1,1,1,400,600,250.0,1,d04tm,59,train
687.7357959747314,4,1,2,0,3,5,E+,1,5,5,400,600,250.0,5,d04tm,60,train
1072.0329284667969,4,1,2,0,3,5,E+,1,3,4,400,600,250.0,3,d04tm,61,train
159.98196601867676,4,1,2,0,3,5,E+,1,4,0,400,600,250.0,4,d04tm,62,train
208.04500579833984,4,1,2,0,3,5,E+,1,0,3,400,600,250.0,0,d04tm,63,train
608.0009937286377,4,1,2,0,3,5,E+,1,2,2,400,600,250.0,2,d04tm,64,train
47.93381690979004,4,1,2,0,3,5,E+,1,1,1,400,600,250.0,1,d04tm,65,train
128.0210018157959,4,1,2,0,3,5,E+,1,2,2,400,600,250.0,2,d04tm,66,train
64.0559196472168,4,1,2,0,3,5,E+,1,2,2,400,600,250.0,2,d04tm,67,train
432.0540428161621,4,1,2,0,3,5,E+,1,4,0,400,600,250.0,4,d04tm,68,train
304.01110649108887,4,1,2,0,3,5,E+,1,4,0,400,600,250.0,4,d04tm,69,train
608.004093170166,4,1,2,0,3,5,E+,1,2,2,400,600,250.0,2,d04tm,70,train
303.99203300476074,4,1,2,0,3,5,E+,1,3,4,400,600,250.0,3,d04tm,71,train
143.41998100280762,4,1,2,0,3,5,E+,1,3,4,400,600,250.0,3,d04tm,72,train
160.08687019348145,4,1,2,0,3,5,E+,1,0,3,400,600,250.0,0,d04tm,73,train
368.027925491333,4,1,2,0,3,5,E+,1,5,5,400,600,250.0,5,d04tm,74,train
288.0220413208008,4,1,2,0,3,5,E+,1,4,0,400,600,250.0,4,d04tm,75,train
128.0200481414795,4,1,2,0,3,5,E+,1,0,3,400,600,250.0,0,d04tm,76,train
848.0391502380371,4,1,2,0,3,5,E+,1,3,4,400,600,250.0,3,d04tm,77,train
144.0742015838623,4,1,2,0,3,5,E+,1,1,1,400,600,250.0,1,d04tm,78,train
192.10004806518555,4,1,2,0,3,5,E+,1,0,3,400,600,250.0,0,d04tm,79,train
416.03612899780273,4,1,2,0,3,5,E+,1,5,5,400,600,250.0,5,d04tm,80,train
1232.1078777313232,4,1,2,0,3,5,E+,1,3,4,400,600,250.0,3,d04tm,81,train
447.99304008483887,4,1,2,0,3,5,E+,1,5,5,400,600,250.0,5,d04tm,82,train
431.8830966949463,4,1,2,0,3,5,E+,1,3,4,400,600,250.0,3,d04tm,83,train
16.045093536376953,4,1,2,0,3,5,E+,1,3,4,400,600,250.0,3,d04tm,84,train
80.06811141967773,4,1,2,0,3,5,E+,1,0,3,400,600,250.0,0,d04tm,85,train
96.10390663146973,4,1,2,0,3,5,E+,1,1,1,400,600,250.0,1,d04tm,86,train
688.0760192871094,4,1,2,0,3,5,E+,1,5,5,400,600,250.0,5,d04tm,87,train
415.9860610961914,4,1,2,0,3,5,E+,1,1,1,400,600,250.0,1,d04tm,88,train
543.8928604125977,4,1,2,0,3,5,E+,0,3,4,400,600,250.0,4,d04tm,89,train
223.8609790802002,4,1,2,0,3,5,E+,1,0,3,400,600,250.0,0,d04tm,90,train
351.75395011901855,4,1,2,0,3,5,E+,1,5,5,400,600,250.0,5,d04tm,91,train
271.9120979309082,4,1,2,0,3,5,E+,1,1,1,400,600,250.0,1,d04tm,92,train
399.9779224395752,4,1,2,0,3,5,E+,1,5,5,400,600,250.0,5,d04tm,93,train
591.4690494537354,4,1,2,0,3,5,E+,1,5,5,400,600,250.0,5,d04tm,94,train
527.4450778961182,4,1,2,0,3,5,E+,1,3,4,400,600,250.0,3,d04tm,95,train
239.40205574035645,4,1,2,0,3,5,E+,1,5,5,400,600,250.0,5,d04tm,96,train
79.4830322265625,4,1,2,0,3,5,E+,1,3,4,400,600,250.0,3,d04tm,97,train
223.47497940063477,4,1,2,0,3,5,E+,1,4,0,400,600,250.0,4,d04tm,98,train
383.41307640075684,4,1,2,0,3,5,E+,1,2,2,400,600,250.0,2,d04tm,99,train
415.4369831085205,4,1,2,0,3,5,E+,1,4,0,400,600,250.0,4,d04tm,100,train
255.52701950073242,4,1,2,0,3,5,E+,1,1,1,400,600,250.0,1,d04tm,101,train
1231.2939167022705,4,1,2,0,3,5,E+,1,0,3,400,600,250.0,0,d04tm,102,train
255.45883178710938,4,1,2,0,3,5,E+,1,5,5,400,600,250.0,5,d04tm,103,train
911.2999439239502,4,1,2,0,3,5,E+,1,5,5,400,600,250.0,5,d04tm,104,train
191.50590896606445,4,1,2,0,3,5,E+,1,4,0,400,600,250.0,4,d04tm,105,train
255.3551197052002,4,1,2,0,3,5,E+,1,2,2,400,600,250.0,2,d04tm,106,train
111.52315139770508,4,1,2,0,3,5,E+,1,0,3,400,600,250.0,0,d04tm,107,train
335.4201316833496,4,1,2,0,3,5,E+,1,5,5,400,600,250.0,5,d04tm,108,train
255.35011291503906,4,1,2,0,3,5,E+,1,4,0,400,600,250.0,4,d04tm,109,train
223.46806526184082,4,1,2,0,3,5,E+,1,3,4,400,600,250.0,3,d04tm,110,train
287.47081756591797,4,1,2,0,3,5,E+,1,1,1,400,600,250.0,1,d04tm,111,train
63.529014587402344,4,1,2,0,3,5,E+,1,0,3,400,600,250.0,0,d04tm,112,train
463.3829593658447,4,1,2,0,3,5,E+,1,3,4,400,600,250.0,3,d04tm,113,train
95.51882743835449,4,1,2,0,3,5,E+,1,1,1,400,600,250.0,1,d04tm,114,train
111.47117614746094,4,1,2,0,3,5,E+,1,0,3,400,600,250.0,0,d04tm,115,train
367.4180507659912,4,1,2,0,3,5,E+,1,2,2,400,600,250.0,2,d04tm,116,train
383.4359645843506,4,1,2,0,3,5,E+,1,2,2,400,600,250.0,2,d04tm,117,train
111.48405075073242,4,1,2,0,3,5,E+,1,0,3,400,600,250.0,0,d04tm,118,train
751.3630390167236,4,1,2,0,3,5,E+,1,4,0,400,600,250.0,4,d04tm,119,train
239.4859790802002,4,1,2,0,3,5,E+,1,0,3,400,600,250.0,0,d04tm,120,train
367.4631118774414,4,1,2,0,3,5,E+,1,5,5,400,600,250.0,5,d04tm,121,train
79.46610450744629,4,1,2,0,3,5,E+,1,0,3,400,600,250.0,0,d04tm,122,train
31.49700164794922,4,1,2,0,3,5,E+,1,1,1,400,600,250.0,1,d04tm,123,train
223.4361171722412,4,1,2,0,3,5,E+,1,5,5,400,600,250.0,5,d04tm,124,train
191.4839744567871,4,1,2,0,3,5,E+,1,0,3,400,600,250.0,0,d04tm,125,train
575.4899978637695,4,1,2,0,3,5,E+,1,3,4,400,600,250.0,3,d04tm,126,train
143.41497421264648,4,1,2,0,3,5,E+,1,1,1,400,600,250.0,1,d04tm,127,train
127.4728775024414,4,1,2,0,3,5,E+,1,1,1,400,600,250.0,1,d04tm,128,train
239.50910568237305,4,1,2,0,3,5,E+,1,1,1,400,600,250.0,1,d04tm,129,train
319.42200660705566,4,1,2,0,3,5,E+,1,5,5,400,600,250.0,5,d04tm,130,train
623.2748031616211,4,1,2,0,3,5,E+,1,4,0,400,600,250.0,4,d04tm,131,train
303.48896980285645,4,1,2,0,3,5,E+,1,2,2,400,600,250.0,2,d04tm,132,train
735.4660034179688,4,1,2,0,3,5,E+,0,3,4,400,600,250.0,2,d04tm,133,train
351.40109062194824,4,1,2,0,3,5,E+,1,2,2,400,600,250.0,2,d04tm,134,train
495.44501304626465,4,1,2,0,3,5,E+,1,5,5,400,600,250.0,5,d04tm,135,train
335.3259563446045,4,1,2,0,3,5,E+,1,1,1,400,600,250.0,1,d04tm,136,train
47.48892784118652,4,1,2,0,3,5,E+,1,0,3,400,600,250.0,0,d04tm,137,train
783.4551334381104,4,1,2,0,3,5,E+,0,4,0,400,600,250.0,3,d04tm,138,train
95.46899795532227,4,1,2,0,3,5,E+,1,4,0,400,600,250.0,4,d04tm,139,train
383.2888603210449,4,1,2,0,3,5,E+,1,1,1,400,600,250.0,1,d04tm,140,train
207.51285552978516,4,1,2,0,3,5,E+,1,0,3,400,600,250.0,0,d04tm,141,train
127.5320053100586,4,1,2,0,3,5,E+,1,1,1,400,600,250.0,1,d04tm,142,train
47.45984077453613,4,1,2,0,3,5,E+,1,1,1,400,600,250.0,1,d04tm,143,train
367.434024810791,4,1,2,0,3,5,E+,1,3,4,400,600,250.0,3,d04tm,144,train
367.3849105834961,4,1,2,0,3,5,E+,1,2,2,400,600,250.0,2,d04tm,145,train
79.43081855773926,4,1,2,0,3,5,E+,1,1,1,400,600,250.0,1,d04tm,146,train
447.1569061279297,4,1,2,0,3,5,E+,1,4,0,400,600,250.0,4,d04tm,147,train
143.51511001586914,4,1,2,0,3,5,E+,1,4,0,400,600,250.0,4,d04tm,148,train
543.2469844818115,4,1,2,0,3,5,E+,1,4,0,400,600,250.0,4,d04tm,149,train
463.4439945220947,4,1,2,0,3,5,E+,1,3,4,400,600,250.0,3,d04tm,150,train
207.47113227844238,4,1,2,0,3,5,E+,1,4,0,400,600,250.0,4,d04tm,151,train
367.4311637878418,4,1,2,0,3,5,E+,1,1,1,400,600,250.0,1,d04tm,152,train
735.3711128234863,4,1,2,0,3,5,E+,1,5,5,400,600,250.0,5,d04tm,153,train
335.4659080505371,4,1,2,0,3,5,E+,1,1,1,400,600,250.0,1,d04tm,154,train
255.35297393798828,4,1,2,0,3,5,E+,1,1,1,400,600,250.0,1,d04tm,155,train
319.3800449371338,4,1,2,0,3,5,E+,1,5,5,400,600,250.0,5,d04tm,156,train
463.37199211120605,4,1,2,0,3,5,E+,1,2,2,400,600,250.0,2,d04tm,157,train
175.49800872802734,4,1,2,0,3,5,E+,1,0,3,400,600,250.0,0,d04tm,158,train
415.44318199157715,4,1,2,0,3,5,E+,1,3,4,400,600,250.0,3,d04tm,159,train
95.5500602722168,4,1,2,0,3,5,E+,1,1,1,400,600,250.0,1,d04tm,160,train
79.4839859008789,4,1,2,0,3,5,E+,1,0,3,400,600,250.0,0,d04tm,161,train
31.390905380249023,4,1,2,0,3,5,E+,1,1,1,400,600,250.0,1,d04tm,162,train
223.41299057006836,4,1,2,0,3,5,E+,1,5,5,400,600,250.0,5,d04tm,163,train
95.54100036621094,4,1,2,0,3,5,E+,1,5,5,400,600,250.0,5,d04tm,164,train
79.53000068664551,4,1,2,0,3,5,E+,1,3,4,400,600,250.0,3,d04tm,165,train
255.4159164428711,4,1,2,0,3,5,E+,1,2,2,400,600,250.0,2,d04tm,166,train
95.51811218261719,4,1,2,0,3,5,E+,1,0,3,400,600,250.0,0,d04tm,167,train
175.3690242767334,4,1,2,0,3,5,E+,1,2,2,400,600,250.0,2,d04tm,168,train
655.4570198059082,4,1,2,0,3,5,E+,1,4,0,400,600,250.0,4,d04tm,169,train
111.52911186218262,4,1,2,0,3,5,E+,1,3,4,400,600,250.0,3,d04tm,170,train
143.51296424865723,4,1,2,0,3,5,E+,1,0,3,400,600,250.0,0,d04tm,171,train
30.71308135986328,4,1,2,0,3,5,E+,1,0,3,400,600,250.0,0,d04tm,172,train
399.5227813720703,4,1,2,0,3,5,E+,1,3,4,400,600,250.0,3,d04tm,173,train
127.52294540405273,4,1,2,0,3,5,E+,1,1,1,400,600,250.0,1,d04tm,174,train
655.4617881774902,4,1,2,0,3,5,E+,1,2,2,400,600,250.0,2,d04tm,175,train
143.53609085083008,4,1,2,0,3,5,E+,1,0,3,400,600,250.0,0,d04tm,176,train
159.5480442047119,4,1,2,0,3,5,E+,1,1,1,400,600,250.0,1,d04tm,177,train
31.527996063232422,4,1,2,0,3,5,E+,1,2,2,400,600,250.0,2,d04tm,178,train
559.3888759613037,4,1,2,0,3,5,E+,1,4,0,400,600,250.0,4,d04tm,179,train
111.51409149169922,4,1,2,0,3,5,E+,1,4,0,400,600,250.0,4,d04tm,180,train
79.45990562438965,4,1,2,0,3,5,E+,1,3,4,400,600,250.0,3,d04tm,181,train
95.2599048614502,4,1,2,0,3,5,E+,1,0,3,400,600,250.0,0,d04tm,182,train
79.39314842224121,4,1,2,0,3,5,E+,1,1,1,400,600,250.0,1,d04tm,183,train
159.46578979492188,4,1,2,0,3,5,E+,1,1,1,400,600,250.0,1,d04tm,184,train
127.48193740844727,4,1,2,0,3,5,E+,1,0,3,400,600,250.0,0,d04tm,185,train
383.3630084991455,4,1,2,0,3,5,E+,1,5,5,400,600,250.0,5,d04tm,186,train
479.4349670410156,4,1,2,0,3,5,E+,1,3,4,400,600,250.0,3,d04tm,187,train
79.47993278503418,4,1,2,0,3,5,E+,1,1,1,400,600,250.0,1,d04tm,188,train
223.47187995910645,4,1,2,0,3,5,E+,1,5,5,400,600,250.0,5,d04tm,189,train
127.45904922485352,4,1,2,0,3,5,E+,1,0,3,400,600,250.0,0,d04tm,190,train
287.43720054626465,4,1,2,0,3,5,E+,0,2,2,400,600,250.0,1,d04tm,191,train
319.4000720977783,4,1,2,0,3,5,E+,1,5,5,400,600,250.0,5,d04tm,192,train
207.1540355682373,4,1,2,0,3,5,E+,1,5,5,400,600,250.0,5,d04tm,193,train
191.4379596710205,4,1,2,0,3,5,E+,1,4,0,400,600,250.0,4,d04tm,194,train
159.55686569213867,4,1,2,0,3,5,E+,1,0,3,400,600,250.0,0,d04tm,195,train
287.4259948730469,4,1,2,0,3,5,E+,1,2,2,400,600,250.0,2,d04tm,196,train
367.4428462982178,4,1,2,0,3,5,E+,1,5,5,400,600,250.0,5,d04tm,197,train
319.4129467010498,4,1,2,0,3,5,E+,1,4,0,400,600,250.0,4,d04tm,198,train
447.4799633026123,4,1,2,0,3,5,E+,1,2,2,400,600,250.0,2,d04tm,199,train
1887.4890804290771,4,1,2,0,3,5,E+,1,4,0,400,600,250.0,4,d04tm,200,train
255.39112091064453,4,1,2,0,3,5,E+,1,0,3,400,600,250.0,0,d04tm,201,train
223.44207763671875,4,1,2,0,3,5,E+,1,0,3,400,600,250.0,0,d04tm,202,train
0.050067901611328125,4,1,2,0,3,5,E+,1,0,3,400,600,250.0,0,d04tm,203,train
255.26714324951172,4,1,2,0,3,5,E+,1,2,2,400,600,250.0,2,d04tm,204,train
95.41606903076172,4,1,2,0,3,5,E+,1,0,3,400,600,250.0,0,d04tm,205,train
655.2038192749023,4,1,2,0,3,5,E+,1,3,4,400,600,250.0,3,d04tm,206,train
143.53704452514648,4,1,2,0,3,5,E+,1,0,3,400,600,250.0,0,d04tm,207,train
31.45289421081543,4,1,2,0,3,5,E+,1,0,3,400,600,250.0,0,d04tm,208,train
47.45006561279297,4,1,2,0,3,5,E+,1,0,3,400,600,250.0,0,d04tm,209,train
527.2371768951416,4,1,2,0,3,5,E+,1,4,0,400,600,250.0,4,d04tm,210,train
0.053882598876953125,4,1,2,0,3,5,E+,1,4,0,400,600,250.0,4,d04tm,211,train
31.3260555267334,4,1,2,0,3,5,E+,1,4,0,400,600,250.0,4,d04tm,212,train
271.4378833770752,4,1,2,0,3,5,E+,1,2,2,400,600,250.0,2,d04tm,213,train
319.46301460266113,4,1,2,0,3,5,E+,1,5,5,400,600,250.0,5,d04tm,214,train
175.5239963531494,4,1,2,0,3,5,E+,1,2,2,400,600,250.0,2,d04tm,215,train
127.54201889038086,4,1,2,0,3,5,E+,1,0,3,400,600,250.0,0,d04tm,216,train
95.51095962524414,4,1,2,0,3,5,E+,1,5,5,400,600,250.0,5,d04tm,217,train
95.52597999572754,4,1,2,0,3,5,E+,1,4,0,400,600,250.0,4,d04tm,218,train
223.39200973510742,4,1,2,0,3,5,E+,1,5,5,400,600,250.0,5,d04tm,219,train
175.4629611968994,4,1,2,0,3,5,E+,0,1,1,400,600,250.0,2,d04tm,220,train
63.452959060668945,4,1,2,0,3,5,E+,1,0,3,400,600,250.0,0,d04tm,221,train
383.4390640258789,4,1,2,0,3,5,E+,1,3,4,400,600,250.0,3,d04tm,222,train
79.2849063873291,4,1,2,0,3,5,E+,1,1,1,400,600,250.0,1,d04tm,223,train
415.4369831085205,4,1,2,0,3,5,E+,1,5,5,400,600,250.0,5,d04tm,224,train
111.50789260864258,4,1,2,0,3,5,E+,1,4,0,400,600,250.0,4,d04tm,225,train
239.41397666931152,4,1,2,0,3,5,E+,1,4,0,400,600,250.0,4,d04tm,226,train
255.3861141204834,4,1,2,0,3,5,E+,1,5,5,400,600,250.0,5,d04tm,227,train
319.4150924682617,4,1,2,0,3,5,E+,1,5,5,400,600,250.0,5,d04tm,228,train
303.419828414917,4,1,2,0,3,5,E+,1,3,4,400,600,250.0,3,d04tm,229,train
271.4259624481201,4,1,2,0,3,5,E+,1,3,4,400,600,250.0,3,d04tm,230,train
383.4547996520996,4,1,2,0,3,5,E+,1,4,0,400,600,250.0,4,d04tm,231,train
335.44301986694336,4,1,2,0,3,5,E+,1,2,2,400,600,250.0,2,d04tm,232,train
143.4481143951416,4,1,2,0,3,5,E+,1,0,3,400,600,250.0,0,d04tm,233,train
719.4788455963135,4,1,2,0,3,5,E+,1,4,0,400,600,250.0,4,d04tm,234,train
255.14698028564453,4,1,2,0,3,5,E+,1,1,1,400,600,250.0,1,d04tm,235,train
303.4780025482178,4,1,2,0,3,5,E+,1,4,0,400,600,250.0,4,d04tm,236,train
175.1558780670166,4,1,2,0,3,5,E+,1,4,0,400,600,250.0,4,d04tm,237,train
479.4809818267822,4,1,2,0,3,5,E+,1,3,4,400,600,250.0,3,d04tm,238,train
143.449068069458,4,1,2,0,3,5,E+,1,0,3,400,600,250.0,0,d04tm,239,train
447.43800163269043,4,1,2,0,3,5,E+,1,2,2,400,600,250.0,2,d04tm,240,train
351.38607025146484,4,1,2,0,3,5,E+,1,3,4,400,600,250.0,3,d04tm,241,train
127.58898735046387,4,1,2,0,3,5,E+,0,2,2,400,600,250.0,1,d04tm,242,train
543.4670448303223,4,1,2,0,3,5,E+,1,4,0,400,600,250.0,4,d04tm,243,train
239.48192596435547,4,1,2,0,3,5,E+,1,0,3,400,600,250.0,0,d04tm,244,train
767.5340175628662,4,1,2,0,3,5,E+,1,5,5,400,600,250.0,5,d04tm,245,train
111.54007911682129,4,1,2,0,3,5,E+,1,5,5,400,600,250.0,5,d04tm,246,train
383.36706161499023,4,1,2,0,3,5,E+,1,4,0,400,600,250.0,4,d04tm,247,train
207.49616622924805,4,1,2,0,3,5,E+,1,0,3,400,600,250.0,0,d04tm,248,train
383.47816467285156,4,1,2,0,3,5,E+,1,2,2,400,600,250.0,2,d04tm,249,train
8864.583969116211,4,1,2,0,3,5,E+,1,5,5,0,1000,250.0,5,d04tm,250,test
2016.6220664978027,4,1,2,0,3,5,E+,1,1,1,0,1000,250.0,1,d04tm,251,test
1456.7420482635498,4,1,2,0,3,5,E+,1,3,4,0,1000,250.0,3,d04tm,252,test
800.7588386535645,4,1,2,0,3,5,E+,1,3,4,0,1000,250.0,3,d04tm,253,test
1024.735927581787,4,1,2,0,3,5,E+,1,5,5,0,1000,250.0,5,d04tm,254,test
832.7040672302246,4,1,2,0,3,5,E+,1,5,5,0,1000,250.0,5,d04tm,255,test
1136.687994003296,4,1,2,0,3,5,E+,1,0,3,0,1000,250.0,0,d04tm,256,test
1280.7691097259521,4,1,2,0,3,5,E+,1,2,2,0,1000,250.0,2,d04tm,257,test
1248.6720085144043,4,1,2,0,3,5,E+,1,4,0,0,1000,250.0,4,d04tm,258,test
704.4448852539062,4,1,2,0,3,5,E+,0,2,2,0,1000,250.0,1,d04tm,259,test
768.6581611633301,4,1,2,0,3,5,E+,1,5,5,0,1000,250.0,5,d04tm,260,test
1200.7739543914795,4,1,2,0,3,5,E+,1,2,2,0,1000,250.0,2,d04tm,261,test
640.6939029693604,4,1,2,0,3,5,E+,1,5,5,0,1000,250.0,5,d04tm,262,test
1360.7120513916016,4,1,2,0,3,5,E+,1,1,1,0,1000,250.0,1,d04tm,263,test
720.7419872283936,4,1,2,0,3,5,E+,1,4,0,0,1000,250.0,4,d04tm,264,test
848.7691879272461,4,1,2,0,3,5,E+,1,3,4,0,1000,250.0,3,d04tm,265,test
992.7558898925781,4,1,2,0,3,5,E+,1,0,3,0,1000,250.0,0,d04tm,266,test
848.6950397491455,4,1,2,0,3,5,E+,1,4,0,0,1000,250.0,4,d04tm,267,test
784.7530841827393,4,1,2,0,3,5,E+,0,2,2,0,1000,250.0,1,d04tm,268,test
1648.5850811004639,4,1,2,0,3,5,E+,1,2,2,0,1000,250.0,2,d04tm,269,test
848.707914352417,4,1,2,0,3,5,E+,1,1,1,0,1000,250.0,1,d04tm,270,test
784.7778797149658,4,1,2,0,3,5,E+,1,4,0,0,1000,250.0,4,d04tm,271,test
624.7599124908447,4,1,2,0,3,5,E+,1,0,3,0,1000,250.0,0,d04tm,272,test
592.7879810333252,4,1,2,0,3,5,E+,1,0,3,0,1000,250.0,0,d04tm,273,test
608.7498664855957,4,1,2,0,3,5,E+,1,0,3,0,1000,250.0,0,d04tm,274,test
720.7510471343994,4,1,2,0,3,5,E+,1,5,5,0,1000,250.0,5,d04tm,275,test
1152.7750492095947,4,1,2,0,3,5,E+,0,2,2,0,1000,250.0,1,d04tm,276,test
3376.7127990722656,4,1,2,0,3,5,E+,1,4,0,0,1000,250.0,4,d04tm,277,test
1664.7179126739502,4,1,2,0,3,5,E+,1,2,2,0,1000,250.0,2,d04tm,278,test
768.7768936157227,4,1,2,0,3,5,E+,1,5,5,0,1000,250.0,5,d04tm,279,test
1392.5070762634277,4,1,2,0,3,5,E+,1,2,2,0,1000,250.0,2,d04tm,280,test
672.720193862915,4,1,2,0,3,5,E+,1,0,3,0,1000,250.0,0,d04tm,281,test
1168.7901020050049,4,1,2,0,3,5,E+,1,1,1,0,1000,250.0,1,d04tm,282,test
415.93098640441895,4,1,2,0,3,5,E+,1,1,1,0,1000,250.0,1,d04tm,283,test
592.6868915557861,4,1,2,0,3,5,E+,1,2,2,0,1000,250.0,2,d04tm,284,test
656.6720008850098,4,1,2,0,3,5,E+,1,2,2,0,1000,250.0,2,d04tm,285,test
912.808895111084,4,1,2,0,3,5,E+,1,4,0,0,1000,250.0,4,d04tm,286,test
512.753963470459,4,1,2,0,3,5,E+,1,4,0,0,1000,250.0,4,d04tm,287,test
1023.9191055297852,4,1,2,0,3,5,E+,1,2,2,0,1000,250.0,2,d04tm,288,test
432.69801139831543,4,1,2,0,3,5,E+,1,2,2,0,1000,250.0,2,d04tm,289,test
3120.8109855651855,4,1,2,0,3,5,E+,1,5,5,0,1000,250.0,5,d04tm,290,test
880.728006362915,4,1,2,0,3,5,E+,1,2,2,0,1000,250.0,2,d04tm,291,test
1088.7248516082764,4,1,2,0,3,5,E+,1,3,4,0,1000,250.0,3,d04tm,292,test
592.7491188049316,4,1,2,0,3,5,E+,1,5,5,0,1000,250.0,5,d04tm,293,test
752.748966217041,4,1,2,0,3,5,E+,1,2,2,0,1000,250.0,2,d04tm,294,test
656.7440032958984,4,1,2,0,3,5,E+,1,0,3,0,1000,250.0,0,d04tm,295,test
608.7260246276855,4,1,2,0,3,5,E+,1,2,2,0,1000,250.0,2,d04tm,296,test
448.72188568115234,4,1,2,0,3,5,E+,1,2,2,0,1000,250.0,2,d04tm,297,test
704.7441005706787,4,1,2,0,3,5,E+,0,3,4,0,1000,250.0,4,d04tm,298,test
816.6708946228027,4,1,2,0,3,5,E+,1,2,2,0,1000,250.0,2,d04tm,299,test
864.7708892822266,4,1,2,0,3,5,E+,1,5,5,0,1000,250.0,5,d04tm,300,test
848.7918376922607,4,1,2,0,3,5,E+,1,3,4,0,1000,250.0,3,d04tm,301,test
720.6990718841553,4,1,2,0,3,5,E+,1,5,5,0,1000,250.0,5,d04tm,302,test
1008.781909942627,4,1,2,0,3,5,E+,1,1,1,0,1000,250.0,1,d04tm,303,test
656.6579341888428,4,1,2,0,3,5,E+,1,0,3,0,1000,250.0,0,d04tm,304,test
624.5479583740234,4,1,2,0,3,5,E+,1,2,2,0,1000,250.0,2,d04tm,305,test
480.7620048522949,4,1,2,0,3,5,E+,1,2,2,0,1000,250.0,2,d04tm,306,test
544.6939468383789,4,1,2,0,3,5,E+,1,1,1,0,1000,250.0,1,d04tm,307,test
512.7239227294922,4,1,2,0,3,5,E+,1,2,2,0,1000,250.0,2,d04tm,308,test
640.6729221343994,4,1,2,0,3,5,E+,1,2,2,0,1000,250.0,2,d04tm,309,test
496.71006202697754,4,1,2,0,3,5,E+,1,1,1,0,1000,250.0,1,d04tm,310,test
608.6409091949463,4,1,2,0,3,5,E+,1,0,3,0,1000,250.0,0,d04tm,311,test
816.7800903320312,4,1,2,0,3,5,E+,1,2,2,0,1000,250.0,2,d04tm,312,test
768.7411308288574,4,1,2,0,3,5,E+,1,4,0,0,1000,250.0,4,d04tm,313,test
656.764030456543,4,1,2,0,3,5,E+,1,3,4,0,1000,250.0,3,d04tm,314,test
1024.8000621795654,4,1,2,0,3,5,E+,1,1,1,0,1000,250.0,1,d04tm,315,test
512.7480030059814,4,1,2,0,3,5,E+,1,1,1,0,1000,250.0,1,d04tm,316,test
576.7619609832764,4,1,2,0,3,5,E+,1,0,3,0,1000,250.0,0,d04tm,317,test
784.7800254821777,4,1,2,0,3,5,E+,1,2,2,0,1000,250.0,2,d04tm,318,test
544.7540283203125,4,1,2,0,3,5,E+,1,5,5,0,1000,250.0,5,d04tm,319,test
752.7689933776855,4,1,2,0,3,5,E+,0,1,1,0,1000,250.0,2,d04tm,320,test
784.574031829834,4,1,2,0,3,5,E+,1,3,4,0,1000,250.0,3,d04tm,321,test
1232.630968093872,4,1,2,0,3,5,E+,1,5,5,0,1000,250.0,5,d04tm,322,test
1104.7451496124268,4,1,2,0,3,5,E+,0,1,1,0,1000,250.0,2,d04tm,323,test
624.9980926513672,4,1,2,0,3,5,E+,1,1,1,0,1000,250.0,1,d04tm,324,test
464.69688415527344,4,1,2,0,3,5,E+,0,2,2,0,1000,250.0,1,d04tm,325,test
784.7440242767334,4,1,2,0,3,5,E+,1,2,2,0,1000,250.0,2,d04tm,326,test
816.7688846588135,4,1,2,0,3,5,E+,1,3,4,0,1000,250.0,3,d04tm,327,test
1568.7410831451416,4,1,2,0,3,5,E+,1,1,1,0,1000,250.0,1,d04tm,328,test
736.5970611572266,4,1,2,0,3,5,E+,1,3,4,0,1000,250.0,3,d04tm,329,test
688.7729167938232,4,1,2,0,3,5,E+,1,5,5,0,1000,250.0,5,d04tm,330,test
656.9740772247314,4,1,2,0,3,5,E+,1,5,5,0,1000,250.0,5,d04tm,331,test
656.7912101745605,4,1,2,0,3,5,E+,1,4,0,0,1000,250.0,4,d04tm,332,test
1056.7901134490967,4,1,2,0,3,5,E+,1,2,2,0,1000,250.0,2,d04tm,333,test
736.6678714752197,4,1,2,0,3,5,E+,1,2,2,0,1000,250.0,2,d04tm,334,test
688.5700225830078,4,1,2,0,3,5,E+,1,3,4,0,1000,250.0,3,d04tm,335,test
800.5859851837158,4,1,2,0,3,5,E+,1,1,1,0,1000,250.0,1,d04tm,336,test
528.7609100341797,4,1,2,0,3,5,E+,1,1,1,0,1000,250.0,1,d04tm,337,test
656.731128692627,4,1,2,0,3,5,E+,1,3,4,0,1000,250.0,3,d04tm,338,test
624.7060298919678,4,1,2,0,3,5,E+,1,4,0,0,1000,250.0,4,d04tm,339,test
704.7560214996338,4,1,2,0,3,5,E+,1,3,4,0,1000,250.0,3,d04tm,340,test
608.7219715118408,4,1,2,0,3,5,E+,1,0,3,0,1000,250.0,0,d04tm,341,test
1488.6560440063477,4,1,2,0,3,5,E+,1,1,1,0,1000,250.0,1,d04tm,342,test
704.7901153564453,4,1,2,0,3,5,E+,1,3,4,0,1000,250.0,3,d04tm,343,test
880.7837963104248,4,1,2,0,3,5,E+,1,4,0,0,1000,250.0,4,d04tm,344,test
1248.8219738006592,4,1,2,0,3,5,E+,1,4,0,0,1000,250.0,4,d04tm,345,test
1792.7439212799072,4,1,2,0,3,5,E+,1,2,2,0,1000,250.0,2,d04tm,346,test
832.8020572662354,4,1,2,0,3,5,E+,1,5,5,0,1000,250.0,5,d04tm,347,test
608.5250377655029,4,1,2,0,3,5,E+,1,0,3,0,1000,250.0,0,d04tm,348,test
608.7219715118408,4,1,2,0,3,5,E+,1,3,4,0,1000,250.0,3,d04tm,349,test
688.5190010070801,4,1,2,0,3,5,E+,1,3,4,0,1000,250.0,3,d04tm,350,test
976.7529964447021,4,1,2,0,3,5,E+,1,2,2,0,1000,250.0,2,d04tm,351,test
560.7690811157227,4,1,2,0,3,5,E+,1,1,1,0,1000,250.0,1,d04tm,352,test
928.7371635437012,4,1,2,0,3,5,E+,1,2,2,0,1000,250.0,2,d04tm,353,test
832.7701091766357,4,1,2,0,3,5,E+,0,4,0,0,1000,250.0,5,d04tm,354,test
656.6431522369385,4,1,2,0,3,5,E+,1,5,5,0,1000,250.0,5,d04tm,355,test
1248.6469745635986,4,1,2,0,3,5,E+,0,1,1,0,1000,250.0,2,d04tm,356,test
769.1609859466553,4,1,2,0,3,5,E+,1,5,5,0,1000,250.0,5,d04tm,357,test
705.2428722381592,4,1,2,0,3,5,E+,1,3,4,0,1000,250.0,3,d04tm,358,test
705.1310539245605,4,1,2,0,3,5,E+,0,4,0,0,1000,250.0,5,d04tm,359,test
641.167163848877,4,1,2,0,3,5,E+,1,0,3,0,1000,250.0,0,d04tm,360,test
865.1788234710693,4,1,2,0,3,5,E+,1,2,2,0,1000,250.0,2,d04tm,361,test
625.2400875091553,4,1,2,0,3,5,E+,1,3,4,0,1000,250.0,3,d04tm,362,test
561.168909072876,4,1,2,0,3,5,E+,1,0,3,0,1000,250.0,0,d04tm,363,test
625.0619888305664,4,1,2,0,3,5,E+,1,5,5,0,1000,250.0,5,d04tm,364,test
1264.970064163208,4,1,2,0,3,5,E+,1,2,2,0,1000,250.0,2,d04tm,365,test
689.1601085662842,4,1,2,0,3,5,E+,1,5,5,0,1000,250.0,5,d04tm,366,test
849.16090965271,4,1,2,0,3,5,E+,1,1,1,0,1000,250.0,1,d04tm,367,test
865.1759624481201,4,1,2,0,3,5,E+,1,4,0,0,1000,250.0,4,d04tm,368,test
625.1659393310547,4,1,2,0,3,5,E+,1,3,4,0,1000,250.0,3,d04tm,369,test
849.2448329925537,4,1,2,0,3,5,E+,0,4,0,0,1000,250.0,5,d04tm,370,test
625.2079010009766,4,1,2,0,3,5,E+,1,5,5,0,1000,250.0,5,d04tm,371,test
481.25314712524414,4,1,2,0,3,5,E+,1,5,5,0,1000,250.0,5,d04tm,372,test
609.2038154602051,4,1,2,0,3,5,E+,1,5,5,0,1000,250.0,5,d04tm,373,test
481.22596740722656,4,1,2,0,3,5,E+,1,5,5,0,1000,250.0,5,d04tm,374,test
753.1781196594238,4,1,2,0,3,5,E+,1,0,3,0,1000,250.0,0,d04tm,375,test
1024.6191024780273,4,1,2,0,3,5,E+,1,2,2,0,1000,250.0,2,d04tm,376,test
464.72787857055664,4,1,2,0,3,5,E+,1,2,2,0,1000,250.0,2,d04tm,377,test
432.7359199523926,4,1,2,0,3,5,E+,1,2,2,0,1000,250.0,2,d04tm,378,test
672.7519035339355,4,1,2,0,3,5,E+,1,0,3,0,1000,250.0,0,d04tm,379,test
976.7959117889404,4,1,2,0,3,5,E+,1,5,5,0,1000,250.0,5,d04tm,380,test
1040.8148765563965,4,1,2,0,3,5,E+,0,1,1,0,1000,250.0,2,d04tm,381,test
1072.8528499603271,4,1,2,0,3,5,E+,1,2,2,0,1000,250.0,2,d04tm,382,test
624.9480247497559,4,1,2,0,3,5,E+,1,3,4,0,1000,250.0,3,d04tm,383,test
1146.3699340820312,4,1,2,0,3,5,E+,1,1,1,0,1000,250.0,1,d04tm,384,test
752.9881000518799,4,1,2,0,3,5,E+,1,2,2,0,1000,250.0,2,d04tm,385,test
560.9481334686279,4,1,2,0,3,5,E+,1,3,4,0,1000,250.0,3,d04tm,386,test
1392.9409980773926,4,1,2,0,3,5,E+,1,4,0,0,1000,250.0,4,d04tm,387,test
608.9138984680176,4,1,2,0,3,5,E+,1,0,3,0,1000,250.0,0,d04tm,388,test
736.8478775024414,4,1,2,0,3,5,E+,1,4,0,0,1000,250.0,4,d04tm,389,test
624.9220371246338,4,1,2,0,3,5,E+,1,0,3,0,1000,250.0,0,d04tm,390,test
1296.9729900360107,4,1,2,0,3,5,E+,1,1,1,0,1000,250.0,1,d04tm,391,test
640.5441761016846,4,1,2,0,3,5,E+,1,1,1,0,1000,250.0,1,d04tm,392,test
1072.7601051330566,4,1,2,0,3,5,E+,1,2,2,0,1000,250.0,2,d04tm,393,test
704.7629356384277,4,1,2,0,3,5,E+,1,0,3,0,1000,250.0,0,d04tm,394,test
752.7730464935303,4,1,2,0,3,5,E+,1,4,0,0,1000,250.0,4,d04tm,395,test
672.7731227874756,4,1,2,0,3,5,E+,1,0,3,0,1000,250.0,0,d04tm,396,test
1584.7370624542236,4,1,2,0,3,5,E+,1,2,2,0,1000,250.0,2,d04tm,397,test
912.7969741821289,4,1,2,0,3,5,E+,1,4,0,0,1000,250.0,4,d04tm,398,test
832.772970199585,4,1,2,0,3,5,E+,1,3,4,0,1000,250.0,3,d04tm,399,test
1648.7469673156738,4,1,2,0,3,5,E+,1,1,1,0,1000,250.0,1,d04tm,400,test
832.6761722564697,4,1,2,0,3,5,E+,1,4,0,0,1000,250.0,4,d04tm,401,test
560.736894607544,4,1,2,0,3,5,E+,1,4,0,0,1000,250.0,4,d04tm,402,test
608.3838939666748,4,1,2,0,3,5,E+,1,3,4,0,1000,250.0,3,d04tm,403,test
624.7110366821289,4,1,2,0,3,5,E+,1,4,0,0,1000,250.0,4,d04tm,404,test
800.7519245147705,4,1,2,0,3,5,E+,1,5,5,0,1000,250.0,5,d04tm,405,test
784.7490310668945,4,1,2,0,3,5,E+,1,2,2,0,1000,250.0,2,d04tm,406,test
752.7549266815186,4,1,2,0,3,5,E+,1,4,0,0,1000,250.0,4,d04tm,407,test
1376.6989707946777,4,1,2,0,3,5,E+,1,2,2,0,1000,250.0,2,d04tm,408,test
672.713041305542,4,1,2,0,3,5,E+,1,4,0,0,1000,250.0,4,d04tm,409,test
736.7489337921143,4,1,2,0,3,5,E+,1,2,2,0,1000,250.0,2,d04tm,410,test
704.7970294952393,4,1,2,0,3,5,E+,1,4,0,0,1000,250.0,4,d04tm,411,test
528.749942779541,4,1,2,0,3,5,E+,1,5,5,0,1000,250.0,5,d04tm,412,test
640.765905380249,4,1,2,0,3,5,E+,0,2,2,0,1000,250.0,1,d04tm,413,test
880.7921409606934,4,1,2,0,3,5,E+,0,5,5,0,1000,250.0,4,d04tm,414,test
704.4739723205566,4,1,2,0,3,5,E+,1,0,3,0,1000,250.0,0,d04tm,415,test
1152.8029441833496,4,1,2,0,3,5,E+,1,5,5,0,1000,250.0,5,d04tm,416,test
576.6777992248535,4,1,2,0,3,5,E+,1,5,5,0,1000,250.0,5,d04tm,417,test
1232.7768802642822,4,1,2,0,3,5,E+,1,2,2,0,1000,250.0,2,d04tm,418,test
752.6559829711914,4,1,2,0,3,5,E+,1,2,2,0,1000,250.0,2,d04tm,419,test
672.7490425109863,4,1,2,0,3,5,E+,1,4,0,0,1000,250.0,4,d04tm,420,test
848.7241268157959,4,1,2,0,3,5,E+,1,5,5,0,1000,250.0,5,d04tm,421,test
608.7360382080078,4,1,2,0,3,5,E+,1,0,3,0,1000,250.0,0,d04tm,422,test
832.6070308685303,4,1,2,0,3,5,E+,1,5,5,0,1000,250.0,5,d04tm,423,test
816.7500495910645,4,1,2,0,3,5,E+,1,4,0,0,1000,250.0,4,d04tm,424,test
704.7810554504395,4,1,2,0,3,5,E+,1,3,4,0,1000,250.0,3,d04tm,425,test
976.7968654632568,4,1,2,0,3,5,E+,1,2,2,0,1000,250.0,2,d04tm,426,test
640.5630111694336,4,1,2,0,3,5,E+,1,2,2,0,1000,250.0,2,d04tm,427,test
832.7939510345459,4,1,2,0,3,5,E+,0,5,5,0,1000,250.0,4,d04tm,428,test
464.59007263183594,4,1,2,0,3,5,E+,1,5,5,0,1000,250.0,5,d04tm,429,test
592.7450656890869,4,1,2,0,3,5,E+,1,0,3,0,1000,250.0,0,d04tm,430,test
720.5638885498047,4,1,2,0,3,5,E+,1,3,4,0,1000,250.0,3,d04tm,431,test
832.7419757843018,4,1,2,0,3,5,E+,1,2,2,0,1000,250.0,2,d04tm,432,test
992.7661418914795,4,1,2,0,3,5,E+,1,4,0,0,1000,250.0,4,d04tm,433,test
704.73313331604,4,1,2,0,3,5,E+,1,2,2,0,1000,250.0,2,d04tm,434,test
912.757158279419,4,1,2,0,3,5,E+,1,5,5,0,1000,250.0,5,d04tm,435,test
848.7892150878906,4,1,2,0,3,5,E+,1,1,1,0,1000,250.0,1,d04tm,436,test
832.7908515930176,4,1,2,0,3,5,E+,1,4,0,0,1000,250.0,4,d04tm,437,test
624.6960163116455,4,1,2,0,3,5,E+,1,4,0,0,1000,250.0,4,d04tm,438,test
640.7229900360107,4,1,2,0,3,5,E+,1,0,3,0,1000,250.0,0,d04tm,439,test
704.6940326690674,4,1,2,0,3,5,E+,1,3,4,0,1000,250.0,3,d04tm,440,test
1152.7290344238281,4,1,2,0,3,5,E+,1,5,5,0,1000,250.0,5,d04tm,441,test
560.7089996337891,4,1,2,0,3,5,E+,1,0,3,0,1000,250.0,0,d04tm,442,test
704.9510478973389,4,1,2,0,3,5,E+,1,3,4,0,1000,250.0,3,d04tm,443,test
608.9820861816406,4,1,2,0,3,5,E+,1,0,3,0,1000,250.0,0,d04tm,444,test
1376.9240379333496,4,1,2,0,3,5,E+,1,1,1,0,1000,250.0,1,d04tm,445,test
496.86598777770996,4,1,2,0,3,5,E+,1,1,1,0,1000,250.0,1,d04tm,446,test
656.9440364837646,4,1,2,0,3,5,E+,1,2,2,0,1000,250.0,2,d04tm,447,test
832.9751491546631,4,1,2,0,3,5,E+,1,1,1,0,1000,250.0,1,d04tm,448,test
672.631025314331,4,1,2,0,3,5,E+,1,3,4,0,1000,250.0,3,d04tm,449,test
1136.821985244751,4,1,2,0,3,5,E+,1,4,0,0,1000,250.0,4,d04tm,450,test
688.7190341949463,4,1,2,0,3,5,E+,1,3,4,0,1000,250.0,3,d04tm,451,test
528.7070274353027,4,1,2,0,3,5,E+,1,3,4,0,1000,250.0,3,d04tm,452,test
1312.5090599060059,4,1,2,0,3,5,E+,1,2,2,0,1000,250.0,2,d04tm,453,test
896.7740535736084,4,1,2,0,3,5,E+,1,4,0,0,1000,250.0,4,d04tm,454,test
1024.7700214385986,4,1,2,0,3,5,E+,1,3,4,0,1000,250.0,3,d04tm,455,test
1168.7541007995605,4,1,2,0,3,5,E+,1,2,2,0,1000,250.0,2,d04tm,456,test
544.7719097137451,4,1,2,0,3,5,E+,1,2,2,0,1000,250.0,2,d04tm,457,test
752.7449131011963,4,1,2,0,3,5,E+,1,5,5,0,1000,250.0,5,d04tm,458,test
1824.721097946167,4,1,2,0,3,5,E+,1,2,2,0,1000,250.0,2,d04tm,459,test
736.7470264434814,4,1,2,0,3,5,E+,1,1,1,0,1000,250.0,1,d04tm,460,test
544.7080135345459,4,1,2,0,3,5,E+,1,1,1,0,1000,250.0,1,d04tm,461,test
848.7391471862793,4,1,2,0,3,5,E+,1,2,2,0,1000,250.0,2,d04tm,462,test
656.7440032958984,4,1,2,0,3,5,E+,1,4,0,0,1000,250.0,4,d04tm,463,test
624.7210502624512,4,1,2,0,3,5,E+,1,0,3,0,1000,250.0,0,d04tm,464,test
496.7658519744873,4,1,2,0,3,5,E+,1,0,3,0,1000,250.0,0,d04tm,465,test
896.7671394348145,4,1,2,0,3,5,E+,1,1,1,0,1000,250.0,1,d04tm,466,test
624.7022151947021,4,1,2,0,3,5,E+,1,0,3,0,1000,250.0,0,d04tm,467,test
1008.7199211120605,4,1,2,0,3,5,E+,1,1,1,0,1000,250.0,1,d04tm,468,test
928.7309646606445,4,1,2,0,3,5,E+,1,3,4,0,1000,250.0,3,d04tm,469,test
624.675989151001,4,1,2,0,3,5,E+,1,4,0,0,1000,250.0,4,d04tm,470,test
720.7150459289551,4,1,2,0,3,5,E+,0,2,2,0,1000,250.0,1,d04tm,471,test
1456.7949771881104,4,1,2,0,3,5,E+,1,4,0,0,1000,250.0,4,d04tm,472,test
656.7609310150146,4,1,2,0,3,5,E+,1,3,4,0,1000,250.0,3,d04tm,473,test
560.6238842010498,4,1,2,0,3,5,E+,1,3,4,0,1000,250.0,3,d04tm,474,test
1216.7620658874512,4,1,2,0,3,5,E+,1,5,5,0,1000,250.0,5,d04tm,475,test
1088.6611938476562,4,1,2,0,3,5,E+,1,1,1,0,1000,250.0,1,d04tm,476,test
688.7218952178955,4,1,2,0,3,5,E+,1,5,5,0,1000,250.0,5,d04tm,477,test
832.6811790466309,4,1,2,0,3,5,E+,1,1,1,0,1000,250.0,1,d04tm,478,test
848.6511707305908,4,1,2,0,3,5,E+,1,1,1,0,1000,250.0,1,d04tm,479,test
480.7760715484619,4,1,2,0,3,5,E+,1,1,1,0,1000,250.0,1,d04tm,480,test
624.7239112854004,4,1,2,0,3,5,E+,1,2,2,0,1000,250.0,2,d04tm,481,test
736.7699146270752,4,1,2,0,3,5,E+,1,3,4,0,1000,250.0,3,d04tm,482,test
592.6618576049805,4,1,2,0,3,5,E+,1,3,4,0,1000,250.0,3,d04tm,483,test
576.6968727111816,4,1,2,0,3,5,E+,1,3,4,0,1000,250.0,3,d04tm,484,test
896.6870307922363,4,1,2,0,3,5,E+,1,4,0,0,1000,250.0,4,d04tm,485,test
592.7698612213135,4,1,2,0,3,5,E+,1,0,3,0,1000,250.0,0,d04tm,486,test
944.7789192199707,4,1,2,0,3,5,E+,1,2,2,0,1000,250.0,2,d04tm,487,test
640.761137008667,4,1,2,0,3,5,E+,1,3,4,0,1000,250.0,3,d04tm,488,test
640.6610012054443,4,1,2,0,3,5,E+,1,0,3,0,1000,250.0,0,d04tm,489,test
752.6600360870361,4,1,2,0,3,5,E+,1,5,5,0,1000,250.0,5,d04tm,490,test
624.7458457946777,4,1,2,0,3,5,E+,1,0,3,0,1000,250.0,0,d04tm,491,test
928.6789894104004,4,1,2,0,3,5,E+,1,2,2,0,1000,250.0,2,d04tm,492,test
544.734001159668,4,1,2,0,3,5,E+,1,1,1,0,1000,250.0,1,d04tm,493,test
688.7290477752686,4,1,2,0,3,5,E+,1,2,2,0,1000,250.0,2,d04tm,494,test
528.7220478057861,4,1,2,0,3,5,E+,1,3,4,0,1000,250.0,3,d04tm,495,test
752.7029514312744,4,1,2,0,3,5,E+,1,4,0,0,1000,250.0,4,d04tm,496,test
448.6050605773926,4,1,2,0,3,5,E+,1,5,5,0,1000,250.0,5,d04tm,497,test
672.7120876312256,4,1,2,0,3,5,E+,1,3,4,0,1000,250.0,3,d04tm,498,test
800.7369041442871,4,1,2,0,3,5,E+,1,4,0,0,1000,250.0,4,d04tm,499,test
