RT,SRmap_0,SRmap_1,SRmap_2,SRmap_3,SRmap_4,SRmap_5,condition,correct,correct_response,curstim,ms-precue,ms-prestimblank,ntrials,response,subject,trial,type
1423.755168914795,5,2,1,0,3,4,M,1,3,4,0,1000,250.0,3,e13tt,0,train
528.393030166626,5,2,1,0,3,4,M,1,4,5,0,1000,250.0,4,e13tt,1,train
528.7671089172363,5,2,1,0,3,4,M,1,0,3,0,1000,250.0,0,e13tt,2,train
848.7839698791504,5,2,1,0,3,4,M,1,1,2,0,1000,250.0,1,e13tt,3,train
560.8420372009277,5,2,1,0,3,4,M,1,3,4,0,1000,250.0,3,e13tt,4,train
672.9578971862793,5,2,1,0,3,4,M,1,4,5,0,1000,250.0,4,e13tt,5,train
640.6378746032715,5,2,1,0,3,4,M,1,3,4,0,1000,250.0,3,e13tt,6,train
592.4928188323975,5,2,1,0,3,4,M,1,2,1,0,1000,250.0,2,e13tt,7,train
576.8020153045654,5,2,1,0,3,4,M,1,0,3,0,1000,250.0,0,e13tt,8,train
864.9091720581055,5,2,1,0,3,4,M,1,4,5,0,1000,250.0,4,e13tt,9,train
528.6757946014404,5,2,1,0,3,4,M,1,1,2,0,1000,250.0,1,e13tt,10,train
784.6090793609619,5,2,1,0,3,4,M,0,2,1,0,1000,250.0,3,e13tt,11,train
848.6900329589844,5,2,1,0,3,4,M,1,4,5,0,1000,250.0,4,e13tt,12,train
688.5697841644287,5,2,1,0,3,4,M,1,3,4,0,1000,250.0,3,e13tt,13,train
944.608211517334,5,2,1,0,3,4,M,1,5,0,0,1000,250.0,5,e13tt,14,train
512.8459930419922,5,2,1,0,3,4,M,1,0,3,0,1000,250.0,0,e13tt,15,train
1056.7028522491455,5,2,1,0,3,4,M,1,2,1,0,1000,250.0,2,e13tt,16,train
544.6460247039795,5,2,1,0,3,4,M,1,5,0,0,1000,250.0,5,e13tt,17,train
656.65602684021,5,2,1,0,3,4,M,1,1,2,0,1000,250.0,1,e13tt,18,train
512.6290321350098,5,2,1,0,3,4,M,1,3,4,0,1000,250.0,3,e13tt,19,train
528.6169052124023,5,2,1,0,3,4,M,0,2,1,0,1000,250.0,1,e13tt,20,train
560.5950355529785,5,2,1,0,3,4,M,1,2,1,0,1000,250.0,2,e13tt,21,train
496.6151714324951,5,2,1,0,3,4,M,1,0,3,0,1000,250.0,0,e13tt,22,train
608.5829734802246,5,2,1,0,3,4,M,1,4,5,0,1000,250.0,4,e13tt,23,train
480.5769920349121,5,2,1,0,3,4,M,1,5,0,0,1000,250.0,5,e13tt,24,train
496.5710639953613,5,2,1,0,3,4,M,1,0,3,0,1000,250.0,0,e13tt,25,train
768.6920166015625,5,2,1,0,3,4,M,1,3,4,0,1000,250.0,3,e13tt,26,train
736.5658283233643,5,2,1,0,3,4,M,1,5,0,0,1000,250.0,5,e13tt,27,train
816.9159889221191,5,2,1,0,3,4,M,1,3,4,0,1000,250.0,3,e13tt,28,train
736.616849899292,5,2,1,0,3,4,M,1,4,5,0,1000,250.0,4,e13tt,29,train
848.9639759063721,5,2,1,0,3,4,M,1,3,4,0,1000,250.0,3,e13tt,30,train
528.9039611816406,5,2,1,0,3,4,M,1,5,0,0,1000,250.0,5,e13tt,31,train
704.6809196472168,5,2,1,0,3,4,M,1,4,5,0,1000,250.0,4,e13tt,32,train
560.6651306152344,5,2,1,0,3,4,M,1,5,0,0,1000,250.0,5,e13tt,33,train
848.6261367797852,5,2,1,0,3,4,M,1,2,1,0,1000,250.0,2,e13tt,34,train
688.6210441589355,5,2,1,0,3,4,M,1,4,5,0,1000,250.0,4,e13tt,35,train
448.6210346221924,5,2,1,0,3,4,M,1,5,0,0,1000,250.0,5,e13tt,36,train
560.6420040130615,5,2,1,0,3,4,M,1,4,5,0,1000,250.0,4,e13tt,37,train
576.678991317749,5,2,1,0,3,4,M,0,2,1,0,1000,250.0,1,e13tt,38,train
576.5988826751709,5,2,1,0,3,4,M,1,4,5,0,1000,250.0,4,e13tt,39,train
385.0858211517334,5,2,1,0,3,4,M,1,5,0,0,1000,250.0,5,e13tt,40,train
688.5490417480469,5,2,1,0,3,4,M,1,2,1,0,1000,250.0,2,e13tt,41,train
880.8619976043701,5,2,1,0,3,4,M,1,1,2,0,1000,250.0,1,e13tt,42,train
592.6709175109863,5,2,1,0,3,4,M,1,3,4,0,1000,250.0,3,e13tt,43,train
496.61898612976074,5,2,1,0,3,4,M,1,3,4,0,1000,250.0,3,e13tt,44,train
16.67189598083496,5,2,1,0,3,4,M,0,4,5,0,1000,250.0,5,e13tt,45,train
464.8900032043457,5,2,1,0,3,4,M,1,5,0,0,1000,250.0,5,e13tt,46,train
528.627872467041,5,2,1,0,3,4,M,1,0,3,0,1000,250.0,0,e13tt,47,train
400.68793296813965,5,2,1,0,3,4,M,1,5,0,0,1000,250.0,5,e13tt,48,train
560.6110095977783,5,2,1,0,3,4,M,1,2,1,0,1000,250.0,2,e13tt,49,train
672.6639270782471,5,2,1,0,3,4,M,1,3,4,0,1000,250.0,3,e13tt,50,train
512.6609802246094,5,2,1,0,3,4,M,1,0,3,0,1000,250.0,0,e13tt,51,train
464.59102630615234,5,2,1,0,3,4,M,0,3,4,0,1000,250.0,2,e13tt,52,train
496.68216705322266,5,2,1,0,3,4,M,1,1,2,0,1000,250.0,1,e13tt,53,train
928.5891056060791,5,2,1,0,3,4,M,1,4,5,0,1000,250.0,4,e13tt,54,train
544.6641445159912,5,2,1,0,3,4,M,1,1,2,0,1000,250.0,1,e13tt,55,train
576.6620635986328,5,2,1,0,3,4,M,1,2,1,0,1000,250.0,2,e13tt,56,train
528.9030075073242,5,2,1,0,3,4,M,1,5,0,0,1000,250.0,5,e13tt,57,train
528.6989212036133,5,2,1,0,3,4,M,1,1,2,0,1000,250.0,1,e13tt,58,train
592.6218032836914,5,2,1,0,3,4,M,1,0,3,0,1000,250.0,0,e13tt,59,train
592.6790237426758,5,2,1,0,3,4,M,1,2,1,0,1000,250.0,2,e13tt,60,train
464.6298885345459,5,2,1,0,3,4,M,1,4,5,0,1000,250.0,4,e13tt,61,train
495.5718517303467,5,2,1,0,3,4,M,1,5,0,0,1000,250.0,5,e13tt,62,train
544.6088314056396,5,2,1,0,3,4,M,1,0,3,0,1000,250.0,0,e13tt,63,train
544.3429946899414,5,2,1,0,3,4,M,1,1,2,0,1000,250.0,1,e13tt,64,train
720.6709384918213,5,2,1,0,3,4,M,1,3,4,0,1000,250.0,3,e13tt,65,train
704.6840190887451,5,2,1,0,3,4,M,1,3,4,0,1000,250.0,3,e13tt,66,train
672.504186630249,5,2,1,0,3,4,M,1,2,1,0,1000,250.0,2,e13tt,67,train
544.4271564483643,5,2,1,0,3,4,M,1,1,2,0,1000,250.0,1,e13tt,68,train
448.61602783203125,5,2,1,0,3,4,M,1,0,3,0,1000,250.0,0,e13tt,69,train
704.7328948974609,5,2,1,0,3,4,M,1,4,5,0,1000,250.0,4,e13tt,70,train
688.6718273162842,5,2,1,0,3,4,M,1,2,1,0,1000,250.0,2,e13tt,71,train
544.6310043334961,5,2,1,0,3,4,M,1,4,5,0,1000,250.0,4,e13tt,72,train
560.3940486907959,5,2,1,0,3,4,M,1,3,4,0,1000,250.0,3,e13tt,73,train
480.6489944458008,5,2,1,0,3,4,M,1,0,3,0,1000,250.0,0,e13tt,74,train
688.3449554443359,5,2,1,0,3,4,M,1,3,4,0,1000,250.0,3,e13tt,75,train
416.52703285217285,5,2,1,0,3,4,M,0,2,1,0,1000,250.0,1,e13tt,76,train
512.4530792236328,5,2,1,0,3,4,M,1,1,2,0,1000,250.0,1,e13tt,77,train
528.4130573272705,5,2,1,0,3,4,M,1,3,4,0,1000,250.0,3,e13tt,78,train
464.56384658813477,5,2,1,0,3,4,M,1,1,2,0,1000,250.0,1,e13tt,79,train
496.81687355041504,5,2,1,0,3,4,M,1,1,2,0,1000,250.0,1,e13tt,80,train
432.59596824645996,5,2,1,0,3,4,M,1,2,1,0,1000,250.0,2,e13tt,81,train
464.57409858703613,5,2,1,0,3,4,M,1,3,4,0,1000,250.0,3,e13tt,82,train
512.61305809021,5,2,1,0,3,4,M,1,3,4,0,1000,250.0,3,e13tt,83,train
592.7479267120361,5,2,1,0,3,4,M,1,1,2,0,1000,250.0,1,e13tt,84,train
368.5441017150879,5,2,1,0,3,4,M,1,5,0,0,1000,250.0,5,e13tt,85,train
528.4328460693359,5,2,1,0,3,4,M,1,1,2,0,1000,250.0,1,e13tt,86,train
496.63686752319336,5,2,1,0,3,4,M,1,1,2,0,1000,250.0,1,e13tt,87,train
624.2468357086182,5,2,1,0,3,4,M,1,4,5,0,1000,250.0,4,e13tt,88,train
512.692928314209,5,2,1,0,3,4,M,1,0,3,0,1000,250.0,0,e13tt,89,train
512.6678943634033,5,2,1,0,3,4,M,1,5,0,0,1000,250.0,5,e13tt,90,train
624.7599124908447,5,2,1,0,3,4,M,1,2,1,0,1000,250.0,2,e13tt,91,train
689.1088485717773,5,2,1,0,3,4,M,0,4,5,0,1000,250.0,3,e13tt,92,train
496.6561794281006,5,2,1,0,3,4,M,0,2,1,0,1000,250.0,3,e13tt,93,train
592.6589965820312,5,2,1,0,3,4,M,1,3,4,0,1000,250.0,3,e13tt,94,train
544.7649955749512,5,2,1,0,3,4,M,1,4,5,0,1000,250.0,4,e13tt,95,train
896.6848850250244,5,2,1,0,3,4,M,1,2,1,0,1000,250.0,2,e13tt,96,train
720.5450534820557,5,2,1,0,3,4,M,1,2,1,0,1000,250.0,2,e13tt,97,train
544.6450710296631,5,2,1,0,3,4,M,1,2,1,0,1000,250.0,2,e13tt,98,train
576.76100730896,5,2,1,0,3,4,M,1,4,5,0,1000,250.0,4,e13tt,99,train
400.6779193878174,5,2,1,0,3,4,M,1,2,1,0,1000,250.0,2,e13tt,100,train
544.6531772613525,5,2,1,0,3,4,M,1,5,0,0,1000,250.0,5,e13tt,101,train
528.4590721130371,5,2,1,0,3,4,M,1,0,3,0,1000,250.0,0,e13tt,102,train
544.4488525390625,5,2,1,0,3,4,M,1,1,2,0,1000,250.0,1,e13tt,103,train
688.6990070343018,5,2,1,0,3,4,M,1,3,4,0,1000,250.0,3,e13tt,104,train
512.664794921875,5,2,1,0,3,4,M,0,2,1,0,1000,250.0,1,e13tt,105,train
560.0020885467529,5,2,1,0,3,4,M,1,3,4,0,1000,250.0,3,e13tt,106,train
736.6759777069092,5,2,1,0,3,4,M,1,2,1,0,1000,250.0,2,e13tt,107,train
528.6600589752197,5,2,1,0,3,4,M,1,2,1,0,1000,250.0,2,e13tt,108,train
512.7580165863037,5,2,1,0,3,4,M,1,2,1,0,1000,250.0,2,e13tt,109,train
480.4830551147461,5,2,1,0,3,4,M,1,2,1,0,1000,250.0,2,e13tt,110,train
560.6479644775391,5,2,1,0,3,4,M,1,1,2,0,1000,250.0,1,e13tt,111,train
528.7280082702637,5,2,1,0,3,4,M,1,2,1,0,1000,250.0,2,e13tt,112,train
768.73779296875,5,2,1,0,3,4,M,1,3,4,0,1000,250.0,3,e13tt,113,train
832.6878547668457,5,2,1,0,3,4,M,1,1,2,0,1000,250.0,1,e13tt,114,train
449.01418685913086,5,2,1,0,3,4,M,1,0,3,0,1000,250.0,0,e13tt,115,train
432.4610233306885,5,2,1,0,3,4,M,1,5,0,0,1000,250.0,5,e13tt,116,train
544.6398258209229,5,2,1,0,3,4,M,1,0,3,0,1000,250.0,0,e13tt,117,train
544.6999073028564,5,2,1,0,3,4,M,1,4,5,0,1000,250.0,4,e13tt,118,train
881.2170028686523,5,2,1,0,3,4,M,1,4,5,0,1000,250.0,4,e13tt,119,train
657.0069789886475,5,2,1,0,3,4,M,1,0,3,0,1000,250.0,0,e13tt,120,train
705.1842212677002,5,2,1,0,3,4,M,1,3,4,0,1000,250.0,3,e13tt,121,train
769.150972366333,5,2,1,0,3,4,M,1,3,4,0,1000,250.0,3,e13tt,122,train
545.2189445495605,5,2,1,0,3,4,M,1,0,3,0,1000,250.0,0,e13tt,123,train
497.13706970214844,5,2,1,0,3,4,M,1,1,2,0,1000,250.0,1,e13tt,124,train
641.1991119384766,5,2,1,0,3,4,M,1,4,5,0,1000,250.0,4,e13tt,125,train
528.8090705871582,5,2,1,0,3,4,M,0,2,1,0,1000,250.0,1,e13tt,126,train
481.08601570129395,5,2,1,0,3,4,M,1,4,5,0,1000,250.0,4,e13tt,127,train
545.2148914337158,5,2,1,0,3,4,M,1,1,2,0,1000,250.0,1,e13tt,128,train
1185.3828430175781,5,2,1,0,3,4,M,1,3,4,0,1000,250.0,3,e13tt,129,train
593.1341648101807,5,2,1,0,3,4,M,1,0,3,0,1000,250.0,0,e13tt,130,train
609.2419624328613,5,2,1,0,3,4,M,1,5,0,0,1000,250.0,5,e13tt,131,train
529.1979312896729,5,2,1,0,3,4,M,1,0,3,0,1000,250.0,0,e13tt,132,train
553.2288551330566,5,2,1,0,3,4,M,1,0,3,0,1000,250.0,0,e13tt,133,train
497.1950054168701,5,2,1,0,3,4,M,1,0,3,0,1000,250.0,0,e13tt,134,train
545.1509952545166,5,2,1,0,3,4,M,1,1,2,0,1000,250.0,1,e13tt,135,train
561.2008571624756,5,2,1,0,3,4,M,1,3,4,0,1000,250.0,3,e13tt,136,train
481.19282722473145,5,2,1,0,3,4,M,1,4,5,0,1000,250.0,4,e13tt,137,train
529.2129516601562,5,2,1,0,3,4,M,1,0,3,0,1000,250.0,0,e13tt,138,train
673.1679439544678,5,2,1,0,3,4,M,1,2,1,0,1000,250.0,2,e13tt,139,train
505.30195236206055,5,2,1,0,3,4,M,1,0,3,0,1000,250.0,0,e13tt,140,train
512.6359462738037,5,2,1,0,3,4,M,1,3,4,0,1000,250.0,3,e13tt,141,train
512.6841068267822,5,2,1,0,3,4,M,1,0,3,0,1000,250.0,0,e13tt,142,train
464.77699279785156,5,2,1,0,3,4,M,1,5,0,0,1000,250.0,5,e13tt,143,train
640.7971382141113,5,2,1,0,3,4,M,1,2,1,0,1000,250.0,2,e13tt,144,train
577.0511627197266,5,2,1,0,3,4,M,1,4,5,0,1000,250.0,4,e13tt,145,train
625.2341270446777,5,2,1,0,3,4,M,1,1,2,0,1000,250.0,1,e13tt,146,train
513.1797790527344,5,2,1,0,3,4,M,0,3,4,0,1000,250.0,2,e13tt,147,train
577.1389007568359,5,2,1,0,3,4,M,1,1,2,0,1000,250.0,1,e13tt,148,train
864.9342060089111,5,2,1,0,3,4,M,1,1,2,0,1000,250.0,1,e13tt,149,train
465.1939868927002,5,2,1,0,3,4,M,1,5,0,0,1000,250.0,5,e13tt,150,train
529.19602394104,5,2,1,0,3,4,M,1,4,5,0,1000,250.0,4,e13tt,151,train
641.1919593811035,5,2,1,0,3,4,M,0,2,1,0,1000,250.0,3,e13tt,152,train
497.09582328796387,5,2,1,0,3,4,M,1,3,4,0,1000,250.0,3,e13tt,153,train
529.181957244873,5,2,1,0,3,4,M,1,1,2,0,1000,250.0,1,e13tt,154,train
513.1149291992188,5,2,1,0,3,4,M,1,4,5,0,1000,250.0,4,e13tt,155,train
545.2508926391602,5,2,1,0,3,4,M,1,1,2,0,1000,250.0,1,e13tt,156,train
561.0291957855225,5,2,1,0,3,4,M,1,4,5,0,1000,250.0,4,e13tt,157,train
609.1258525848389,5,2,1,0,3,4,M,1,3,4,0,1000,250.0,3,e13tt,158,train
641.1640644073486,5,2,1,0,3,4,M,1,1,2,0,1000,250.0,1,e13tt,159,train
529.2069911956787,5,2,1,0,3,4,M,1,5,0,0,1000,250.0,5,e13tt,160,train
401.20983123779297,5,2,1,0,3,4,M,1,5,0,0,1000,250.0,5,e13tt,161,train
625.1070499420166,5,2,1,0,3,4,M,1,3,4,0,1000,250.0,3,e13tt,162,train
465.1801586151123,5,2,1,0,3,4,M,1,5,0,0,1000,250.0,5,e13tt,163,train
465.2290344238281,5,2,1,0,3,4,M,1,4,5,0,1000,250.0,4,e13tt,164,train
881.2708854675293,5,2,1,0,3,4,M,1,2,1,0,1000,250.0,2,e13tt,165,train
481.23812675476074,5,2,1,0,3,4,M,1,5,0,0,1000,250.0,5,e13tt,166,train
528.3000469207764,5,2,1,0,3,4,M,1,1,2,0,1000,250.0,1,e13tt,167,train
689.0499591827393,5,2,1,0,3,4,M,1,3,4,0,1000,250.0,3,e13tt,168,train
625.2410411834717,5,2,1,0,3,4,M,1,2,1,0,1000,250.0,2,e13tt,169,train
833.2500457763672,5,2,1,0,3,4,M,1,3,4,0,1000,250.0,3,e13tt,170,train
545.1920032501221,5,2,1,0,3,4,M,1,2,1,0,1000,250.0,2,e13tt,171,train
465.2290344238281,5,2,1,0,3,4,M,1,0,3,0,1000,250.0,0,e13tt,172,train
929.2218685150146,5,2,1,0,3,4,M,1,4,5,0,1000,250.0,4,e13tt,173,train
529.1669368743896,5,2,1,0,3,4,M,1,5,0,0,1000,250.0,5,e13tt,174,train
513.1549835205078,5,2,1,0,3,4,M,1,4,5,0,1000,250.0,4,e13tt,175,train
496.9019889831543,5,2,1,0,3,4,M,1,4,5,0,1000,250.0,4,e13tt,176,train
385.2050304412842,5,2,1,0,3,4,M,1,5,0,0,1000,250.0,5,e13tt,177,train
609.0779304504395,5,2,1,0,3,4,M,1,2,1,0,1000,250.0,2,e13tt,178,train
577.0490169525146,5,2,1,0,3,4,M,1,3,4,0,1000,250.0,3,e13tt,179,train
513.0259990692139,5,2,1,0,3,4,M,1,3,4,0,1000,250.0,3,e13tt,180,train
465.21615982055664,5,2,1,0,3,4,M,1,3,4,0,1000,250.0,3,e13tt,181,train
529.2279720306396,5,2,1,0,3,4,M,1,0,3,0,1000,250.0,0,e13tt,182,train
817.0268535614014,5,2,1,0,3,4,M,1,2,1,0,1000,250.0,2,e13tt,183,train
513.1711959838867,5,2,1,0,3,4,M,1,4,5,0,1000,250.0,4,e13tt,184,train
609.1408729553223,5,2,1,0,3,4,M,1,2,1,0,1000,250.0,2,e13tt,185,train
481.17613792419434,5,2,1,0,3,4,M,1,1,2,0,1000,250.0,1,e13tt,186,train
609.2119216918945,5,2,1,0,3,4,M,1,4,5,0,1000,250.0,4,e13tt,187,train
545.2148914337158,5,2,1,0,3,4,M,0,3,4,0,1000,250.0,2,e13tt,188,train
545.0751781463623,5,2,1,0,3,4,M,1,5,0,0,1000,250.0,5,e13tt,189,train
529.0160179138184,5,2,1,0,3,4,M,1,1,2,0,1000,250.0,1,e13tt,190,train
545.2389717102051,5,2,1,0,3,4,M,1,2,1,0,1000,250.0,2,e13tt,191,train
497.07794189453125,5,2,1,0,3,4,M,1,4,5,0,1000,250.0,4,e13tt,192,train
497.00403213500977,5,2,1,0,3,4,M,1,5,0,0,1000,250.0,5,e13tt,193,train
513.145923614502,5,2,1,0,3,4,M,1,5,0,0,1000,250.0,5,e13tt,194,train
417.01483726501465,5,2,1,0,3,4,M,1,5,0,0,1000,250.0,5,e13tt,195,train
369.1821098327637,5,2,1,0,3,4,M,1,5,0,0,1000,250.0,5,e13tt,196,train
400.8660316467285,5,2,1,0,3,4,M,1,4,5,0,1000,250.0,4,e13tt,197,train
465.18993377685547,5,2,1,0,3,4,M,1,1,2,0,1000,250.0,1,e13tt,198,train
481.1379909515381,5,2,1,0,3,4,M,1,1,2,0,1000,250.0,1,e13tt,199,train
449.0549564361572,5,2,1,0,3,4,M,1,4,5,0,1000,250.0,4,e13tt,200,train
481.097936630249,5,2,1,0,3,4,M,1,4,5,0,1000,250.0,4,e13tt,201,train
497.2350597381592,5,2,1,0,3,4,M,1,0,3,0,1000,250.0,0,e13tt,202,train
529.2251110076904,5,2,1,0,3,4,M,1,3,4,0,1000,250.0,3,e13tt,203,train
457.46493339538574,5,2,1,0,3,4,M,1,5,0,0,1000,250.0,5,e13tt,204,train
497.208833694458,5,2,1,0,3,4,M,1,1,2,0,1000,250.0,1,e13tt,205,train
513.200044631958,5,2,1,0,3,4,M,1,4,5,0,1000,250.0,4,e13tt,206,train
513.1950378417969,5,2,1,0,3,4,M,1,1,2,0,1000,250.0,1,e13tt,207,train
481.20713233947754,5,2,1,0,3,4,M,1,0,3,0,1000,250.0,0,e13tt,208,train
753.1750202178955,5,2,1,0,3,4,M,1,5,0,0,1000,250.0,5,e13tt,209,train
481.1680316925049,5,2,1,0,3,4,M,1,4,5,0,1000,250.0,4,e13tt,210,train
480.56507110595703,5,2,1,0,3,4,M,1,0,3,0,1000,250.0,0,e13tt,211,train
497.18785285949707,5,2,1,0,3,4,M,1,5,0,0,1000,250.0,5,e13tt,212,train
432.5430393218994,5,2,1,0,3,4,M,1,1,2,0,1000,250.0,1,e13tt,213,train
497.1449375152588,5,2,1,0,3,4,M,1,0,3,0,1000,250.0,0,e13tt,214,train
400.59709548950195,5,2,1,0,3,4,M,1,2,1,0,1000,250.0,2,e13tt,215,train
433.243989944458,5,2,1,0,3,4,M,1,0,3,0,1000,250.0,0,e13tt,216,train
681.5879344940186,5,2,1,0,3,4,M,1,2,1,0,1000,250.0,2,e13tt,217,train
465.242862701416,5,2,1,0,3,4,M,0,4,5,0,1000,250.0,1,e13tt,218,train
785.1290702819824,5,2,1,0,3,4,M,1,1,2,0,1000,250.0,1,e13tt,219,train
497.20096588134766,5,2,1,0,3,4,M,1,5,0,0,1000,250.0,5,e13tt,220,train
497.1809387207031,5,2,1,0,3,4,M,1,4,5,0,1000,250.0,4,e13tt,221,train
481.15992546081543,5,2,1,0,3,4,M,1,4,5,0,1000,250.0,4,e13tt,222,train
513.1289958953857,5,2,1,0,3,4,M,1,0,3,0,1000,250.0,0,e13tt,223,train
544.7211265563965,5,2,1,0,3,4,M,1,4,5,0,1000,250.0,4,e13tt,224,train
641.2382125854492,5,2,1,0,3,4,M,0,2,1,0,1000,250.0,1,e13tt,225,train
529.0160179138184,5,2,1,0,3,4,M,1,5,0,0,1000,250.0,5,e13tt,226,train
465.1930332183838,5,2,1,0,3,4,M,1,5,0,0,1000,250.0,5,e13tt,227,train
561.2061023712158,5,2,1,0,3,4,M,1,4,5,0,1000,250.0,4,e13tt,228,train
545.1488494873047,5,2,1,0,3,4,M,1,1,2,0,1000,250.0,1,e13tt,229,train
689.1951560974121,5,2,1,0,3,4,M,1,5,0,0,1000,250.0,5,e13tt,230,train
449.1591453552246,5,2,1,0,3,4,M,1,4,5,0,1000,250.0,4,e13tt,231,train
592.6251411437988,5,2,1,0,3,4,M,0,3,4,0,1000,250.0,2,e13tt,232,train
576.8589973449707,5,2,1,0,3,4,M,1,3,4,0,1000,250.0,3,e13tt,233,train
512.6349925994873,5,2,1,0,3,4,M,1,1,2,0,1000,250.0,1,e13tt,234,train
560.7218742370605,5,2,1,0,3,4,M,1,4,5,0,1000,250.0,4,e13tt,235,train
576.7099857330322,5,2,1,0,3,4,M,1,5,0,0,1000,250.0,5,e13tt,236,train
608.6251735687256,5,2,1,0,3,4,M,1,2,1,0,1000,250.0,2,e13tt,237,train
480.68904876708984,5,2,1,0,3,4,M,1,5,0,0,1000,250.0,5,e13tt,238,train
624.6438026428223,5,2,1,0,3,4,M,1,3,4,0,1000,250.0,3,e13tt,239,train
896.5709209442139,5,2,1,0,3,4,M,1,2,1,0,1000,250.0,2,e13tt,240,train
464.702844619751,5,2,1,0,3,4,M,1,2,1,0,1000,250.0,2,e13tt,241,train
512.7649307250977,5,2,1,0,3,4,M,1,0,3,0,1000,250.0,0,e13tt,242,train
704.7457695007324,5,2,1,0,3,4,M,1,2,1,0,1000,250.0,2,e13tt,243,train
432.7719211578369,5,2,1,0,3,4,M,1,3,4,0,1000,250.0,3,e13tt,244,train
496.7799186706543,5,2,1,0,3,4,M,1,0,3,0,1000,250.0,0,e13tt,245,train
464.6759033203125,5,2,1,0,3,4,M,1,5,0,0,1000,250.0,5,e13tt,246,train
480.6959629058838,5,2,1,0,3,4,M,1,4,5,0,1000,250.0,4,e13tt,247,train
512.6988887786865,5,2,1,0,3,4,M,1,0,3,0,1000,250.0,0,e13tt,248,train
576.7149925231934,5,2,1,0,3,4,M,1,4,5,0,1000,250.0,4,e13tt,249,train
4064.5461082458496,5,2,1,0,3,4,M,0,1,2,0,1000,250.0,3,e13tt,250,test
4624.474048614502,5,2,1,0,3,4,M,1,1,2,0,1000,250.0,1,e13tt,251,test
1456.615924835205,5,2,1,0,3,4,M,1,2,1,0,1000,250.0,2,e13tt,252,test
1489.074945449829,5,2,1,0,3,4,M,1,0,3,0,1000,250.0,0,e13tt,253,test
1153.1610488891602,5,2,1,0,3,4,M,1,2,1,0,1000,250.0,2,e13tt,254,test
625.0941753387451,5,2,1,0,3,4,M,1,2,1,0,1000,250.0,2,e13tt,255,test
1665.0221347808838,5,2,1,0,3,4,M,1,0,3,0,1000,250.0,0,e13tt,256,test
865.1168346405029,5,2,1,0,3,4,M,1,3,4,0,1000,250.0,3,e13tt,257,test
1009.1698169708252,5,2,1,0,3,4,M,1,0,3,0,1000,250.0,0,e13tt,258,test
593.0089950561523,5,2,1,0,3,4,M,1,0,3,0,1000,250.0,0,e13tt,259,test
1233.1838607788086,5,2,1,0,3,4,M,1,2,1,0,1000,250.0,2,e13tt,260,test
753.148078918457,5,2,1,0,3,4,M,1,0,3,0,1000,250.0,0,e13tt,261,test
1248.9960193634033,5,2,1,0,3,4,M,1,3,4,0,1000,250.0,3,e13tt,262,test
817.0828819274902,5,2,1,0,3,4,M,1,0,3,0,1000,250.0,0,e13tt,263,test
641.1199569702148,5,2,1,0,3,4,M,1,3,4,0,1000,250.0,3,e13tt,264,test
704.664945602417,5,2,1,0,3,4,M,1,3,4,0,1000,250.0,3,e13tt,265,test
880.648136138916,5,2,1,0,3,4,M,1,2,1,0,1000,250.0,2,e13tt,266,test
672.6529598236084,5,2,1,0,3,4,M,1,0,3,0,1000,250.0,0,e13tt,267,test
1056.704044342041,5,2,1,0,3,4,M,1,4,5,0,1000,250.0,4,e13tt,268,test
1584.5260620117188,5,2,1,0,3,4,M,1,5,0,0,1000,250.0,5,e13tt,269,test
768.6700820922852,5,2,1,0,3,4,M,1,4,5,0,1000,250.0,4,e13tt,270,test
736.6678714752197,5,2,1,0,3,4,M,1,0,3,0,1000,250.0,0,e13tt,271,test
608.6640357971191,5,2,1,0,3,4,M,1,3,4,0,1000,250.0,3,e13tt,272,test
480.41391372680664,5,2,1,0,3,4,M,1,1,2,0,1000,250.0,1,e13tt,273,test
736.6640567779541,5,2,1,0,3,4,M,1,3,4,0,1000,250.0,3,e13tt,274,test
624.6709823608398,5,2,1,0,3,4,M,1,3,4,0,1000,250.0,3,e13tt,275,test
688.5111331939697,5,2,1,0,3,4,M,1,3,4,0,1000,250.0,3,e13tt,276,test
464.69998359680176,5,2,1,0,3,4,M,1,3,4,0,1000,250.0,3,e13tt,277,test
704.6139240264893,5,2,1,0,3,4,M,1,5,0,0,1000,250.0,5,e13tt,278,test
656.6460132598877,5,2,1,0,3,4,M,1,5,0,0,1000,250.0,5,e13tt,279,test
688.6260509490967,5,2,1,0,3,4,M,1,4,5,0,1000,250.0,4,e13tt,280,test
544.694185256958,5,2,1,0,3,4,M,1,4,5,0,1000,250.0,4,e13tt,281,test
541.9280529022217,5,2,1,0,3,4,M,1,4,5,0,1000,250.0,4,e13tt,282,test
480.9410572052002,5,2,1,0,3,4,M,0,0,3,0,1000,250.0,4,e13tt,283,test
641.1550045013428,5,2,1,0,3,4,M,1,0,3,0,1000,250.0,0,e13tt,284,test
689.1040802001953,5,2,1,0,3,4,M,1,3,4,0,1000,250.0,3,e13tt,285,test
689.154863357544,5,2,1,0,3,4,M,1,2,1,0,1000,250.0,2,e13tt,286,test
641.0281658172607,5,2,1,0,3,4,M,1,3,4,0,1000,250.0,3,e13tt,287,test
449.1078853607178,5,2,1,0,3,4,M,1,1,2,0,1000,250.0,1,e13tt,288,test
369.10295486450195,5,2,1,0,3,4,M,1,4,5,0,1000,250.0,4,e13tt,289,test
1041.2180423736572,5,2,1,0,3,4,M,1,2,1,0,1000,250.0,2,e13tt,290,test
577.1539211273193,5,2,1,0,3,4,M,1,4,5,0,1000,250.0,4,e13tt,291,test
625.1480579376221,5,2,1,0,3,4,M,1,4,5,0,1000,250.0,4,e13tt,292,test
673.1119155883789,5,2,1,0,3,4,M,1,2,1,0,1000,250.0,2,e13tt,293,test
577.1439075469971,5,2,1,0,3,4,M,1,4,5,0,1000,250.0,4,e13tt,294,test
672.6689338684082,5,2,1,0,3,4,M,1,0,3,0,1000,250.0,0,e13tt,295,test
688.6460781097412,5,2,1,0,3,4,M,1,2,1,0,1000,250.0,2,e13tt,296,test
816.6749477386475,5,2,1,0,3,4,M,1,1,2,0,1000,250.0,1,e13tt,297,test
688.6210441589355,5,2,1,0,3,4,M,1,3,4,0,1000,250.0,3,e13tt,298,test
624.65500831604,5,2,1,0,3,4,M,1,2,1,0,1000,250.0,2,e13tt,299,test
496.657133102417,5,2,1,0,3,4,M,1,4,5,0,1000,250.0,4,e13tt,300,test
672.6369857788086,5,2,1,0,3,4,M,1,0,3,0,1000,250.0,0,e13tt,301,test
480.6339740753174,5,2,1,0,3,4,M,1,3,4,0,1000,250.0,3,e13tt,302,test
640.6819820404053,5,2,1,0,3,4,M,0,1,2,0,1000,250.0,2,e13tt,303,test
640.6309604644775,5,2,1,0,3,4,M,1,0,3,0,1000,250.0,0,e13tt,304,test
672.6720333099365,5,2,1,0,3,4,M,1,2,1,0,1000,250.0,2,e13tt,305,test
480.633020401001,5,2,1,0,3,4,M,1,3,4,0,1000,250.0,3,e13tt,306,test
576.6379833221436,5,2,1,0,3,4,M,1,4,5,0,1000,250.0,4,e13tt,307,test
1472.5830554962158,5,2,1,0,3,4,M,1,3,4,0,1000,250.0,3,e13tt,308,test
512.5758647918701,5,2,1,0,3,4,M,1,3,4,0,1000,250.0,3,e13tt,309,test
576.4050483703613,5,2,1,0,3,4,M,1,2,1,0,1000,250.0,2,e13tt,310,test
640.6500339508057,5,2,1,0,3,4,M,1,4,5,0,1000,250.0,4,e13tt,311,test
608.5250377655029,5,2,1,0,3,4,M,1,2,1,0,1000,250.0,2,e13tt,312,test
480.6559085845947,5,2,1,0,3,4,M,1,4,5,0,1000,250.0,4,e13tt,313,test
608.6649894714355,5,2,1,0,3,4,M,1,5,0,0,1000,250.0,5,e13tt,314,test
448.47798347473145,5,2,1,0,3,4,M,1,2,1,0,1000,250.0,2,e13tt,315,test
656.6140651702881,5,2,1,0,3,4,M,0,5,0,0,1000,250.0,4,e13tt,316,test
608.6728572845459,5,2,1,0,3,4,M,1,4,5,0,1000,250.0,4,e13tt,317,test
720.6001281738281,5,2,1,0,3,4,M,1,0,3,0,1000,250.0,0,e13tt,318,test
672.706127166748,5,2,1,0,3,4,M,0,1,2,0,1000,250.0,2,e13tt,319,test
704.6620845794678,5,2,1,0,3,4,M,1,1,2,0,1000,250.0,1,e13tt,320,test
592.6699638366699,5,2,1,0,3,4,M,1,5,0,0,1000,250.0,5,e13tt,321,test
656.6150188446045,5,2,1,0,3,4,M,1,4,5,0,1000,250.0,4,e13tt,322,test
560.6870651245117,5,2,1,0,3,4,M,1,4,5,0,1000,250.0,4,e13tt,323,test
848.6330509185791,5,2,1,0,3,4,M,1,1,2,0,1000,250.0,1,e13tt,324,test
576.8289566040039,5,2,1,0,3,4,M,1,4,5,0,1000,250.0,4,e13tt,325,test
656.6650867462158,5,2,1,0,3,4,M,1,4,5,0,1000,250.0,4,e13tt,326,test
448.627233505249,5,2,1,0,3,4,M,1,4,5,0,1000,250.0,4,e13tt,327,test
576.5509605407715,5,2,1,0,3,4,M,1,4,5,0,1000,250.0,4,e13tt,328,test
1376.5678405761719,5,2,1,0,3,4,M,1,1,2,0,1000,250.0,1,e13tt,329,test
672.5938320159912,5,2,1,0,3,4,M,1,0,3,0,1000,250.0,0,e13tt,330,test
768.6569690704346,5,2,1,0,3,4,M,1,2,1,0,1000,250.0,2,e13tt,331,test
656.5229892730713,5,2,1,0,3,4,M,1,0,3,0,1000,250.0,0,e13tt,332,test
544.6529388427734,5,2,1,0,3,4,M,1,4,5,0,1000,250.0,4,e13tt,333,test
640.6540870666504,5,2,1,0,3,4,M,1,2,1,0,1000,250.0,2,e13tt,334,test
576.6811370849609,5,2,1,0,3,4,M,1,5,0,0,1000,250.0,5,e13tt,335,test
640.6588554382324,5,2,1,0,3,4,M,1,2,1,0,1000,250.0,2,e13tt,336,test
464.6008014678955,5,2,1,0,3,4,M,0,1,2,0,1000,250.0,3,e13tt,337,test
784.5339775085449,5,2,1,0,3,4,M,1,3,4,0,1000,250.0,3,e13tt,338,test
1376.654863357544,5,2,1,0,3,4,M,1,1,2,0,1000,250.0,1,e13tt,339,test
672.6839542388916,5,2,1,0,3,4,M,1,1,2,0,1000,250.0,1,e13tt,340,test
624.6628761291504,5,2,1,0,3,4,M,1,2,1,0,1000,250.0,2,e13tt,341,test
832.711935043335,5,2,1,0,3,4,M,1,3,4,0,1000,250.0,3,e13tt,342,test
608.6671352386475,5,2,1,0,3,4,M,1,4,5,0,1000,250.0,4,e13tt,343,test
688.6141300201416,5,2,1,0,3,4,M,1,1,2,0,1000,250.0,1,e13tt,344,test
640.6409740447998,5,2,1,0,3,4,M,1,2,1,0,1000,250.0,2,e13tt,345,test
848.686933517456,5,2,1,0,3,4,M,0,5,0,0,1000,250.0,4,e13tt,346,test
928.6279678344727,5,2,1,0,3,4,M,1,2,1,0,1000,250.0,2,e13tt,347,test
1376.682996749878,5,2,1,0,3,4,M,1,5,0,0,1000,250.0,5,e13tt,348,test
784.7001552581787,5,2,1,0,3,4,M,1,5,0,0,1000,250.0,5,e13tt,349,test
624.5410442352295,5,2,1,0,3,4,M,1,5,0,0,1000,250.0,5,e13tt,350,test
1008.1839561462402,5,2,1,0,3,4,M,1,3,4,0,1000,250.0,3,e13tt,351,test
672.5690364837646,5,2,1,0,3,4,M,1,2,1,0,1000,250.0,2,e13tt,352,test
464.5071029663086,5,2,1,0,3,4,M,1,2,1,0,1000,250.0,2,e13tt,353,test
560.5089664459229,5,2,1,0,3,4,M,1,4,5,0,1000,250.0,4,e13tt,354,test
640.6679153442383,5,2,1,0,3,4,M,1,0,3,0,1000,250.0,0,e13tt,355,test
704.6918869018555,5,2,1,0,3,4,M,1,1,2,0,1000,250.0,1,e13tt,356,test
608.6468696594238,5,2,1,0,3,4,M,1,1,2,0,1000,250.0,1,e13tt,357,test
608.6940765380859,5,2,1,0,3,4,M,1,3,4,0,1000,250.0,3,e13tt,358,test
992.5961494445801,5,2,1,0,3,4,M,1,2,1,0,1000,250.0,2,e13tt,359,test
592.6480293273926,5,2,1,0,3,4,M,1,0,3,0,1000,250.0,0,e13tt,360,test
592.6549434661865,5,2,1,0,3,4,M,1,4,5,0,1000,250.0,4,e13tt,361,test
608.673095703125,5,2,1,0,3,4,M,1,5,0,0,1000,250.0,5,e13tt,362,test
768.1500911712646,5,2,1,0,3,4,M,0,5,0,0,1000,250.0,3,e13tt,363,test
688.6520385742188,5,2,1,0,3,4,M,1,2,1,0,1000,250.0,2,e13tt,364,test
592.3371315002441,5,2,1,0,3,4,M,1,5,0,0,1000,250.0,5,e13tt,365,test
640.6700611114502,5,2,1,0,3,4,M,1,0,3,0,1000,250.0,0,e13tt,366,test
832.7140808105469,5,2,1,0,3,4,M,1,4,5,0,1000,250.0,4,e13tt,367,test
672.5881099700928,5,2,1,0,3,4,M,1,5,0,0,1000,250.0,5,e13tt,368,test
560.6479644775391,5,2,1,0,3,4,M,1,0,3,0,1000,250.0,0,e13tt,369,test
608.7779998779297,5,2,1,0,3,4,M,1,5,0,0,1000,250.0,5,e13tt,370,test
656.7280292510986,5,2,1,0,3,4,M,1,0,3,0,1000,250.0,0,e13tt,371,test
704.8518657684326,5,2,1,0,3,4,M,1,5,0,0,1000,250.0,5,e13tt,372,test
736.7100715637207,5,2,1,0,3,4,M,0,3,4,0,1000,250.0,4,e13tt,373,test
592.9319858551025,5,2,1,0,3,4,M,1,4,5,0,1000,250.0,4,e13tt,374,test
640.56396484375,5,2,1,0,3,4,M,1,3,4,0,1000,250.0,3,e13tt,375,test
752.748966217041,5,2,1,0,3,4,M,1,2,1,0,1000,250.0,2,e13tt,376,test
608.5929870605469,5,2,1,0,3,4,M,1,5,0,0,1000,250.0,5,e13tt,377,test
960.6330394744873,5,2,1,0,3,4,M,1,1,2,0,1000,250.0,1,e13tt,378,test
656.7800045013428,5,2,1,0,3,4,M,1,2,1,0,1000,250.0,2,e13tt,379,test
576.5900611877441,5,2,1,0,3,4,M,1,4,5,0,1000,250.0,4,e13tt,380,test
576.7219066619873,5,2,1,0,3,4,M,1,2,1,0,1000,250.0,2,e13tt,381,test
576.6158103942871,5,2,1,0,3,4,M,1,0,3,0,1000,250.0,0,e13tt,382,test
1232.6757907867432,5,2,1,0,3,4,M,1,1,2,0,1000,250.0,1,e13tt,383,test
592.6761627197266,5,2,1,0,3,4,M,1,0,3,0,1000,250.0,0,e13tt,384,test
640.6500339508057,5,2,1,0,3,4,M,1,3,4,0,1000,250.0,3,e13tt,385,test
736.7031574249268,5,2,1,0,3,4,M,1,2,1,0,1000,250.0,2,e13tt,386,test
640.6571865081787,5,2,1,0,3,4,M,1,5,0,0,1000,250.0,5,e13tt,387,test
848.6480712890625,5,2,1,0,3,4,M,1,2,1,0,1000,250.0,2,e13tt,388,test
1232.48291015625,5,2,1,0,3,4,M,1,3,4,0,1000,250.0,3,e13tt,389,test
592.6201343536377,5,2,1,0,3,4,M,1,0,3,0,1000,250.0,0,e13tt,390,test
1120.7940578460693,5,2,1,0,3,4,M,1,1,2,0,1000,250.0,1,e13tt,391,test
625.1599788665771,5,2,1,0,3,4,M,1,2,1,0,1000,250.0,2,e13tt,392,test
657.0849418640137,5,2,1,0,3,4,M,1,0,3,0,1000,250.0,0,e13tt,393,test
593.1029319763184,5,2,1,0,3,4,M,1,4,5,0,1000,250.0,4,e13tt,394,test
673.0971336364746,5,2,1,0,3,4,M,1,1,2,0,1000,250.0,1,e13tt,395,test
561.1491203308105,5,2,1,0,3,4,M,1,4,5,0,1000,250.0,4,e13tt,396,test
545.0220108032227,5,2,1,0,3,4,M,1,0,3,0,1000,250.0,0,e13tt,397,test
625.054121017456,5,2,1,0,3,4,M,1,3,4,0,1000,250.0,3,e13tt,398,test
481.1060428619385,5,2,1,0,3,4,M,1,4,5,0,1000,250.0,4,e13tt,399,test
529.1748046875,5,2,1,0,3,4,M,1,3,4,0,1000,250.0,3,e13tt,400,test
641.1399841308594,5,2,1,0,3,4,M,1,2,1,0,1000,250.0,2,e13tt,401,test
689.1090869903564,5,2,1,0,3,4,M,1,1,2,0,1000,250.0,1,e13tt,402,test
913.1708145141602,5,2,1,0,3,4,M,1,2,1,0,1000,250.0,2,e13tt,403,test
657.1450233459473,5,2,1,0,3,4,M,1,0,3,0,1000,250.0,0,e13tt,404,test
657.1230888366699,5,2,1,0,3,4,M,1,0,3,0,1000,250.0,0,e13tt,405,test
1040.7800674438477,5,2,1,0,3,4,M,0,5,0,0,1000,250.0,3,e13tt,406,test
624.9990463256836,5,2,1,0,3,4,M,1,4,5,0,1000,250.0,4,e13tt,407,test
769.1538333892822,5,2,1,0,3,4,M,1,2,1,0,1000,250.0,2,e13tt,408,test
577.0890712738037,5,2,1,0,3,4,M,1,3,4,0,1000,250.0,3,e13tt,409,test
657.1018695831299,5,2,1,0,3,4,M,1,4,5,0,1000,250.0,4,e13tt,410,test
785.1250171661377,5,2,1,0,3,4,M,1,1,2,0,1000,250.0,1,e13tt,411,test
737.1129989624023,5,2,1,0,3,4,M,1,2,1,0,1000,250.0,2,e13tt,412,test
641.0980224609375,5,2,1,0,3,4,M,1,5,0,0,1000,250.0,5,e13tt,413,test
737.1070384979248,5,2,1,0,3,4,M,1,1,2,0,1000,250.0,1,e13tt,414,test
641.0670280456543,5,2,1,0,3,4,M,1,2,1,0,1000,250.0,2,e13tt,415,test
657.1071147918701,5,2,1,0,3,4,M,1,5,0,0,1000,250.0,5,e13tt,416,test
577.1322250366211,5,2,1,0,3,4,M,1,5,0,0,1000,250.0,5,e13tt,417,test
640.9051418304443,5,2,1,0,3,4,M,1,3,4,0,1000,250.0,3,e13tt,418,test
721.0910320281982,5,2,1,0,3,4,M,1,0,3,0,1000,250.0,0,e13tt,419,test
577.1160125732422,5,2,1,0,3,4,M,1,3,4,0,1000,250.0,3,e13tt,420,test
672.9061603546143,5,2,1,0,3,4,M,1,1,2,0,1000,250.0,1,e13tt,421,test
545.1149940490723,5,2,1,0,3,4,M,1,4,5,0,1000,250.0,4,e13tt,422,test
657.1099758148193,5,2,1,0,3,4,M,1,2,1,0,1000,250.0,2,e13tt,423,test
673.1810569763184,5,2,1,0,3,4,M,1,4,5,0,1000,250.0,4,e13tt,424,test
641.1120891571045,5,2,1,0,3,4,M,1,5,0,0,1000,250.0,5,e13tt,425,test
705.204963684082,5,2,1,0,3,4,M,1,1,2,0,1000,250.0,1,e13tt,426,test
769.1550254821777,5,2,1,0,3,4,M,1,4,5,0,1000,250.0,4,e13tt,427,test
721.1558818817139,5,2,1,0,3,4,M,1,0,3,0,1000,250.0,0,e13tt,428,test
833.076000213623,5,2,1,0,3,4,M,1,2,1,0,1000,250.0,2,e13tt,429,test
737.0049953460693,5,2,1,0,3,4,M,1,3,4,0,1000,250.0,3,e13tt,430,test
641.0319805145264,5,2,1,0,3,4,M,1,1,2,0,1000,250.0,1,e13tt,431,test
705.143928527832,5,2,1,0,3,4,M,1,1,2,0,1000,250.0,1,e13tt,432,test
561.053991317749,5,2,1,0,3,4,M,1,5,0,0,1000,250.0,5,e13tt,433,test
673.1359958648682,5,2,1,0,3,4,M,1,2,1,0,1000,250.0,2,e13tt,434,test
1552.9260635375977,5,2,1,0,3,4,M,0,1,2,0,1000,250.0,2,e13tt,435,test
673.0778217315674,5,2,1,0,3,4,M,1,3,4,0,1000,250.0,3,e13tt,436,test
593.1470394134521,5,2,1,0,3,4,M,1,3,4,0,1000,250.0,3,e13tt,437,test
577.078104019165,5,2,1,0,3,4,M,1,0,3,0,1000,250.0,0,e13tt,438,test
673.1359958648682,5,2,1,0,3,4,M,1,1,2,0,1000,250.0,1,e13tt,439,test
704.7359943389893,5,2,1,0,3,4,M,1,4,5,0,1000,250.0,4,e13tt,440,test
688.6630058288574,5,2,1,0,3,4,M,1,2,1,0,1000,250.0,2,e13tt,441,test
688.6930465698242,5,2,1,0,3,4,M,1,0,3,0,1000,250.0,0,e13tt,442,test
624.6669292449951,5,2,1,0,3,4,M,1,4,5,0,1000,250.0,4,e13tt,443,test
1216.5250778198242,5,2,1,0,3,4,M,1,1,2,0,1000,250.0,1,e13tt,444,test
656.5070152282715,5,2,1,0,3,4,M,1,3,4,0,1000,250.0,3,e13tt,445,test
608.6578369140625,5,2,1,0,3,4,M,1,2,1,0,1000,250.0,2,e13tt,446,test
704.6229839324951,5,2,1,0,3,4,M,1,3,4,0,1000,250.0,3,e13tt,447,test
591.4380550384521,5,2,1,0,3,4,M,1,0,3,0,1000,250.0,0,e13tt,448,test
928.581953048706,5,2,1,0,3,4,M,1,5,0,0,1000,250.0,5,e13tt,449,test
576.592206954956,5,2,1,0,3,4,M,1,0,3,0,1000,250.0,0,e13tt,450,test
640.4199600219727,5,2,1,0,3,4,M,1,5,0,0,1000,250.0,5,e13tt,451,test
704.6639919281006,5,2,1,0,3,4,M,1,1,2,0,1000,250.0,1,e13tt,452,test
464.6930694580078,5,2,1,0,3,4,M,1,1,2,0,1000,250.0,1,e13tt,453,test
432.65700340270996,5,2,1,0,3,4,M,0,3,4,0,1000,250.0,5,e13tt,454,test
672.6338863372803,5,2,1,0,3,4,M,1,2,1,0,1000,250.0,2,e13tt,455,test
720.6108570098877,5,2,1,0,3,4,M,1,5,0,0,1000,250.0,5,e13tt,456,test
624.6459484100342,5,2,1,0,3,4,M,0,1,2,0,1000,250.0,2,e13tt,457,test
576.6549110412598,5,2,1,0,3,4,M,1,3,4,0,1000,250.0,3,e13tt,458,test
640.6831741333008,5,2,1,0,3,4,M,1,3,4,0,1000,250.0,3,e13tt,459,test
544.7111129760742,5,2,1,0,3,4,M,1,3,4,0,1000,250.0,3,e13tt,460,test
560.636043548584,5,2,1,0,3,4,M,1,0,3,0,1000,250.0,0,e13tt,461,test
560.6720447540283,5,2,1,0,3,4,M,1,4,5,0,1000,250.0,4,e13tt,462,test
576.6119956970215,5,2,1,0,3,4,M,1,0,3,0,1000,250.0,0,e13tt,463,test
752.6969909667969,5,2,1,0,3,4,M,1,0,3,0,1000,250.0,0,e13tt,464,test
736.5238666534424,5,2,1,0,3,4,M,1,2,1,0,1000,250.0,2,e13tt,465,test
864.5401000976562,5,2,1,0,3,4,M,1,0,3,0,1000,250.0,0,e13tt,466,test
1008.6929798126221,5,2,1,0,3,4,M,0,0,3,0,1000,250.0,3,e13tt,467,test
1488.5919094085693,5,2,1,0,3,4,M,0,1,2,0,1000,250.0,0,e13tt,468,test
720.5390930175781,5,2,1,0,3,4,M,1,3,4,0,1000,250.0,3,e13tt,469,test
944.6640014648438,5,2,1,0,3,4,M,1,5,0,0,1000,250.0,5,e13tt,470,test
2144.695997238159,5,2,1,0,3,4,M,1,2,1,0,1000,250.0,2,e13tt,471,test
800.4930019378662,5,2,1,0,3,4,M,1,0,3,0,1000,250.0,0,e13tt,472,test
768.686056137085,5,2,1,0,3,4,M,1,2,1,0,1000,250.0,2,e13tt,473,test
848.6959934234619,5,2,1,0,3,4,M,1,1,2,0,1000,250.0,1,e13tt,474,test
576.5650272369385,5,2,1,0,3,4,M,1,0,3,0,1000,250.0,0,e13tt,475,test
768.6610221862793,5,2,1,0,3,4,M,1,0,3,0,1000,250.0,0,e13tt,476,test
800.6620407104492,5,2,1,0,3,4,M,1,2,1,0,1000,250.0,2,e13tt,477,test
560.5709552764893,5,2,1,0,3,4,M,1,2,1,0,1000,250.0,2,e13tt,478,test
688.5988712310791,5,2,1,0,3,4,M,1,2,1,0,1000,250.0,2,e13tt,479,test
576.6911506652832,5,2,1,0,3,4,M,0,1,2,0,1000,250.0,2,e13tt,480,test
672.6408004760742,5,2,1,0,3,4,M,1,0,3,0,1000,250.0,0,e13tt,481,test
592.5731658935547,5,2,1,0,3,4,M,1,4,5,0,1000,250.0,4,e13tt,482,test
592.595100402832,5,2,1,0,3,4,M,1,2,1,0,1000,250.0,2,e13tt,483,test
592.695951461792,5,2,1,0,3,4,M,1,3,4,0,1000,250.0,3,e13tt,484,test
592.6661491394043,5,2,1,0,3,4,M,1,4,5,0,1000,250.0,4,e13tt,485,test
1504.6870708465576,5,2,1,0,3,4,M,1,5,0,0,1000,250.0,5,e13tt,486,test
816.655158996582,5,2,1,0,3,4,M,1,1,2,0,1000,250.0,1,e13tt,487,test
3728.7120819091797,5,2,1,0,3,4,M,1,3,4,0,1000,250.0,3,e13tt,488,test
1536.6401672363281,5,2,1,0,3,4,M,0,4,5,0,1000,250.0,0,e13tt,489,test
1360.5830669403076,5,2,1,0,3,4,M,1,0,3,0,1000,250.0,0,e13tt,490,test
624.6578693389893,5,2,1,0,3,4,M,1,5,0,0,1000,250.0,5,e13tt,491,test
560.6610774993896,5,2,1,0,3,4,M,1,3,4,0,1000,250.0,3,e13tt,492,test
608.5679531097412,5,2,1,0,3,4,M,1,0,3,0,1000,250.0,0,e13tt,493,test
752.0651817321777,5,2,1,0,3,4,M,1,1,2,0,1000,250.0,1,e13tt,494,test
640.6509876251221,5,2,1,0,3,4,M,1,2,1,0,1000,250.0,2,e13tt,495,test
640.6729221343994,5,2,1,0,3,4,M,1,2,1,0,1000,250.0,2,e13tt,496,test
800.0850677490234,5,2,1,0,3,4,M,1,4,5,0,1000,250.0,4,e13tt,497,test
655.8840274810791,5,2,1,0,3,4,M,1,0,3,0,1000,250.0,0,e13tt,498,test
896.2728977203369,5,2,1,0,3,4,M,1,3,4,0,1000,250.0,3,e13tt,499,test
