RT,SRmap_0,SRmap_1,SRmap_2,SRmap_3,SRmap_4,SRmap_5,condition,correct,correct_response,curstim,ms-precue,ms-prestimblank,ntrials,response,subject,trial,type
2271.5280055999756,5,2,1,3,0,4,E+,1,2,1,400,600,250.0,2,E20ES,0,train
687.6389980316162,5,2,1,3,0,4,E+,1,3,3,400,600,250.0,3,E20ES,1,train
831.8018913269043,5,2,1,3,0,4,E+,1,1,2,400,600,250.0,1,E20ES,2,train
175.77099800109863,5,2,1,3,0,4,E+,1,1,2,400,600,250.0,1,E20ES,3,train
287.8401279449463,5,2,1,3,0,4,E+,1,5,0,400,600,250.0,5,E20ES,4,train
319.7760581970215,5,2,1,3,0,4,E+,1,3,3,400,600,250.0,3,E20ES,5,train
256.0710906982422,5,2,1,3,0,4,E+,1,5,0,400,600,250.0,5,E20ES,6,train
111.85503005981445,5,2,1,3,0,4,E+,1,4,5,400,600,250.0,4,E20ES,7,train
159.81507301330566,5,2,1,3,0,4,E+,1,4,5,400,600,250.0,4,E20ES,8,train
287.86683082580566,5,2,1,3,0,4,E+,1,0,4,400,600,250.0,0,E20ES,9,train
367.77305603027344,5,2,1,3,0,4,E+,1,2,1,400,600,250.0,2,E20ES,10,train
271.8021869659424,5,2,1,3,0,4,E+,1,3,3,400,600,250.0,3,E20ES,11,train
319.7171688079834,5,2,1,3,0,4,E+,1,0,4,400,600,250.0,0,E20ES,12,train
63.9491081237793,5,2,1,3,0,4,E+,1,1,2,400,600,250.0,1,E20ES,13,train
159.8191261291504,5,2,1,3,0,4,E+,1,0,4,400,600,250.0,0,E20ES,14,train
255.77306747436523,5,2,1,3,0,4,E+,1,5,0,400,600,250.0,5,E20ES,15,train
143.8429355621338,5,2,1,3,0,4,E+,1,3,3,400,600,250.0,3,E20ES,16,train
79.89501953125,5,2,1,3,0,4,E+,0,1,2,400,600,250.0,4,E20ES,17,train
367.9018020629883,5,2,1,3,0,4,E+,1,1,2,400,600,250.0,1,E20ES,18,train
223.72698783874512,5,2,1,3,0,4,E+,1,0,4,400,600,250.0,0,E20ES,19,train
335.76393127441406,5,2,1,3,0,4,E+,1,1,2,400,600,250.0,1,E20ES,20,train
303.678035736084,5,2,1,3,0,4,E+,1,5,0,400,600,250.0,5,E20ES,21,train
95.69716453552246,5,2,1,3,0,4,E+,1,5,0,400,600,250.0,5,E20ES,22,train
239.79496955871582,5,2,1,3,0,4,E+,1,0,4,400,600,250.0,0,E20ES,23,train
687.8278255462646,5,2,1,3,0,4,E+,0,4,5,400,600,250.0,5,E20ES,24,train
159.84392166137695,5,2,1,3,0,4,E+,1,4,5,400,600,250.0,4,E20ES,25,train
399.7960090637207,5,2,1,3,0,4,E+,1,0,4,400,600,250.0,0,E20ES,26,train
607.7849864959717,5,2,1,3,0,4,E+,1,2,1,400,600,250.0,2,E20ES,27,train
239.81881141662598,5,2,1,3,0,4,E+,1,5,0,400,600,250.0,5,E20ES,28,train
1504.43696975708,5,2,1,3,0,4,E+,1,1,2,400,600,250.0,1,E20ES,29,train
304.063081741333,5,2,1,3,0,4,E+,1,2,1,400,600,250.0,2,E20ES,30,train
176.0880947113037,5,2,1,3,0,4,E+,1,2,1,400,600,250.0,2,E20ES,31,train
144.4389820098877,5,2,1,3,0,4,E+,1,0,4,400,600,250.0,0,E20ES,32,train
80.20496368408203,5,2,1,3,0,4,E+,1,0,4,400,600,250.0,0,E20ES,33,train
144.150972366333,5,2,1,3,0,4,E+,0,4,5,400,600,250.0,5,E20ES,34,train
304.1701316833496,5,2,1,3,0,4,E+,1,0,4,400,600,250.0,0,E20ES,35,train
240.34690856933594,5,2,1,3,0,4,E+,1,5,0,400,600,250.0,5,E20ES,36,train
111.84382438659668,5,2,1,3,0,4,E+,1,0,4,400,600,250.0,0,E20ES,37,train
319.9269771575928,5,2,1,3,0,4,E+,1,5,0,400,600,250.0,5,E20ES,38,train
208.04810523986816,5,2,1,3,0,4,E+,1,4,5,400,600,250.0,4,E20ES,39,train
127.86507606506348,5,2,1,3,0,4,E+,1,3,3,400,600,250.0,3,E20ES,40,train
239.79496955871582,5,2,1,3,0,4,E+,1,5,0,400,600,250.0,5,E20ES,41,train
111.89699172973633,5,2,1,3,0,4,E+,1,0,4,400,600,250.0,0,E20ES,42,train
399.81985092163086,5,2,1,3,0,4,E+,1,3,3,400,600,250.0,3,E20ES,43,train
271.72017097473145,5,2,1,3,0,4,E+,1,0,4,400,600,250.0,0,E20ES,44,train
111.80591583251953,5,2,1,3,0,4,E+,1,0,4,400,600,250.0,0,E20ES,45,train
143.84007453918457,5,2,1,3,0,4,E+,1,1,2,400,600,250.0,1,E20ES,46,train
495.91588973999023,5,2,1,3,0,4,E+,1,3,3,400,600,250.0,3,E20ES,47,train
127.9749870300293,5,2,1,3,0,4,E+,1,3,3,400,600,250.0,3,E20ES,48,train
47.74808883666992,5,2,1,3,0,4,E+,0,2,1,400,600,250.0,4,E20ES,49,train
847.4810123443604,5,2,1,3,0,4,E+,1,3,3,400,600,250.0,3,E20ES,50,train
255.27620315551758,5,2,1,3,0,4,E+,1,5,0,400,600,250.0,5,E20ES,51,train
495.5720901489258,5,2,1,3,0,4,E+,1,1,2,400,600,250.0,1,E20ES,52,train
287.24098205566406,5,2,1,3,0,4,E+,1,3,3,400,600,250.0,3,E20ES,53,train
239.36200141906738,5,2,1,3,0,4,E+,1,3,3,400,600,250.0,3,E20ES,54,train
47.28388786315918,5,2,1,3,0,4,E+,1,3,3,400,600,250.0,3,E20ES,55,train
159.7750186920166,5,2,1,3,0,4,E+,1,5,0,400,600,250.0,5,E20ES,56,train
239.29095268249512,5,2,1,3,0,4,E+,1,0,4,400,600,250.0,0,E20ES,57,train
79.45680618286133,5,2,1,3,0,4,E+,1,1,2,400,600,250.0,1,E20ES,58,train
1695.1818466186523,5,2,1,3,0,4,E+,1,2,1,400,600,250.0,2,E20ES,59,train
192.01111793518066,5,2,1,3,0,4,E+,1,0,4,400,600,250.0,0,E20ES,60,train
303.8649559020996,5,2,1,3,0,4,E+,1,3,3,400,600,250.0,3,E20ES,61,train
735.8920574188232,5,2,1,3,0,4,E+,1,4,5,400,600,250.0,4,E20ES,62,train
255.86199760437012,5,2,1,3,0,4,E+,1,1,2,400,600,250.0,1,E20ES,63,train
175.93002319335938,5,2,1,3,0,4,E+,1,0,4,400,600,250.0,0,E20ES,64,train
79.9109935760498,5,2,1,3,0,4,E+,1,0,4,400,600,250.0,0,E20ES,65,train
335.9181880950928,5,2,1,3,0,4,E+,1,2,1,400,600,250.0,2,E20ES,66,train
623.7890720367432,5,2,1,3,0,4,E+,1,4,5,400,600,250.0,4,E20ES,67,train
271.49415016174316,5,2,1,3,0,4,E+,1,0,4,400,600,250.0,0,E20ES,68,train
207.244873046875,5,2,1,3,0,4,E+,1,5,0,400,600,250.0,5,E20ES,69,train
223.33312034606934,5,2,1,3,0,4,E+,1,5,0,400,600,250.0,5,E20ES,70,train
127.4259090423584,5,2,1,3,0,4,E+,1,5,0,400,600,250.0,5,E20ES,71,train
287.1999740600586,5,2,1,3,0,4,E+,1,4,5,400,600,250.0,4,E20ES,72,train
223.2370376586914,5,2,1,3,0,4,E+,1,5,0,400,600,250.0,5,E20ES,73,train
671.2930202484131,5,2,1,3,0,4,E+,1,2,1,400,600,250.0,2,E20ES,74,train
223.222017288208,5,2,1,3,0,4,E+,1,4,5,400,600,250.0,4,E20ES,75,train
111.26708984375,5,2,1,3,0,4,E+,1,0,4,400,600,250.0,0,E20ES,76,train
255.22208213806152,5,2,1,3,0,4,E+,1,2,1,400,600,250.0,2,E20ES,77,train
127.27212905883789,5,2,1,3,0,4,E+,1,1,2,400,600,250.0,1,E20ES,78,train
271.14200592041016,5,2,1,3,0,4,E+,1,3,3,400,600,250.0,3,E20ES,79,train
79.34093475341797,5,2,1,3,0,4,E+,1,1,2,400,600,250.0,1,E20ES,80,train
143.2809829711914,5,2,1,3,0,4,E+,1,2,1,400,600,250.0,2,E20ES,81,train
191.3299560546875,5,2,1,3,0,4,E+,1,0,4,400,600,250.0,0,E20ES,82,train
63.18306922912598,5,2,1,3,0,4,E+,1,1,2,400,600,250.0,1,E20ES,83,train
271.15392684936523,5,2,1,3,0,4,E+,1,5,0,400,600,250.0,5,E20ES,84,train
287.2319221496582,5,2,1,3,0,4,E+,1,1,2,400,600,250.0,1,E20ES,85,train
255.33008575439453,5,2,1,3,0,4,E+,1,3,3,400,600,250.0,3,E20ES,86,train
111.27018928527832,5,2,1,3,0,4,E+,1,3,3,400,600,250.0,3,E20ES,87,train
47.2259521484375,5,2,1,3,0,4,E+,1,3,3,400,600,250.0,3,E20ES,88,train
303.27701568603516,5,2,1,3,0,4,E+,1,3,3,400,600,250.0,3,E20ES,89,train
175.31085014343262,5,2,1,3,0,4,E+,1,1,2,400,600,250.0,1,E20ES,90,train
31.280040740966797,5,2,1,3,0,4,E+,1,1,2,400,600,250.0,1,E20ES,91,train
207.2927951812744,5,2,1,3,0,4,E+,1,0,4,400,600,250.0,0,E20ES,92,train
319.3340301513672,5,2,1,3,0,4,E+,1,3,3,400,600,250.0,3,E20ES,93,train
127.31719017028809,5,2,1,3,0,4,E+,1,3,3,400,600,250.0,3,E20ES,94,train
159.30986404418945,5,2,1,3,0,4,E+,1,5,0,400,600,250.0,5,E20ES,95,train
207.22198486328125,5,2,1,3,0,4,E+,0,1,2,400,600,250.0,0,E20ES,96,train
223.297119140625,5,2,1,3,0,4,E+,1,5,0,400,600,250.0,5,E20ES,97,train
127.35104560852051,5,2,1,3,0,4,E+,1,1,2,400,600,250.0,1,E20ES,98,train
127.26020812988281,5,2,1,3,0,4,E+,1,5,0,400,600,250.0,5,E20ES,99,train
127.31599807739258,5,2,1,3,0,4,E+,1,5,0,400,600,250.0,5,E20ES,100,train
159.15489196777344,5,2,1,3,0,4,E+,1,1,2,400,600,250.0,1,E20ES,101,train
207.26299285888672,5,2,1,3,0,4,E+,1,1,2,400,600,250.0,1,E20ES,102,train
303.24411392211914,5,2,1,3,0,4,E+,1,4,5,400,600,250.0,4,E20ES,103,train
159.2729091644287,5,2,1,3,0,4,E+,1,1,2,400,600,250.0,1,E20ES,104,train
127.46500968933105,5,2,1,3,0,4,E+,1,0,4,400,600,250.0,0,E20ES,105,train
271.3298797607422,5,2,1,3,0,4,E+,1,5,0,400,600,250.0,5,E20ES,106,train
239.2711639404297,5,2,1,3,0,4,E+,1,0,4,400,600,250.0,0,E20ES,107,train
207.2620391845703,5,2,1,3,0,4,E+,1,5,0,400,600,250.0,5,E20ES,108,train
159.27791595458984,5,2,1,3,0,4,E+,1,4,5,400,600,250.0,4,E20ES,109,train
319.378137588501,5,2,1,3,0,4,E+,1,3,3,400,600,250.0,3,E20ES,110,train
271.32415771484375,5,2,1,3,0,4,E+,1,4,5,400,600,250.0,4,E20ES,111,train
94.9859619140625,5,2,1,3,0,4,E+,0,5,0,400,600,250.0,4,E20ES,112,train
223.21796417236328,5,2,1,3,0,4,E+,1,0,4,400,600,250.0,0,E20ES,113,train
159.27577018737793,5,2,1,3,0,4,E+,1,0,4,400,600,250.0,0,E20ES,114,train
31.34298324584961,5,2,1,3,0,4,E+,1,0,4,400,600,250.0,0,E20ES,115,train
495.2261447906494,5,2,1,3,0,4,E+,1,2,1,400,600,250.0,2,E20ES,116,train
879.3861865997314,5,2,1,3,0,4,E+,1,5,0,400,600,250.0,5,E20ES,117,train
623.3189105987549,5,2,1,3,0,4,E+,1,2,1,400,600,250.0,2,E20ES,118,train
207.23414421081543,5,2,1,3,0,4,E+,1,5,0,400,600,250.0,5,E20ES,119,train
158.84995460510254,5,2,1,3,0,4,E+,1,5,0,400,600,250.0,5,E20ES,120,train
191.24984741210938,5,2,1,3,0,4,E+,1,4,5,400,600,250.0,4,E20ES,121,train
239.29595947265625,5,2,1,3,0,4,E+,1,3,3,400,600,250.0,3,E20ES,122,train
351.29284858703613,5,2,1,3,0,4,E+,1,1,2,400,600,250.0,1,E20ES,123,train
191.21789932250977,5,2,1,3,0,4,E+,1,5,0,400,600,250.0,5,E20ES,124,train
0.052928924560546875,5,2,1,3,0,4,E+,1,4,5,400,600,250.0,4,E20ES,125,train
143.2490348815918,5,2,1,3,0,4,E+,1,0,4,400,600,250.0,0,E20ES,126,train
271.20208740234375,5,2,1,3,0,4,E+,1,4,5,400,600,250.0,4,E20ES,127,train
175.34589767456055,5,2,1,3,0,4,E+,1,5,0,400,600,250.0,5,E20ES,128,train
207.28397369384766,5,2,1,3,0,4,E+,1,0,4,400,600,250.0,0,E20ES,129,train
255.20086288452148,5,2,1,3,0,4,E+,1,4,5,400,600,250.0,4,E20ES,130,train
191.15805625915527,5,2,1,3,0,4,E+,1,5,0,400,600,250.0,5,E20ES,131,train
223.23989868164062,5,2,1,3,0,4,E+,1,0,4,400,600,250.0,0,E20ES,132,train
207.2460651397705,5,2,1,3,0,4,E+,1,4,5,400,600,250.0,4,E20ES,133,train
431.26893043518066,5,2,1,3,0,4,E+,1,2,1,400,600,250.0,2,E20ES,134,train
223.189115524292,5,2,1,3,0,4,E+,1,5,0,400,600,250.0,5,E20ES,135,train
127.29787826538086,5,2,1,3,0,4,E+,1,0,4,400,600,250.0,0,E20ES,136,train
271.2068557739258,5,2,1,3,0,4,E+,1,2,1,400,600,250.0,2,E20ES,137,train
127.33912467956543,5,2,1,3,0,4,E+,1,0,4,400,600,250.0,0,E20ES,138,train
271.3620662689209,5,2,1,3,0,4,E+,0,3,3,400,600,250.0,2,E20ES,139,train
703.4080028533936,5,2,1,3,0,4,E+,1,4,5,400,600,250.0,4,E20ES,140,train
159.27696228027344,5,2,1,3,0,4,E+,1,3,3,400,600,250.0,3,E20ES,141,train
175.19092559814453,5,2,1,3,0,4,E+,1,3,3,400,600,250.0,3,E20ES,142,train
127.35891342163086,5,2,1,3,0,4,E+,1,3,3,400,600,250.0,3,E20ES,143,train
927.3450374603271,5,2,1,3,0,4,E+,1,5,0,400,600,250.0,5,E20ES,144,train
287.1968746185303,5,2,1,3,0,4,E+,1,3,3,400,600,250.0,3,E20ES,145,train
1039.5851135253906,5,2,1,3,0,4,E+,1,3,3,400,600,250.0,3,E20ES,146,train
447.50499725341797,5,2,1,3,0,4,E+,1,0,4,400,600,250.0,0,E20ES,147,train
399.2919921875,5,2,1,3,0,4,E+,1,5,0,400,600,250.0,5,E20ES,148,train
719.3260192871094,5,2,1,3,0,4,E+,1,3,3,400,600,250.0,3,E20ES,149,train
159.8501205444336,5,2,1,3,0,4,E+,1,3,3,400,600,250.0,3,E20ES,150,train
319.2770481109619,5,2,1,3,0,4,E+,1,5,0,400,600,250.0,5,E20ES,151,train
399.25289154052734,5,2,1,3,0,4,E+,1,1,2,400,600,250.0,1,E20ES,152,train
479.3071746826172,5,2,1,3,0,4,E+,1,4,5,400,600,250.0,4,E20ES,153,train
511.2130641937256,5,2,1,3,0,4,E+,1,3,3,400,600,250.0,3,E20ES,154,train
175.29988288879395,5,2,1,3,0,4,E+,0,1,2,400,600,250.0,0,E20ES,155,train
335.3250026702881,5,2,1,3,0,4,E+,1,4,5,400,600,250.0,4,E20ES,156,train
319.303035736084,5,2,1,3,0,4,E+,1,0,4,400,600,250.0,0,E20ES,157,train
239.40181732177734,5,2,1,3,0,4,E+,1,5,0,400,600,250.0,5,E20ES,158,train
383.17298889160156,5,2,1,3,0,4,E+,1,2,1,400,600,250.0,2,E20ES,159,train
191.1938190460205,5,2,1,3,0,4,E+,1,0,4,400,600,250.0,0,E20ES,160,train
207.46088027954102,5,2,1,3,0,4,E+,1,1,2,400,600,250.0,1,E20ES,161,train
207.80301094055176,5,2,1,3,0,4,E+,1,0,4,400,600,250.0,0,E20ES,162,train
95.78990936279297,5,2,1,3,0,4,E+,1,0,4,400,600,250.0,0,E20ES,163,train
255.80620765686035,5,2,1,3,0,4,E+,1,2,1,400,600,250.0,2,E20ES,164,train
223.76203536987305,5,2,1,3,0,4,E+,1,4,5,400,600,250.0,4,E20ES,165,train
191.82085990905762,5,2,1,3,0,4,E+,1,4,5,400,600,250.0,4,E20ES,166,train
79.82587814331055,5,2,1,3,0,4,E+,1,4,5,400,600,250.0,4,E20ES,167,train
111.86790466308594,5,2,1,3,0,4,E+,1,5,0,400,600,250.0,5,E20ES,168,train
495.70703506469727,5,2,1,3,0,4,E+,1,2,1,400,600,250.0,2,E20ES,169,train
287.86396980285645,5,2,1,3,0,4,E+,1,1,2,400,600,250.0,1,E20ES,170,train
335.7970714569092,5,2,1,3,0,4,E+,1,5,0,400,600,250.0,5,E20ES,171,train
415.9209728240967,5,2,1,3,0,4,E+,1,2,1,400,600,250.0,2,E20ES,172,train
223.40822219848633,5,2,1,3,0,4,E+,1,2,1,400,600,250.0,2,E20ES,173,train
0.05507469177246094,5,2,1,3,0,4,E+,1,2,1,400,600,250.0,2,E20ES,174,train
191.37120246887207,5,2,1,3,0,4,E+,1,5,0,400,600,250.0,5,E20ES,175,train
399.22308921813965,5,2,1,3,0,4,E+,1,0,4,400,600,250.0,0,E20ES,176,train
191.24913215637207,5,2,1,3,0,4,E+,1,1,2,400,600,250.0,1,E20ES,177,train
175.23694038391113,5,2,1,3,0,4,E+,1,5,0,400,600,250.0,5,E20ES,178,train
559.2889785766602,5,2,1,3,0,4,E+,1,0,4,400,600,250.0,0,E20ES,179,train
447.2191333770752,5,2,1,3,0,4,E+,1,4,5,400,600,250.0,4,E20ES,180,train
463.21582794189453,5,2,1,3,0,4,E+,1,3,3,400,600,250.0,3,E20ES,181,train
303.29012870788574,5,2,1,3,0,4,E+,1,2,1,400,600,250.0,2,E20ES,182,train
175.28510093688965,5,2,1,3,0,4,E+,1,1,2,400,600,250.0,1,E20ES,183,train
431.2300682067871,5,2,1,3,0,4,E+,1,2,1,400,600,250.0,2,E20ES,184,train
223.18482398986816,5,2,1,3,0,4,E+,1,1,2,400,600,250.0,1,E20ES,185,train
143.3098316192627,5,2,1,3,0,4,E+,1,1,2,400,600,250.0,1,E20ES,186,train
319.2429542541504,5,2,1,3,0,4,E+,1,3,3,400,600,250.0,3,E20ES,187,train
270.87903022766113,5,2,1,3,0,4,E+,1,5,0,400,600,250.0,5,E20ES,188,train
319.382905960083,5,2,1,3,0,4,E+,1,3,3,400,600,250.0,3,E20ES,189,train
174.99303817749023,5,2,1,3,0,4,E+,1,5,0,400,600,250.0,5,E20ES,190,train
367.20991134643555,5,2,1,3,0,4,E+,1,3,3,400,600,250.0,3,E20ES,191,train
447.2360610961914,5,2,1,3,0,4,E+,1,1,2,400,600,250.0,1,E20ES,192,train
207.28397369384766,5,2,1,3,0,4,E+,1,0,4,400,600,250.0,0,E20ES,193,train
255.28597831726074,5,2,1,3,0,4,E+,1,3,3,400,600,250.0,3,E20ES,194,train
351.32479667663574,5,2,1,3,0,4,E+,1,4,5,400,600,250.0,4,E20ES,195,train
159.29079055786133,5,2,1,3,0,4,E+,1,3,3,400,600,250.0,3,E20ES,196,train
175.31895637512207,5,2,1,3,0,4,E+,1,0,4,400,600,250.0,0,E20ES,197,train
335.2069854736328,5,2,1,3,0,4,E+,1,3,3,400,600,250.0,3,E20ES,198,train
143.28908920288086,5,2,1,3,0,4,E+,1,0,4,400,600,250.0,0,E20ES,199,train
271.2221145629883,5,2,1,3,0,4,E+,1,3,3,400,600,250.0,3,E20ES,200,train
239.20798301696777,5,2,1,3,0,4,E+,1,5,0,400,600,250.0,5,E20ES,201,train
543.2288646697998,5,2,1,3,0,4,E+,1,2,1,400,600,250.0,2,E20ES,202,train
287.3208522796631,5,2,1,3,0,4,E+,1,5,0,400,600,250.0,5,E20ES,203,train
431.22410774230957,5,2,1,3,0,4,E+,1,0,4,400,600,250.0,0,E20ES,204,train
351.0169982910156,5,2,1,3,0,4,E+,1,4,5,400,600,250.0,4,E20ES,205,train
303.2689094543457,5,2,1,3,0,4,E+,1,1,2,400,600,250.0,1,E20ES,206,train
159.2240333557129,5,2,1,3,0,4,E+,1,5,0,400,600,250.0,5,E20ES,207,train
607.245922088623,5,2,1,3,0,4,E+,1,2,1,400,600,250.0,2,E20ES,208,train
639.5370960235596,5,2,1,3,0,4,E+,1,5,0,400,600,250.0,5,E20ES,209,train
719.188928604126,5,2,1,3,0,4,E+,1,2,1,400,600,250.0,2,E20ES,210,train
335.35194396972656,5,2,1,3,0,4,E+,1,0,4,400,600,250.0,0,E20ES,211,train
383.2569122314453,5,2,1,3,0,4,E+,1,2,1,400,600,250.0,2,E20ES,212,train
287.24002838134766,5,2,1,3,0,4,E+,1,3,3,400,600,250.0,3,E20ES,213,train
159.34991836547852,5,2,1,3,0,4,E+,1,0,4,400,600,250.0,0,E20ES,214,train
271.2740898132324,5,2,1,3,0,4,E+,0,4,5,400,600,250.0,3,E20ES,215,train
863.5718822479248,5,2,1,3,0,4,E+,1,4,5,400,600,250.0,4,E20ES,216,train
591.2818908691406,5,2,1,3,0,4,E+,1,0,4,400,600,250.0,0,E20ES,217,train
911.4589691162109,5,2,1,3,0,4,E+,1,2,1,400,600,250.0,2,E20ES,218,train
446.93922996520996,5,2,1,3,0,4,E+,1,5,0,400,600,250.0,5,E20ES,219,train
303.19905281066895,5,2,1,3,0,4,E+,1,4,5,400,600,250.0,4,E20ES,220,train
479.19487953186035,5,2,1,3,0,4,E+,1,4,5,400,600,250.0,4,E20ES,221,train
1359.3628406524658,5,2,1,3,0,4,E+,1,5,0,400,600,250.0,5,E20ES,222,train
223.2379913330078,5,2,1,3,0,4,E+,1,4,5,400,600,250.0,4,E20ES,223,train
175.28700828552246,5,2,1,3,0,4,E+,1,4,5,400,600,250.0,4,E20ES,224,train
159.55305099487305,5,2,1,3,0,4,E+,1,3,3,400,600,250.0,3,E20ES,225,train
159.1949462890625,5,2,1,3,0,4,E+,1,3,3,400,600,250.0,3,E20ES,226,train
223.32096099853516,5,2,1,3,0,4,E+,1,1,2,400,600,250.0,1,E20ES,227,train
287.28604316711426,5,2,1,3,0,4,E+,1,5,0,400,600,250.0,5,E20ES,228,train
239.29810523986816,5,2,1,3,0,4,E+,1,0,4,400,600,250.0,0,E20ES,229,train
399.3840217590332,5,2,1,3,0,4,E+,1,1,2,400,600,250.0,1,E20ES,230,train
95.2301025390625,5,2,1,3,0,4,E+,1,1,2,400,600,250.0,1,E20ES,231,train
335.2959156036377,5,2,1,3,0,4,E+,1,5,0,400,600,250.0,5,E20ES,232,train
223.1130599975586,5,2,1,3,0,4,E+,1,0,4,400,600,250.0,0,E20ES,233,train
95.32308578491211,5,2,1,3,0,4,E+,0,3,3,400,600,250.0,1,E20ES,234,train
479.3059825897217,5,2,1,3,0,4,E+,1,4,5,400,600,250.0,4,E20ES,235,train
319.2899227142334,5,2,1,3,0,4,E+,1,4,5,400,600,250.0,4,E20ES,236,train
399.3701934814453,5,2,1,3,0,4,E+,1,1,2,400,600,250.0,1,E20ES,237,train
254.84299659729004,5,2,1,3,0,4,E+,1,0,4,400,600,250.0,0,E20ES,238,train
271.2562084197998,5,2,1,3,0,4,E+,0,0,4,400,600,250.0,2,E20ES,239,train
495.24593353271484,5,2,1,3,0,4,E+,1,4,5,400,600,250.0,4,E20ES,240,train
495.3789710998535,5,2,1,3,0,4,E+,1,2,1,400,600,250.0,2,E20ES,241,train
191.3299560546875,5,2,1,3,0,4,E+,1,5,0,400,600,250.0,5,E20ES,242,train
239.34102058410645,5,2,1,3,0,4,E+,1,5,0,400,600,250.0,5,E20ES,243,train
319.22221183776855,5,2,1,3,0,4,E+,1,1,2,400,600,250.0,1,E20ES,244,train
191.27297401428223,5,2,1,3,0,4,E+,1,3,3,400,600,250.0,3,E20ES,245,train
591.2117958068848,5,2,1,3,0,4,E+,1,2,1,400,600,250.0,2,E20ES,246,train
127.22611427307129,5,2,1,3,0,4,E+,1,2,1,400,600,250.0,2,E20ES,247,train
383.3010196685791,5,2,1,3,0,4,E+,1,4,5,400,600,250.0,4,E20ES,248,train
223.2980728149414,5,2,1,3,0,4,E+,1,0,4,400,600,250.0,0,E20ES,249,train
3232.776880264282,5,2,1,3,0,4,E+,1,0,4,0,1000,250.0,0,E20ES,250,test
816.4839744567871,5,2,1,3,0,4,E+,1,3,3,0,1000,250.0,3,E20ES,251,test
736.5169525146484,5,2,1,3,0,4,E+,1,3,3,0,1000,250.0,3,E20ES,252,test
1104.848861694336,5,2,1,3,0,4,E+,1,5,0,0,1000,250.0,5,E20ES,253,test
640.5460834503174,5,2,1,3,0,4,E+,1,1,2,0,1000,250.0,1,E20ES,254,test
704.4191360473633,5,2,1,3,0,4,E+,1,0,4,0,1000,250.0,0,E20ES,255,test
656.4691066741943,5,2,1,3,0,4,E+,1,5,0,0,1000,250.0,5,E20ES,256,test
624.4299411773682,5,2,1,3,0,4,E+,1,3,3,0,1000,250.0,3,E20ES,257,test
2208.523988723755,5,2,1,3,0,4,E+,0,5,0,0,1000,250.0,0,E20ES,258,test
768.6100006103516,5,2,1,3,0,4,E+,1,0,4,0,1000,250.0,0,E20ES,259,test
736.5410327911377,5,2,1,3,0,4,E+,1,4,5,0,1000,250.0,4,E20ES,260,test
704.5199871063232,5,2,1,3,0,4,E+,1,4,5,0,1000,250.0,4,E20ES,261,test
784.4178676605225,5,2,1,3,0,4,E+,1,1,2,0,1000,250.0,1,E20ES,262,test
944.5569515228271,5,2,1,3,0,4,E+,1,4,5,0,1000,250.0,4,E20ES,263,test
736.4499568939209,5,2,1,3,0,4,E+,1,0,4,0,1000,250.0,0,E20ES,264,test
688.4660720825195,5,2,1,3,0,4,E+,1,0,4,0,1000,250.0,0,E20ES,265,test
768.463134765625,5,2,1,3,0,4,E+,1,5,0,0,1000,250.0,5,E20ES,266,test
960.5228900909424,5,2,1,3,0,4,E+,1,2,1,0,1000,250.0,2,E20ES,267,test
672.3999977111816,5,2,1,3,0,4,E+,1,2,1,0,1000,250.0,2,E20ES,268,test
720.5209732055664,5,2,1,3,0,4,E+,1,3,3,0,1000,250.0,3,E20ES,269,test
624.4690418243408,5,2,1,3,0,4,E+,1,0,4,0,1000,250.0,0,E20ES,270,test
704.6389579772949,5,2,1,3,0,4,E+,1,4,5,0,1000,250.0,4,E20ES,271,test
656.196117401123,5,2,1,3,0,4,E+,1,1,2,0,1000,250.0,1,E20ES,272,test
528.6219120025635,5,2,1,3,0,4,E+,1,2,1,0,1000,250.0,2,E20ES,273,test
656.4979553222656,5,2,1,3,0,4,E+,1,2,1,0,1000,250.0,2,E20ES,274,test
704.4689655303955,5,2,1,3,0,4,E+,1,4,5,0,1000,250.0,4,E20ES,275,test
624.6418952941895,5,2,1,3,0,4,E+,1,3,3,0,1000,250.0,3,E20ES,276,test
640.4991149902344,5,2,1,3,0,4,E+,1,4,5,0,1000,250.0,4,E20ES,277,test
608.3929538726807,5,2,1,3,0,4,E+,0,3,3,0,1000,250.0,4,E20ES,278,test
832.6239585876465,5,2,1,3,0,4,E+,1,4,5,0,1000,250.0,4,E20ES,279,test
672.2679138183594,5,2,1,3,0,4,E+,1,5,0,0,1000,250.0,5,E20ES,280,test
656.65602684021,5,2,1,3,0,4,E+,1,2,1,0,1000,250.0,2,E20ES,281,test
672.8799343109131,5,2,1,3,0,4,E+,1,5,0,0,1000,250.0,5,E20ES,282,test
672.544002532959,5,2,1,3,0,4,E+,1,2,1,0,1000,250.0,2,E20ES,283,test
496.59180641174316,5,2,1,3,0,4,E+,1,2,1,0,1000,250.0,2,E20ES,284,test
464.43891525268555,5,2,1,3,0,4,E+,1,2,1,0,1000,250.0,2,E20ES,285,test
608.6251735687256,5,2,1,3,0,4,E+,1,0,4,0,1000,250.0,0,E20ES,286,test
560.434103012085,5,2,1,3,0,4,E+,1,0,4,0,1000,250.0,0,E20ES,287,test
704.6291828155518,5,2,1,3,0,4,E+,1,3,3,0,1000,250.0,3,E20ES,288,test
560.5759620666504,5,2,1,3,0,4,E+,1,3,3,0,1000,250.0,3,E20ES,289,test
464.6317958831787,5,2,1,3,0,4,E+,1,3,3,0,1000,250.0,3,E20ES,290,test
608.8099479675293,5,2,1,3,0,4,E+,1,2,1,0,1000,250.0,2,E20ES,291,test
576.5361785888672,5,2,1,3,0,4,E+,1,2,1,0,1000,250.0,2,E20ES,292,test
1056.6620826721191,5,2,1,3,0,4,E+,1,0,4,0,1000,250.0,0,E20ES,293,test
768.2690620422363,5,2,1,3,0,4,E+,1,4,5,0,1000,250.0,4,E20ES,294,test
656.4970016479492,5,2,1,3,0,4,E+,0,3,3,0,1000,250.0,4,E20ES,295,test
832.5099945068359,5,2,1,3,0,4,E+,1,0,4,0,1000,250.0,0,E20ES,296,test
720.5421924591064,5,2,1,3,0,4,E+,1,1,2,0,1000,250.0,1,E20ES,297,test
1360.5749607086182,5,2,1,3,0,4,E+,1,3,3,0,1000,250.0,3,E20ES,298,test
944.7860717773438,5,2,1,3,0,4,E+,1,3,3,0,1000,250.0,3,E20ES,299,test
720.632791519165,5,2,1,3,0,4,E+,1,0,4,0,1000,250.0,0,E20ES,300,test
592.7979946136475,5,2,1,3,0,4,E+,1,0,4,0,1000,250.0,0,E20ES,301,test
704.448938369751,5,2,1,3,0,4,E+,1,3,3,0,1000,250.0,3,E20ES,302,test
752.6400089263916,5,2,1,3,0,4,E+,1,1,2,0,1000,250.0,1,E20ES,303,test
672.8630065917969,5,2,1,3,0,4,E+,1,1,2,0,1000,250.0,1,E20ES,304,test
704.4939994812012,5,2,1,3,0,4,E+,1,3,3,0,1000,250.0,3,E20ES,305,test
704.7629356384277,5,2,1,3,0,4,E+,1,4,5,0,1000,250.0,4,E20ES,306,test
864.5029067993164,5,2,1,3,0,4,E+,1,0,4,0,1000,250.0,0,E20ES,307,test
464.6420478820801,5,2,1,3,0,4,E+,1,0,4,0,1000,250.0,0,E20ES,308,test
544.4681644439697,5,2,1,3,0,4,E+,1,1,2,0,1000,250.0,1,E20ES,309,test
528.4287929534912,5,2,1,3,0,4,E+,1,4,5,0,1000,250.0,4,E20ES,310,test
560.4591369628906,5,2,1,3,0,4,E+,1,1,2,0,1000,250.0,1,E20ES,311,test
720.4689979553223,5,2,1,3,0,4,E+,1,2,1,0,1000,250.0,2,E20ES,312,test
608.2091331481934,5,2,1,3,0,4,E+,1,0,4,0,1000,250.0,0,E20ES,313,test
896.449089050293,5,2,1,3,0,4,E+,1,3,3,0,1000,250.0,3,E20ES,314,test
592.6508903503418,5,2,1,3,0,4,E+,1,1,2,0,1000,250.0,1,E20ES,315,test
592.4060344696045,5,2,1,3,0,4,E+,1,0,4,0,1000,250.0,0,E20ES,316,test
864.4568920135498,5,2,1,3,0,4,E+,1,2,1,0,1000,250.0,2,E20ES,317,test
800.5340099334717,5,2,1,3,0,4,E+,1,3,3,0,1000,250.0,3,E20ES,318,test
640.5050754547119,5,2,1,3,0,4,E+,1,2,1,0,1000,250.0,2,E20ES,319,test
559.9179267883301,5,2,1,3,0,4,E+,1,1,2,0,1000,250.0,1,E20ES,320,test
960.474967956543,5,2,1,3,0,4,E+,1,4,5,0,1000,250.0,4,E20ES,321,test
544.7587966918945,5,2,1,3,0,4,E+,1,5,0,0,1000,250.0,5,E20ES,322,test
560.4538917541504,5,2,1,3,0,4,E+,1,2,1,0,1000,250.0,2,E20ES,323,test
672.6818084716797,5,2,1,3,0,4,E+,1,3,3,0,1000,250.0,3,E20ES,324,test
656.4731597900391,5,2,1,3,0,4,E+,1,3,3,0,1000,250.0,3,E20ES,325,test
592.5359725952148,5,2,1,3,0,4,E+,1,3,3,0,1000,250.0,3,E20ES,326,test
592.426061630249,5,2,1,3,0,4,E+,1,2,1,0,1000,250.0,2,E20ES,327,test
544.5530414581299,5,2,1,3,0,4,E+,1,1,2,0,1000,250.0,1,E20ES,328,test
592.5171375274658,5,2,1,3,0,4,E+,1,3,3,0,1000,250.0,3,E20ES,329,test
640.625,5,2,1,3,0,4,E+,1,0,4,0,1000,250.0,0,E20ES,330,test
592.4971103668213,5,2,1,3,0,4,E+,1,2,1,0,1000,250.0,2,E20ES,331,test
560.215950012207,5,2,1,3,0,4,E+,1,0,4,0,1000,250.0,0,E20ES,332,test
720.9692001342773,5,2,1,3,0,4,E+,1,4,5,0,1000,250.0,4,E20ES,333,test
624.8781681060791,5,2,1,3,0,4,E+,1,3,3,0,1000,250.0,3,E20ES,334,test
1696.9830989837646,5,2,1,3,0,4,E+,1,0,4,0,1000,250.0,0,E20ES,335,test
624.9570846557617,5,2,1,3,0,4,E+,1,5,0,0,1000,250.0,5,E20ES,336,test
657.1109294891357,5,2,1,3,0,4,E+,1,1,2,0,1000,250.0,1,E20ES,337,test
561.115026473999,5,2,1,3,0,4,E+,1,0,4,0,1000,250.0,0,E20ES,338,test
624.640941619873,5,2,1,3,0,4,E+,1,1,2,0,1000,250.0,1,E20ES,339,test
464.9190902709961,5,2,1,3,0,4,E+,1,1,2,0,1000,250.0,1,E20ES,340,test
640.3980255126953,5,2,1,3,0,4,E+,1,5,0,0,1000,250.0,5,E20ES,341,test
560.9300136566162,5,2,1,3,0,4,E+,1,3,3,0,1000,250.0,3,E20ES,342,test
528.5110473632812,5,2,1,3,0,4,E+,1,4,5,0,1000,250.0,4,E20ES,343,test
577.099084854126,5,2,1,3,0,4,E+,1,1,2,0,1000,250.0,1,E20ES,344,test
624.9279975891113,5,2,1,3,0,4,E+,1,3,3,0,1000,250.0,3,E20ES,345,test
976.9771099090576,5,2,1,3,0,4,E+,1,1,2,0,1000,250.0,1,E20ES,346,test
753.1299591064453,5,2,1,3,0,4,E+,1,4,5,0,1000,250.0,4,E20ES,347,test
640.9170627593994,5,2,1,3,0,4,E+,1,0,4,0,1000,250.0,0,E20ES,348,test
816.9059753417969,5,2,1,3,0,4,E+,1,1,2,0,1000,250.0,1,E20ES,349,test
592.7739143371582,5,2,1,3,0,4,E+,1,3,3,0,1000,250.0,3,E20ES,350,test
544.874906539917,5,2,1,3,0,4,E+,1,4,5,0,1000,250.0,4,E20ES,351,test
585.4709148406982,5,2,1,3,0,4,E+,0,3,3,0,1000,250.0,4,E20ES,352,test
720.8778858184814,5,2,1,3,0,4,E+,1,0,4,0,1000,250.0,0,E20ES,353,test
592.4859046936035,5,2,1,3,0,4,E+,1,0,4,0,1000,250.0,0,E20ES,354,test
800.9500503540039,5,2,1,3,0,4,E+,1,2,1,0,1000,250.0,2,E20ES,355,test
689.1019344329834,5,2,1,3,0,4,E+,1,3,3,0,1000,250.0,3,E20ES,356,test
640.9940719604492,5,2,1,3,0,4,E+,1,0,4,0,1000,250.0,0,E20ES,357,test
704.9539089202881,5,2,1,3,0,4,E+,1,2,1,0,1000,250.0,2,E20ES,358,test
704.6630382537842,5,2,1,3,0,4,E+,1,2,1,0,1000,250.0,2,E20ES,359,test
720.9498882293701,5,2,1,3,0,4,E+,1,5,0,0,1000,250.0,5,E20ES,360,test
544.0280437469482,5,2,1,3,0,4,E+,1,4,5,0,1000,250.0,4,E20ES,361,test
624.4590282440186,5,2,1,3,0,4,E+,1,2,1,0,1000,250.0,2,E20ES,362,test
1312.8528594970703,5,2,1,3,0,4,E+,1,4,5,0,1000,250.0,4,E20ES,363,test
624.9361038208008,5,2,1,3,0,4,E+,1,2,1,0,1000,250.0,2,E20ES,364,test
720.9889888763428,5,2,1,3,0,4,E+,1,0,4,0,1000,250.0,0,E20ES,365,test
656.9149494171143,5,2,1,3,0,4,E+,1,3,3,0,1000,250.0,3,E20ES,366,test
624.9668598175049,5,2,1,3,0,4,E+,1,0,4,0,1000,250.0,0,E20ES,367,test
640.9881114959717,5,2,1,3,0,4,E+,1,5,0,0,1000,250.0,5,E20ES,368,test
608.8690757751465,5,2,1,3,0,4,E+,1,3,3,0,1000,250.0,3,E20ES,369,test
560.9941482543945,5,2,1,3,0,4,E+,1,0,4,0,1000,250.0,0,E20ES,370,test
544.1279411315918,5,2,1,3,0,4,E+,1,0,4,0,1000,250.0,0,E20ES,371,test
624.8819828033447,5,2,1,3,0,4,E+,1,5,0,0,1000,250.0,5,E20ES,372,test
945.0008869171143,5,2,1,3,0,4,E+,1,2,1,0,1000,250.0,2,E20ES,373,test
544.9140071868896,5,2,1,3,0,4,E+,1,3,3,0,1000,250.0,3,E20ES,374,test
624.957799911499,5,2,1,3,0,4,E+,1,1,2,0,1000,250.0,1,E20ES,375,test
720.5719947814941,5,2,1,3,0,4,E+,1,5,0,0,1000,250.0,5,E20ES,376,test
641.0269737243652,5,2,1,3,0,4,E+,1,5,0,0,1000,250.0,5,E20ES,377,test
721.10915184021,5,2,1,3,0,4,E+,1,4,5,0,1000,250.0,4,E20ES,378,test
801.016092300415,5,2,1,3,0,4,E+,1,2,1,0,1000,250.0,2,E20ES,379,test
656.9280624389648,5,2,1,3,0,4,E+,1,4,5,0,1000,250.0,4,E20ES,380,test
673.0082035064697,5,2,1,3,0,4,E+,1,2,1,0,1000,250.0,2,E20ES,381,test
592.357873916626,5,2,1,3,0,4,E+,1,5,0,0,1000,250.0,5,E20ES,382,test
608.9069843292236,5,2,1,3,0,4,E+,1,1,2,0,1000,250.0,1,E20ES,383,test
593.0101871490479,5,2,1,3,0,4,E+,1,5,0,0,1000,250.0,5,E20ES,384,test
704.8561573028564,5,2,1,3,0,4,E+,1,1,2,0,1000,250.0,1,E20ES,385,test
576.927900314331,5,2,1,3,0,4,E+,1,2,1,0,1000,250.0,2,E20ES,386,test
800.9111881256104,5,2,1,3,0,4,E+,1,5,0,0,1000,250.0,5,E20ES,387,test
560.9080791473389,5,2,1,3,0,4,E+,1,3,3,0,1000,250.0,3,E20ES,388,test
736.9968891143799,5,2,1,3,0,4,E+,1,2,1,0,1000,250.0,2,E20ES,389,test
640.9478187561035,5,2,1,3,0,4,E+,1,1,2,0,1000,250.0,1,E20ES,390,test
624.8610019683838,5,2,1,3,0,4,E+,1,3,3,0,1000,250.0,3,E20ES,391,test
849.0262031555176,5,2,1,3,0,4,E+,1,3,3,0,1000,250.0,3,E20ES,392,test
1024.9269008636475,5,2,1,3,0,4,E+,1,3,3,0,1000,250.0,3,E20ES,393,test
816.9429302215576,5,2,1,3,0,4,E+,1,4,5,0,1000,250.0,4,E20ES,394,test
720.9599018096924,5,2,1,3,0,4,E+,1,0,4,0,1000,250.0,0,E20ES,395,test
624.9759197235107,5,2,1,3,0,4,E+,1,2,1,0,1000,250.0,2,E20ES,396,test
624.9117851257324,5,2,1,3,0,4,E+,1,5,0,0,1000,250.0,5,E20ES,397,test
609.1141700744629,5,2,1,3,0,4,E+,1,3,3,0,1000,250.0,3,E20ES,398,test
544.8629856109619,5,2,1,3,0,4,E+,1,1,2,0,1000,250.0,1,E20ES,399,test
1104.788064956665,5,2,1,3,0,4,E+,1,2,1,0,1000,250.0,2,E20ES,400,test
1072.93701171875,5,2,1,3,0,4,E+,1,0,4,0,1000,250.0,0,E20ES,401,test
704.8490047454834,5,2,1,3,0,4,E+,1,1,2,0,1000,250.0,1,E20ES,402,test
848.9019870758057,5,2,1,3,0,4,E+,1,3,3,0,1000,250.0,3,E20ES,403,test
848.9060401916504,5,2,1,3,0,4,E+,1,0,4,0,1000,250.0,0,E20ES,404,test
1137.040138244629,5,2,1,3,0,4,E+,1,5,0,0,1000,250.0,5,E20ES,405,test
1265.0339603424072,5,2,1,3,0,4,E+,1,4,5,0,1000,250.0,4,E20ES,406,test
1104.449987411499,5,2,1,3,0,4,E+,1,5,0,0,1000,250.0,5,E20ES,407,test
817.0180320739746,5,2,1,3,0,4,E+,1,0,4,0,1000,250.0,0,E20ES,408,test
928.9770126342773,5,2,1,3,0,4,E+,1,4,5,0,1000,250.0,4,E20ES,409,test
577.1908760070801,5,2,1,3,0,4,E+,1,0,4,0,1000,250.0,0,E20ES,410,test
592.9460525512695,5,2,1,3,0,4,E+,1,1,2,0,1000,250.0,1,E20ES,411,test
592.7510261535645,5,2,1,3,0,4,E+,1,4,5,0,1000,250.0,4,E20ES,412,test
688.9150142669678,5,2,1,3,0,4,E+,1,0,4,0,1000,250.0,0,E20ES,413,test
592.7450656890869,5,2,1,3,0,4,E+,1,0,4,0,1000,250.0,0,E20ES,414,test
544.4619655609131,5,2,1,3,0,4,E+,1,5,0,0,1000,250.0,5,E20ES,415,test
576.4510631561279,5,2,1,3,0,4,E+,1,5,0,0,1000,250.0,5,E20ES,416,test
1264.4739151000977,5,2,1,3,0,4,E+,1,2,1,0,1000,250.0,2,E20ES,417,test
975.6488800048828,5,2,1,3,0,4,E+,1,0,4,0,1000,250.0,0,E20ES,418,test
928.800106048584,5,2,1,3,0,4,E+,1,3,3,0,1000,250.0,3,E20ES,419,test
560.8460903167725,5,2,1,3,0,4,E+,1,3,3,0,1000,250.0,3,E20ES,420,test
896.4998722076416,5,2,1,3,0,4,E+,1,4,5,0,1000,250.0,4,E20ES,421,test
576.6420364379883,5,2,1,3,0,4,E+,1,3,3,0,1000,250.0,3,E20ES,422,test
576.5161514282227,5,2,1,3,0,4,E+,1,0,4,0,1000,250.0,0,E20ES,423,test
560.6470108032227,5,2,1,3,0,4,E+,1,3,3,0,1000,250.0,3,E20ES,424,test
592.1549797058105,5,2,1,3,0,4,E+,0,2,1,0,1000,250.0,1,E20ES,425,test
896.7158794403076,5,2,1,3,0,4,E+,1,4,5,0,1000,250.0,4,E20ES,426,test
608.6211204528809,5,2,1,3,0,4,E+,1,5,0,0,1000,250.0,5,E20ES,427,test
793.3599948883057,5,2,1,3,0,4,E+,1,0,4,0,1000,250.0,0,E20ES,428,test
736.8850708007812,5,2,1,3,0,4,E+,0,4,5,0,1000,250.0,3,E20ES,429,test
849.0691184997559,5,2,1,3,0,4,E+,1,2,1,0,1000,250.0,2,E20ES,430,test
672.766923904419,5,2,1,3,0,4,E+,1,1,2,0,1000,250.0,1,E20ES,431,test
1072.9539394378662,5,2,1,3,0,4,E+,1,0,4,0,1000,250.0,0,E20ES,432,test
624.8810291290283,5,2,1,3,0,4,E+,1,5,0,0,1000,250.0,5,E20ES,433,test
481.065034866333,5,2,1,3,0,4,E+,1,3,3,0,1000,250.0,3,E20ES,434,test
609.0331077575684,5,2,1,3,0,4,E+,1,2,1,0,1000,250.0,2,E20ES,435,test
576.5318870544434,5,2,1,3,0,4,E+,1,5,0,0,1000,250.0,5,E20ES,436,test
560.4300498962402,5,2,1,3,0,4,E+,1,1,2,0,1000,250.0,1,E20ES,437,test
608.4611415863037,5,2,1,3,0,4,E+,1,5,0,0,1000,250.0,5,E20ES,438,test
592.4398899078369,5,2,1,3,0,4,E+,1,4,5,0,1000,250.0,4,E20ES,439,test
576.4667987823486,5,2,1,3,0,4,E+,1,3,3,0,1000,250.0,3,E20ES,440,test
544.489860534668,5,2,1,3,0,4,E+,1,1,2,0,1000,250.0,1,E20ES,441,test
576.4420032501221,5,2,1,3,0,4,E+,1,3,3,0,1000,250.0,3,E20ES,442,test
544.5091724395752,5,2,1,3,0,4,E+,1,5,0,0,1000,250.0,5,E20ES,443,test
592.4570560455322,5,2,1,3,0,4,E+,1,0,4,0,1000,250.0,0,E20ES,444,test
560.4689121246338,5,2,1,3,0,4,E+,1,5,0,0,1000,250.0,5,E20ES,445,test
576.4310359954834,5,2,1,3,0,4,E+,1,1,2,0,1000,250.0,1,E20ES,446,test
464.4768238067627,5,2,1,3,0,4,E+,1,1,2,0,1000,250.0,1,E20ES,447,test
432.5249195098877,5,2,1,3,0,4,E+,1,1,2,0,1000,250.0,1,E20ES,448,test
960.6389999389648,5,2,1,3,0,4,E+,1,5,0,0,1000,250.0,5,E20ES,449,test
688.4629726409912,5,2,1,3,0,4,E+,0,1,2,0,1000,250.0,5,E20ES,450,test
656.4822196960449,5,2,1,3,0,4,E+,1,4,5,0,1000,250.0,4,E20ES,451,test
640.5429840087891,5,2,1,3,0,4,E+,1,2,1,0,1000,250.0,2,E20ES,452,test
672.5959777832031,5,2,1,3,0,4,E+,1,1,2,0,1000,250.0,1,E20ES,453,test
688.7669563293457,5,2,1,3,0,4,E+,1,1,2,0,1000,250.0,1,E20ES,454,test
1040.5011177062988,5,2,1,3,0,4,E+,1,2,1,0,1000,250.0,2,E20ES,455,test
672.5301742553711,5,2,1,3,0,4,E+,1,2,1,0,1000,250.0,2,E20ES,456,test
592.411994934082,5,2,1,3,0,4,E+,1,1,2,0,1000,250.0,1,E20ES,457,test
640.5458450317383,5,2,1,3,0,4,E+,1,0,4,0,1000,250.0,0,E20ES,458,test
576.6308307647705,5,2,1,3,0,4,E+,1,4,5,0,1000,250.0,4,E20ES,459,test
608.5159778594971,5,2,1,3,0,4,E+,1,1,2,0,1000,250.0,1,E20ES,460,test
528.717041015625,5,2,1,3,0,4,E+,1,4,5,0,1000,250.0,4,E20ES,461,test
592.8750038146973,5,2,1,3,0,4,E+,1,3,3,0,1000,250.0,3,E20ES,462,test
576.6351222991943,5,2,1,3,0,4,E+,1,4,5,0,1000,250.0,4,E20ES,463,test
720.9899425506592,5,2,1,3,0,4,E+,1,2,1,0,1000,250.0,2,E20ES,464,test
560.8401298522949,5,2,1,3,0,4,E+,1,2,1,0,1000,250.0,2,E20ES,465,test
800.933837890625,5,2,1,3,0,4,E+,1,3,3,0,1000,250.0,3,E20ES,466,test
1008.965015411377,5,2,1,3,0,4,E+,1,4,5,0,1000,250.0,4,E20ES,467,test
896.8241214752197,5,2,1,3,0,4,E+,1,4,5,0,1000,250.0,4,E20ES,468,test
1105.1199436187744,5,2,1,3,0,4,E+,1,2,1,0,1000,250.0,2,E20ES,469,test
625.0989437103271,5,2,1,3,0,4,E+,1,1,2,0,1000,250.0,1,E20ES,470,test
624.9990463256836,5,2,1,3,0,4,E+,1,5,0,0,1000,250.0,5,E20ES,471,test
625.1010894775391,5,2,1,3,0,4,E+,1,2,1,0,1000,250.0,2,E20ES,472,test
640.4819488525391,5,2,1,3,0,4,E+,1,4,5,0,1000,250.0,4,E20ES,473,test
624.9418258666992,5,2,1,3,0,4,E+,1,5,0,0,1000,250.0,5,E20ES,474,test
496.9000816345215,5,2,1,3,0,4,E+,1,4,5,0,1000,250.0,4,E20ES,475,test
528.5940170288086,5,2,1,3,0,4,E+,1,4,5,0,1000,250.0,4,E20ES,476,test
656.8460464477539,5,2,1,3,0,4,E+,1,3,3,0,1000,250.0,3,E20ES,477,test
1873.0130195617676,5,2,1,3,0,4,E+,1,0,4,0,1000,250.0,0,E20ES,478,test
865.0469779968262,5,2,1,3,0,4,E+,1,5,0,0,1000,250.0,5,E20ES,479,test
992.3019409179688,5,2,1,3,0,4,E+,1,4,5,0,1000,250.0,4,E20ES,480,test
1200.9990215301514,5,2,1,3,0,4,E+,1,2,1,0,1000,250.0,2,E20ES,481,test
832.9329490661621,5,2,1,3,0,4,E+,1,1,2,0,1000,250.0,1,E20ES,482,test
624.9909400939941,5,2,1,3,0,4,E+,1,4,5,0,1000,250.0,4,E20ES,483,test
752.8939247131348,5,2,1,3,0,4,E+,1,3,3,0,1000,250.0,3,E20ES,484,test
608.8778972625732,5,2,1,3,0,4,E+,1,3,3,0,1000,250.0,3,E20ES,485,test
624.690055847168,5,2,1,3,0,4,E+,1,5,0,0,1000,250.0,5,E20ES,486,test
1120.837926864624,5,2,1,3,0,4,E+,1,0,4,0,1000,250.0,0,E20ES,487,test
608.989953994751,5,2,1,3,0,4,E+,1,5,0,0,1000,250.0,5,E20ES,488,test
592.9679870605469,5,2,1,3,0,4,E+,1,5,0,0,1000,250.0,5,E20ES,489,test
608.8178157806396,5,2,1,3,0,4,E+,1,1,2,0,1000,250.0,1,E20ES,490,test
688.8651847839355,5,2,1,3,0,4,E+,1,3,3,0,1000,250.0,3,E20ES,491,test
1088.9849662780762,5,2,1,3,0,4,E+,1,2,1,0,1000,250.0,2,E20ES,492,test
512.8941535949707,5,2,1,3,0,4,E+,1,2,1,0,1000,250.0,2,E20ES,493,test
688.7779235839844,5,2,1,3,0,4,E+,1,3,3,0,1000,250.0,3,E20ES,494,test
592.8609371185303,5,2,1,3,0,4,E+,1,1,2,0,1000,250.0,1,E20ES,495,test
608.8480949401855,5,2,1,3,0,4,E+,1,4,5,0,1000,250.0,4,E20ES,496,test
592.8909778594971,5,2,1,3,0,4,E+,1,0,4,0,1000,250.0,0,E20ES,497,test
624.5357990264893,5,2,1,3,0,4,E+,1,3,3,0,1000,250.0,3,E20ES,498,test
832.9439163208008,5,2,1,3,0,4,E+,1,5,0,0,1000,250.0,5,E20ES,499,test
