RT,SRmap_0,SRmap_1,SRmap_2,SRmap_3,SRmap_4,SRmap_5,condition,correct,correct_response,curstim,ms-precue,ms-prestimblank,ntrials,response,subject,trial,type
5104.511976242065,2,3,1,5,0,4,H-,0,2,0,0,1000,250.0,0,C02CA,0,train
3440.697193145752,2,3,1,5,0,4,H-,1,0,4,0,1000,250.0,0,C02CA,1,train
1968.7490463256836,2,3,1,5,0,4,H-,1,5,3,0,1000,250.0,5,C02CA,2,train
2192.8529739379883,2,3,1,5,0,4,H-,1,1,2,0,1000,250.0,1,C02CA,3,train
1904.7930240631104,2,3,1,5,0,4,H-,1,2,0,0,1000,250.0,2,C02CA,4,train
1745.0778484344482,2,3,1,5,0,4,H-,0,3,1,0,1000,250.0,4,C02CA,5,train
2272.8629112243652,2,3,1,5,0,4,H-,1,2,0,0,1000,250.0,2,C02CA,6,train
1232.9590320587158,2,3,1,5,0,4,H-,1,5,3,0,1000,250.0,5,C02CA,7,train
1694.7839260101318,2,3,1,5,0,4,H-,1,3,1,0,1000,250.0,3,C02CA,8,train
1888.688087463379,2,3,1,5,0,4,H-,1,2,0,0,1000,250.0,2,C02CA,9,train
1360.2101802825928,2,3,1,5,0,4,H-,1,0,4,0,1000,250.0,0,C02CA,10,train
1600.982904434204,2,3,1,5,0,4,H-,1,2,0,0,1000,250.0,2,C02CA,11,train
1536.182165145874,2,3,1,5,0,4,H-,1,0,4,0,1000,250.0,0,C02CA,12,train
1568.8631534576416,2,3,1,5,0,4,H-,1,3,1,0,1000,250.0,3,C02CA,13,train
1632.9059600830078,2,3,1,5,0,4,H-,1,2,0,0,1000,250.0,2,C02CA,14,train
1152.7740955352783,2,3,1,5,0,4,H-,1,0,4,0,1000,250.0,0,C02CA,15,train
1168.700933456421,2,3,1,5,0,4,H-,1,1,2,0,1000,250.0,1,C02CA,16,train
2160.982847213745,2,3,1,5,0,4,H-,1,4,5,0,1000,250.0,4,C02CA,17,train
1344.4719314575195,2,3,1,5,0,4,H-,1,0,4,0,1000,250.0,0,C02CA,18,train
1409.0080261230469,2,3,1,5,0,4,H-,1,2,0,0,1000,250.0,2,C02CA,19,train
2001.025915145874,2,3,1,5,0,4,H-,1,2,0,0,1000,250.0,2,C02CA,20,train
1808.6979389190674,2,3,1,5,0,4,H-,1,5,3,0,1000,250.0,5,C02CA,21,train
1440.877914428711,2,3,1,5,0,4,H-,1,3,1,0,1000,250.0,3,C02CA,22,train
896.6679573059082,2,3,1,5,0,4,H-,1,1,2,0,1000,250.0,1,C02CA,23,train
1984.9951267242432,2,3,1,5,0,4,H-,1,4,5,0,1000,250.0,4,C02CA,24,train
816.7788982391357,2,3,1,5,0,4,H-,1,1,2,0,1000,250.0,1,C02CA,25,train
1040.66801071167,2,3,1,5,0,4,H-,1,3,1,0,1000,250.0,3,C02CA,26,train
1952.772855758667,2,3,1,5,0,4,H-,1,5,3,0,1000,250.0,5,C02CA,27,train
2064.720869064331,2,3,1,5,0,4,H-,1,4,5,0,1000,250.0,4,C02CA,28,train
1009.0899467468262,2,3,1,5,0,4,H-,1,1,2,0,1000,250.0,1,C02CA,29,train
880.626916885376,2,3,1,5,0,4,H-,1,0,4,0,1000,250.0,0,C02CA,30,train
1136.8629932403564,2,3,1,5,0,4,H-,0,3,1,0,1000,250.0,4,C02CA,31,train
1297.0280647277832,2,3,1,5,0,4,H-,1,0,4,0,1000,250.0,0,C02CA,32,train
1296.8800067901611,2,3,1,5,0,4,H-,1,2,0,0,1000,250.0,2,C02CA,33,train
1040.6758785247803,2,3,1,5,0,4,H-,1,5,3,0,1000,250.0,5,C02CA,34,train
945.0380802154541,2,3,1,5,0,4,H-,1,1,2,0,1000,250.0,1,C02CA,35,train
880.9859752655029,2,3,1,5,0,4,H-,1,5,3,0,1000,250.0,5,C02CA,36,train
1169.219970703125,2,3,1,5,0,4,H-,0,3,1,0,1000,250.0,4,C02CA,37,train
1216.7091369628906,2,3,1,5,0,4,H-,1,5,3,0,1000,250.0,5,C02CA,38,train
1088.9179706573486,2,3,1,5,0,4,H-,1,2,0,0,1000,250.0,2,C02CA,39,train
784.937858581543,2,3,1,5,0,4,H-,1,1,2,0,1000,250.0,1,C02CA,40,train
1216.8591022491455,2,3,1,5,0,4,H-,1,3,1,0,1000,250.0,3,C02CA,41,train
1456.463098526001,2,3,1,5,0,4,H-,1,4,5,0,1000,250.0,4,C02CA,42,train
1296.8659400939941,2,3,1,5,0,4,H-,1,2,0,0,1000,250.0,2,C02CA,43,train
832.819938659668,2,3,1,5,0,4,H-,1,0,4,0,1000,250.0,0,C02CA,44,train
1456.7339420318604,2,3,1,5,0,4,H-,1,4,5,0,1000,250.0,4,C02CA,45,train
1216.843843460083,2,3,1,5,0,4,H-,1,3,1,0,1000,250.0,3,C02CA,46,train
1184.8890781402588,2,3,1,5,0,4,H-,1,4,5,0,1000,250.0,4,C02CA,47,train
944.7450637817383,2,3,1,5,0,4,H-,1,5,3,0,1000,250.0,5,C02CA,48,train
1744.9309825897217,2,3,1,5,0,4,H-,1,4,5,0,1000,250.0,4,C02CA,49,train
848.7091064453125,2,3,1,5,0,4,H-,1,1,2,0,1000,250.0,1,C02CA,50,train
1024.751901626587,2,3,1,5,0,4,H-,1,4,5,0,1000,250.0,4,C02CA,51,train
865.156888961792,2,3,1,5,0,4,H-,1,5,3,0,1000,250.0,5,C02CA,52,train
656.7671298980713,2,3,1,5,0,4,H-,1,5,3,0,1000,250.0,5,C02CA,53,train
673.0480194091797,2,3,1,5,0,4,H-,1,5,3,0,1000,250.0,5,C02CA,54,train
880.9189796447754,2,3,1,5,0,4,H-,1,3,1,0,1000,250.0,3,C02CA,55,train
625.0278949737549,2,3,1,5,0,4,H-,0,2,0,0,1000,250.0,4,C02CA,56,train
896.8830108642578,2,3,1,5,0,4,H-,1,2,0,0,1000,250.0,2,C02CA,57,train
704.7250270843506,2,3,1,5,0,4,H-,1,5,3,0,1000,250.0,5,C02CA,58,train
1040.9750938415527,2,3,1,5,0,4,H-,1,5,3,0,1000,250.0,5,C02CA,59,train
814.8000240325928,2,3,1,5,0,4,H-,1,1,2,0,1000,250.0,1,C02CA,60,train
592.9830074310303,2,3,1,5,0,4,H-,1,0,4,0,1000,250.0,0,C02CA,61,train
416.66102409362793,2,3,1,5,0,4,H-,1,1,2,0,1000,250.0,1,C02CA,62,train
624.5789527893066,2,3,1,5,0,4,H-,1,1,2,0,1000,250.0,1,C02CA,63,train
608.2949638366699,2,3,1,5,0,4,H-,1,0,4,0,1000,250.0,0,C02CA,64,train
1678.699016571045,2,3,1,5,0,4,H-,1,2,0,0,1000,250.0,2,C02CA,65,train
688.9739036560059,2,3,1,5,0,4,H-,1,0,4,0,1000,250.0,0,C02CA,66,train
1872.704029083252,2,3,1,5,0,4,H-,0,2,0,0,1000,250.0,1,C02CA,67,train
625.0929832458496,2,3,1,5,0,4,H-,1,1,2,0,1000,250.0,1,C02CA,68,train
656.714916229248,2,3,1,5,0,4,H-,1,0,4,0,1000,250.0,0,C02CA,69,train
1376.8229484558105,2,3,1,5,0,4,H-,1,0,4,0,1000,250.0,0,C02CA,70,train
1280.8599472045898,2,3,1,5,0,4,H-,0,3,1,0,1000,250.0,4,C02CA,71,train
1440.6309127807617,2,3,1,5,0,4,H-,0,3,1,0,1000,250.0,4,C02CA,72,train
880.9268474578857,2,3,1,5,0,4,H-,1,4,5,0,1000,250.0,4,C02CA,73,train
864.6669387817383,2,3,1,5,0,4,H-,1,0,4,0,1000,250.0,0,C02CA,74,train
574.8021602630615,2,3,1,5,0,4,H-,1,1,2,0,1000,250.0,1,C02CA,75,train
640.9800052642822,2,3,1,5,0,4,H-,1,1,2,0,1000,250.0,1,C02CA,76,train
1056.602954864502,2,3,1,5,0,4,H-,1,0,4,0,1000,250.0,0,C02CA,77,train
752.5689601898193,2,3,1,5,0,4,H-,1,5,3,0,1000,250.0,5,C02CA,78,train
752.6428699493408,2,3,1,5,0,4,H-,1,4,5,0,1000,250.0,4,C02CA,79,train
608.3240509033203,2,3,1,5,0,4,H-,1,4,5,0,1000,250.0,4,C02CA,80,train
1984.727144241333,2,3,1,5,0,4,H-,1,2,0,0,1000,250.0,2,C02CA,81,train
976.8831729888916,2,3,1,5,0,4,H-,1,2,0,0,1000,250.0,2,C02CA,82,train
1008.6901187896729,2,3,1,5,0,4,H-,1,4,5,0,1000,250.0,4,C02CA,83,train
688.8031959533691,2,3,1,5,0,4,H-,1,4,5,0,1000,250.0,4,C02CA,84,train
1456.5260410308838,2,3,1,5,0,4,H-,1,2,0,0,1000,250.0,2,C02CA,85,train
912.9531383514404,2,3,1,5,0,4,H-,1,4,5,0,1000,250.0,4,C02CA,86,train
1376.9919872283936,2,3,1,5,0,4,H-,1,3,1,0,1000,250.0,3,C02CA,87,train
1056.915044784546,2,3,1,5,0,4,H-,1,4,5,0,1000,250.0,4,C02CA,88,train
865.0240898132324,2,3,1,5,0,4,H-,0,3,1,0,1000,250.0,4,C02CA,89,train
912.8899574279785,2,3,1,5,0,4,H-,1,3,1,0,1000,250.0,3,C02CA,90,train
1008.1920623779297,2,3,1,5,0,4,H-,1,4,5,0,1000,250.0,4,C02CA,91,train
1056.8640232086182,2,3,1,5,0,4,H-,1,4,5,0,1000,250.0,4,C02CA,92,train
752.6929378509521,2,3,1,5,0,4,H-,1,4,5,0,1000,250.0,4,C02CA,93,train
2080.9359550476074,2,3,1,5,0,4,H-,1,2,0,0,1000,250.0,2,C02CA,94,train
1728.698968887329,2,3,1,5,0,4,H-,1,4,5,0,1000,250.0,4,C02CA,95,train
784.6181392669678,2,3,1,5,0,4,H-,1,0,4,0,1000,250.0,0,C02CA,96,train
960.6499671936035,2,3,1,5,0,4,H-,1,5,3,0,1000,250.0,5,C02CA,97,train
720.9620475769043,2,3,1,5,0,4,H-,0,3,1,0,1000,250.0,4,C02CA,98,train
720.984935760498,2,3,1,5,0,4,H-,1,5,3,0,1000,250.0,5,C02CA,99,train
1536.9889736175537,2,3,1,5,0,4,H-,1,2,0,0,1000,250.0,2,C02CA,100,train
1152.6169776916504,2,3,1,5,0,4,H-,1,2,0,0,1000,250.0,2,C02CA,101,train
624.9730587005615,2,3,1,5,0,4,H-,1,2,0,0,1000,250.0,2,C02CA,102,train
736.7210388183594,2,3,1,5,0,4,H-,1,0,4,0,1000,250.0,0,C02CA,103,train
895.8349227905273,2,3,1,5,0,4,H-,1,5,3,0,1000,250.0,5,C02CA,104,train
1056.9748878479004,2,3,1,5,0,4,H-,1,0,4,0,1000,250.0,0,C02CA,105,train
1633.4469318389893,2,3,1,5,0,4,H-,1,4,5,0,1000,250.0,4,C02CA,106,train
1088.0711078643799,2,3,1,5,0,4,H-,1,5,3,0,1000,250.0,5,C02CA,107,train
769.0589427947998,2,3,1,5,0,4,H-,1,1,2,0,1000,250.0,1,C02CA,108,train
1008.7401866912842,2,3,1,5,0,4,H-,1,5,3,0,1000,250.0,5,C02CA,109,train
928.7469387054443,2,3,1,5,0,4,H-,1,0,4,0,1000,250.0,0,C02CA,110,train
1648.803949356079,2,3,1,5,0,4,H-,1,4,5,0,1000,250.0,4,C02CA,111,train
816.8320655822754,2,3,1,5,0,4,H-,1,1,2,0,1000,250.0,1,C02CA,112,train
800.6839752197266,2,3,1,5,0,4,H-,1,2,0,0,1000,250.0,2,C02CA,113,train
1009.0420246124268,2,3,1,5,0,4,H-,1,4,5,0,1000,250.0,4,C02CA,114,train
704.0309906005859,2,3,1,5,0,4,H-,1,1,2,0,1000,250.0,1,C02CA,115,train
640.9728527069092,2,3,1,5,0,4,H-,1,0,4,0,1000,250.0,0,C02CA,116,train
1040.7969951629639,2,3,1,5,0,4,H-,1,2,0,0,1000,250.0,2,C02CA,117,train
736.7959022521973,2,3,1,5,0,4,H-,1,5,3,0,1000,250.0,5,C02CA,118,train
1201.0860443115234,2,3,1,5,0,4,H-,1,3,1,0,1000,250.0,3,C02CA,119,train
880.9280395507812,2,3,1,5,0,4,H-,1,2,0,0,1000,250.0,2,C02CA,120,train
816.9200420379639,2,3,1,5,0,4,H-,1,3,1,0,1000,250.0,3,C02CA,121,train
881.2401294708252,2,3,1,5,0,4,H-,1,4,5,0,1000,250.0,4,C02CA,122,train
800.8139133453369,2,3,1,5,0,4,H-,1,0,4,0,1000,250.0,0,C02CA,123,train
927.9749393463135,2,3,1,5,0,4,H-,1,5,3,0,1000,250.0,5,C02CA,124,train
1137.0329856872559,2,3,1,5,0,4,H-,1,2,0,0,1000,250.0,2,C02CA,125,train
752.9067993164062,2,3,1,5,0,4,H-,1,1,2,0,1000,250.0,1,C02CA,126,train
897.0110416412354,2,3,1,5,0,4,H-,1,5,3,0,1000,250.0,5,C02CA,127,train
1024.9199867248535,2,3,1,5,0,4,H-,1,3,1,0,1000,250.0,3,C02CA,128,train
960.9549045562744,2,3,1,5,0,4,H-,1,5,3,0,1000,250.0,5,C02CA,129,train
977.046012878418,2,3,1,5,0,4,H-,1,2,0,0,1000,250.0,2,C02CA,130,train
784.7499847412109,2,3,1,5,0,4,H-,1,3,1,0,1000,250.0,3,C02CA,131,train
848.6988544464111,2,3,1,5,0,4,H-,1,4,5,0,1000,250.0,4,C02CA,132,train
1040.954828262329,2,3,1,5,0,4,H-,1,5,3,0,1000,250.0,5,C02CA,133,train
817.1219825744629,2,3,1,5,0,4,H-,1,3,1,0,1000,250.0,3,C02CA,134,train
801.1620044708252,2,3,1,5,0,4,H-,1,3,1,0,1000,250.0,3,C02CA,135,train
833.0399990081787,2,3,1,5,0,4,H-,1,2,0,0,1000,250.0,2,C02CA,136,train
656.7950248718262,2,3,1,5,0,4,H-,1,3,1,0,1000,250.0,3,C02CA,137,train
752.9690265655518,2,3,1,5,0,4,H-,1,5,3,0,1000,250.0,5,C02CA,138,train
688.8041496276855,2,3,1,5,0,4,H-,1,3,1,0,1000,250.0,3,C02CA,139,train
640.6750679016113,2,3,1,5,0,4,H-,1,3,1,0,1000,250.0,3,C02CA,140,train
672.9638576507568,2,3,1,5,0,4,H-,1,3,1,0,1000,250.0,3,C02CA,141,train
1153.0070304870605,2,3,1,5,0,4,H-,1,5,3,0,1000,250.0,5,C02CA,142,train
2192.978858947754,2,3,1,5,0,4,H-,1,4,5,0,1000,250.0,4,C02CA,143,train
865.0410175323486,2,3,1,5,0,4,H-,1,4,5,0,1000,250.0,4,C02CA,144,train
1168.9589023590088,2,3,1,5,0,4,H-,1,1,2,0,1000,250.0,1,C02CA,145,train
801.1829853057861,2,3,1,5,0,4,H-,0,3,1,0,1000,250.0,4,C02CA,146,train
865.0681972503662,2,3,1,5,0,4,H-,1,4,5,0,1000,250.0,4,C02CA,147,train
704.6999931335449,2,3,1,5,0,4,H-,1,3,1,0,1000,250.0,3,C02CA,148,train
752.9118061065674,2,3,1,5,0,4,H-,1,4,5,0,1000,250.0,4,C02CA,149,train
592.8490161895752,2,3,1,5,0,4,H-,1,5,3,0,1000,250.0,5,C02CA,150,train
1024.8100757598877,2,3,1,5,0,4,H-,1,2,0,0,1000,250.0,2,C02CA,151,train
880.7969093322754,2,3,1,5,0,4,H-,1,4,5,0,1000,250.0,4,C02CA,152,train
1152.7040004730225,2,3,1,5,0,4,H-,1,1,2,0,1000,250.0,1,C02CA,153,train
864.8719787597656,2,3,1,5,0,4,H-,0,2,0,0,1000,250.0,0,C02CA,154,train
1456.892967224121,2,3,1,5,0,4,H-,1,5,3,0,1000,250.0,5,C02CA,155,train
1088.8500213623047,2,3,1,5,0,4,H-,1,0,4,0,1000,250.0,0,C02CA,156,train
1793.0009365081787,2,3,1,5,0,4,H-,1,4,5,0,1000,250.0,4,C02CA,157,train
2480.95703125,2,3,1,5,0,4,H-,1,2,0,0,1000,250.0,2,C02CA,158,train
944.9019432067871,2,3,1,5,0,4,H-,1,4,5,0,1000,250.0,4,C02CA,159,train
704.8308849334717,2,3,1,5,0,4,H-,1,5,3,0,1000,250.0,5,C02CA,160,train
1280.872106552124,2,3,1,5,0,4,H-,1,1,2,0,1000,250.0,1,C02CA,161,train
1550.9669780731201,2,3,1,5,0,4,H-,0,3,1,0,1000,250.0,4,C02CA,162,train
1473.00386428833,2,3,1,5,0,4,H-,1,2,0,0,1000,250.0,2,C02CA,163,train
912.9409790039062,2,3,1,5,0,4,H-,1,2,0,0,1000,250.0,2,C02CA,164,train
817.0158863067627,2,3,1,5,0,4,H-,1,1,2,0,1000,250.0,1,C02CA,165,train
897.3448276519775,2,3,1,5,0,4,H-,1,0,4,0,1000,250.0,0,C02CA,166,train
1008.7380409240723,2,3,1,5,0,4,H-,1,5,3,0,1000,250.0,5,C02CA,167,train
1392.9650783538818,2,3,1,5,0,4,H-,1,2,0,0,1000,250.0,2,C02CA,168,train
736.7579936981201,2,3,1,5,0,4,H-,1,0,4,0,1000,250.0,0,C02CA,169,train
1296.5571880340576,2,3,1,5,0,4,H-,1,2,0,0,1000,250.0,2,C02CA,170,train
1168.6580181121826,2,3,1,5,0,4,H-,1,5,3,0,1000,250.0,5,C02CA,171,train
1168.8501834869385,2,3,1,5,0,4,H-,1,2,0,0,1000,250.0,2,C02CA,172,train
864.7639751434326,2,3,1,5,0,4,H-,1,5,3,0,1000,250.0,5,C02CA,173,train
1169.0189838409424,2,3,1,5,0,4,H-,1,2,0,0,1000,250.0,2,C02CA,174,train
896.93284034729,2,3,1,5,0,4,H-,1,5,3,0,1000,250.0,5,C02CA,175,train
1120.699167251587,2,3,1,5,0,4,H-,1,1,2,0,1000,250.0,1,C02CA,176,train
720.8778858184814,2,3,1,5,0,4,H-,1,2,0,0,1000,250.0,2,C02CA,177,train
752.8951168060303,2,3,1,5,0,4,H-,1,2,0,0,1000,250.0,2,C02CA,178,train
561.0530376434326,2,3,1,5,0,4,H-,1,1,2,0,1000,250.0,1,C02CA,179,train
1024.993896484375,2,3,1,5,0,4,H-,1,3,1,0,1000,250.0,3,C02CA,180,train
832.5879573822021,2,3,1,5,0,4,H-,1,1,2,0,1000,250.0,1,C02CA,181,train
1087.8748893737793,2,3,1,5,0,4,H-,1,0,4,0,1000,250.0,0,C02CA,182,train
1120.5980777740479,2,3,1,5,0,4,H-,1,2,0,0,1000,250.0,2,C02CA,183,train
832.6420783996582,2,3,1,5,0,4,H-,1,1,2,0,1000,250.0,1,C02CA,184,train
768.3858871459961,2,3,1,5,0,4,H-,1,5,3,0,1000,250.0,5,C02CA,185,train
672.482967376709,2,3,1,5,0,4,H-,1,1,2,0,1000,250.0,1,C02CA,186,train
897.050142288208,2,3,1,5,0,4,H-,1,5,3,0,1000,250.0,5,C02CA,187,train
1520.6739902496338,2,3,1,5,0,4,H-,1,2,0,0,1000,250.0,2,C02CA,188,train
656.6379070281982,2,3,1,5,0,4,H-,1,1,2,0,1000,250.0,1,C02CA,189,train
896.7568874359131,2,3,1,5,0,4,H-,1,0,4,0,1000,250.0,0,C02CA,190,train
574.8021602630615,2,3,1,5,0,4,H-,1,0,4,0,1000,250.0,0,C02CA,191,train
1744.9469566345215,2,3,1,5,0,4,H-,1,4,5,0,1000,250.0,4,C02CA,192,train
480.6530475616455,2,3,1,5,0,4,H-,1,4,5,0,1000,250.0,4,C02CA,193,train
1086.8170261383057,2,3,1,5,0,4,H-,1,2,0,0,1000,250.0,2,C02CA,194,train
640.861988067627,2,3,1,5,0,4,H-,1,1,2,0,1000,250.0,1,C02CA,195,train
528.9340019226074,2,3,1,5,0,4,H-,1,1,2,0,1000,250.0,1,C02CA,196,train
1072.4971294403076,2,3,1,5,0,4,H-,1,4,5,0,1000,250.0,4,C02CA,197,train
1024.9888896942139,2,3,1,5,0,4,H-,1,2,0,0,1000,250.0,2,C02CA,198,train
720.6449508666992,2,3,1,5,0,4,H-,1,5,3,0,1000,250.0,5,C02CA,199,train
1056.8599700927734,2,3,1,5,0,4,H-,1,4,5,0,1000,250.0,4,C02CA,200,train
752.8600692749023,2,3,1,5,0,4,H-,1,3,1,0,1000,250.0,3,C02CA,201,train
945.0709819793701,2,3,1,5,0,4,H-,1,2,0,0,1000,250.0,2,C02CA,202,train
848.9232063293457,2,3,1,5,0,4,H-,1,1,2,0,1000,250.0,1,C02CA,203,train
640.7709121704102,2,3,1,5,0,4,H-,1,0,4,0,1000,250.0,0,C02CA,204,train
897.0088958740234,2,3,1,5,0,4,H-,1,0,4,0,1000,250.0,0,C02CA,205,train
1072.9470252990723,2,3,1,5,0,4,H-,1,4,5,0,1000,250.0,4,C02CA,206,train
672.8570461273193,2,3,1,5,0,4,H-,1,4,5,0,1000,250.0,4,C02CA,207,train
1024.9459743499756,2,3,1,5,0,4,H-,1,2,0,0,1000,250.0,2,C02CA,208,train
960.9260559082031,2,3,1,5,0,4,H-,1,5,3,0,1000,250.0,5,C02CA,209,train
1104.6879291534424,2,3,1,5,0,4,H-,1,0,4,0,1000,250.0,0,C02CA,210,train
705.0750255584717,2,3,1,5,0,4,H-,1,0,4,0,1000,250.0,0,C02CA,211,train
1024.8920917510986,2,3,1,5,0,4,H-,1,4,5,0,1000,250.0,4,C02CA,212,train
1680.750846862793,2,3,1,5,0,4,H-,1,2,0,0,1000,250.0,2,C02CA,213,train
1089.0130996704102,2,3,1,5,0,4,H-,1,5,3,0,1000,250.0,5,C02CA,214,train
768.9690589904785,2,3,1,5,0,4,H-,1,2,0,0,1000,250.0,2,C02CA,215,train
688.8082027435303,2,3,1,5,0,4,H-,1,1,2,0,1000,250.0,1,C02CA,216,train
1008.9571475982666,2,3,1,5,0,4,H-,1,5,3,0,1000,250.0,5,C02CA,217,train
608.9379787445068,2,3,1,5,0,4,H-,1,1,2,0,1000,250.0,1,C02CA,218,train
750.9958744049072,2,3,1,5,0,4,H-,0,3,1,0,1000,250.0,4,C02CA,219,train
1553.0378818511963,2,3,1,5,0,4,H-,1,4,5,0,1000,250.0,4,C02CA,220,train
784.9581241607666,2,3,1,5,0,4,H-,1,4,5,0,1000,250.0,4,C02CA,221,train
816.7059421539307,2,3,1,5,0,4,H-,1,0,4,0,1000,250.0,0,C02CA,222,train
1232.738971710205,2,3,1,5,0,4,H-,1,5,3,0,1000,250.0,5,C02CA,223,train
768.988847732544,2,3,1,5,0,4,H-,1,5,3,0,1000,250.0,5,C02CA,224,train
752.6798248291016,2,3,1,5,0,4,H-,1,1,2,0,1000,250.0,1,C02CA,225,train
1456.9439888000488,2,3,1,5,0,4,H-,1,5,3,0,1000,250.0,5,C02CA,226,train
960.8941078186035,2,3,1,5,0,4,H-,1,1,2,0,1000,250.0,1,C02CA,227,train
784.9280834197998,2,3,1,5,0,4,H-,1,0,4,0,1000,250.0,0,C02CA,228,train
784.9581241607666,2,3,1,5,0,4,H-,1,0,4,0,1000,250.0,0,C02CA,229,train
1968.4500694274902,2,3,1,5,0,4,H-,1,3,1,0,1000,250.0,3,C02CA,230,train
896.697998046875,2,3,1,5,0,4,H-,1,4,5,0,1000,250.0,4,C02CA,231,train
880.7988166809082,2,3,1,5,0,4,H-,1,5,3,0,1000,250.0,5,C02CA,232,train
1280.94482421875,2,3,1,5,0,4,H-,1,4,5,0,1000,250.0,4,C02CA,233,train
1472.656011581421,2,3,1,5,0,4,H-,1,1,2,0,1000,250.0,1,C02CA,234,train
752.8820037841797,2,3,1,5,0,4,H-,1,5,3,0,1000,250.0,5,C02CA,235,train
1248.8648891448975,2,3,1,5,0,4,H-,1,3,1,0,1000,250.0,3,C02CA,236,train
1056.797981262207,2,3,1,5,0,4,H-,1,2,0,0,1000,250.0,2,C02CA,237,train
1184.8108768463135,2,3,1,5,0,4,H-,1,5,3,0,1000,250.0,5,C02CA,238,train
1600.9588241577148,2,3,1,5,0,4,H-,1,2,0,0,1000,250.0,2,C02CA,239,train
912.7669334411621,2,3,1,5,0,4,H-,1,5,3,0,1000,250.0,5,C02CA,240,train
784.9409580230713,2,3,1,5,0,4,H-,1,1,2,0,1000,250.0,1,C02CA,241,train
1216.752052307129,2,3,1,5,0,4,H-,1,4,5,0,1000,250.0,4,C02CA,242,train
976.7310619354248,2,3,1,5,0,4,H-,1,4,5,0,1000,250.0,4,C02CA,243,train
864.7689819335938,2,3,1,5,0,4,H-,1,4,5,0,1000,250.0,4,C02CA,244,train
1040.7860279083252,2,3,1,5,0,4,H-,1,2,0,0,1000,250.0,2,C02CA,245,train
1552.9730319976807,2,3,1,5,0,4,H-,1,0,4,0,1000,250.0,0,C02CA,246,train
592.9629802703857,2,3,1,5,0,4,H-,1,1,2,0,1000,250.0,1,C02CA,247,train
768.7380313873291,2,3,1,5,0,4,H-,1,5,3,0,1000,250.0,5,C02CA,248,train
721.0431098937988,2,3,1,5,0,4,H-,1,0,4,0,1000,250.0,0,C02CA,249,train
2144.95587348938,4,0,3,2,1,5,H-,1,3,2,0,1000,250.0,3,C02CA,250,test
1792.6709651947021,4,0,3,2,1,5,H-,1,5,5,0,1000,250.0,5,C02CA,251,test
672.6689338684082,4,0,3,2,1,5,H-,1,0,1,0,1000,250.0,0,C02CA,252,test
624.8199939727783,4,0,3,2,1,5,H-,1,0,1,0,1000,250.0,0,C02CA,253,test
1214.8828506469727,4,0,3,2,1,5,H-,1,5,5,0,1000,250.0,5,C02CA,254,test
1152.9319286346436,4,0,3,2,1,5,H-,1,1,4,0,1000,250.0,1,C02CA,255,test
800.8430004119873,4,0,3,2,1,5,H-,1,0,1,0,1000,250.0,0,C02CA,256,test
1200.5910873413086,4,0,3,2,1,5,H-,1,5,5,0,1000,250.0,5,C02CA,257,test
816.9169425964355,4,0,3,2,1,5,H-,1,1,4,0,1000,250.0,1,C02CA,258,test
894.7508335113525,4,0,3,2,1,5,H-,1,0,1,0,1000,250.0,0,C02CA,259,test
592.775821685791,4,0,3,2,1,5,H-,0,3,2,0,1000,250.0,1,C02CA,260,test
1152.858018875122,4,0,3,2,1,5,H-,1,5,5,0,1000,250.0,5,C02CA,261,test
1536.7951393127441,4,0,3,2,1,5,H-,1,3,2,0,1000,250.0,3,C02CA,262,test
1392.930030822754,4,0,3,2,1,5,H-,1,3,2,0,1000,250.0,3,C02CA,263,test
976.456880569458,4,0,3,2,1,5,H-,1,1,4,0,1000,250.0,1,C02CA,264,test
1760.9999179840088,4,0,3,2,1,5,H-,1,4,0,0,1000,250.0,4,C02CA,265,test
1440.713882446289,4,0,3,2,1,5,H-,1,5,5,0,1000,250.0,5,C02CA,266,test
1472.7280139923096,4,0,3,2,1,5,H-,1,3,2,0,1000,250.0,3,C02CA,267,test
992.9389953613281,4,0,3,2,1,5,H-,1,2,3,0,1000,250.0,2,C02CA,268,test
960.7219696044922,4,0,3,2,1,5,H-,1,2,3,0,1000,250.0,2,C02CA,269,test
1184.7610473632812,4,0,3,2,1,5,H-,1,3,2,0,1000,250.0,3,C02CA,270,test
881.0238838195801,4,0,3,2,1,5,H-,1,1,4,0,1000,250.0,1,C02CA,271,test
1120.6419467926025,4,0,3,2,1,5,H-,1,5,5,0,1000,250.0,5,C02CA,272,test
929.0199279785156,4,0,3,2,1,5,H-,1,3,2,0,1000,250.0,3,C02CA,273,test
1041.0280227661133,4,0,3,2,1,5,H-,1,1,4,0,1000,250.0,1,C02CA,274,test
1121.006965637207,4,0,3,2,1,5,H-,1,5,5,0,1000,250.0,5,C02CA,275,test
768.7737941741943,4,0,3,2,1,5,H-,1,0,1,0,1000,250.0,0,C02CA,276,test
864.8619651794434,4,0,3,2,1,5,H-,1,1,4,0,1000,250.0,1,C02CA,277,test
1936.6960525512695,4,0,3,2,1,5,H-,1,4,0,0,1000,250.0,4,C02CA,278,test
1056.8840503692627,4,0,3,2,1,5,H-,1,5,5,0,1000,250.0,5,C02CA,279,test
976.7680168151855,4,0,3,2,1,5,H-,0,3,2,0,1000,250.0,4,C02CA,280,test
1456.9621086120605,4,0,3,2,1,5,H-,1,1,4,0,1000,250.0,1,C02CA,281,test
1440.6249523162842,4,0,3,2,1,5,H-,1,3,2,0,1000,250.0,3,C02CA,282,test
1232.985019683838,4,0,3,2,1,5,H-,1,0,1,0,1000,250.0,0,C02CA,283,test
2497.0428943634033,4,0,3,2,1,5,H-,1,4,0,0,1000,250.0,4,C02CA,284,test
864.8560047149658,4,0,3,2,1,5,H-,1,4,0,0,1000,250.0,4,C02CA,285,test
672.8930473327637,4,0,3,2,1,5,H-,1,0,1,0,1000,250.0,0,C02CA,286,test
864.9799823760986,4,0,3,2,1,5,H-,1,4,0,0,1000,250.0,4,C02CA,287,test
944.6768760681152,4,0,3,2,1,5,H-,1,5,5,0,1000,250.0,5,C02CA,288,test
864.6650314331055,4,0,3,2,1,5,H-,1,1,4,0,1000,250.0,1,C02CA,289,test
784.8620414733887,4,0,3,2,1,5,H-,1,5,5,0,1000,250.0,5,C02CA,290,test
1120.8570003509521,4,0,3,2,1,5,H-,0,2,3,0,1000,250.0,1,C02CA,291,test
1153.05495262146,4,0,3,2,1,5,H-,1,0,1,0,1000,250.0,0,C02CA,292,test
1264.9760246276855,4,0,3,2,1,5,H-,1,4,0,0,1000,250.0,4,C02CA,293,test
800.990104675293,4,0,3,2,1,5,H-,1,2,3,0,1000,250.0,2,C02CA,294,test
1712.7819061279297,4,0,3,2,1,5,H-,1,3,2,0,1000,250.0,3,C02CA,295,test
720.9210395812988,4,0,3,2,1,5,H-,1,3,2,0,1000,250.0,3,C02CA,296,test
736.5989685058594,4,0,3,2,1,5,H-,1,2,3,0,1000,250.0,2,C02CA,297,test
1376.7459392547607,4,0,3,2,1,5,H-,1,1,4,0,1000,250.0,1,C02CA,298,test
1232.9912185668945,4,0,3,2,1,5,H-,1,4,0,0,1000,250.0,4,C02CA,299,test
672.7108955383301,4,0,3,2,1,5,H-,1,2,3,0,1000,250.0,2,C02CA,300,test
960.949182510376,4,0,3,2,1,5,H-,1,5,5,0,1000,250.0,5,C02CA,301,test
1153.033971786499,4,0,3,2,1,5,H-,1,2,3,0,1000,250.0,2,C02CA,302,test
1552.994966506958,4,0,3,2,1,5,H-,1,4,0,0,1000,250.0,4,C02CA,303,test
1232.9299449920654,4,0,3,2,1,5,H-,1,2,3,0,1000,250.0,2,C02CA,304,test
800.9319305419922,4,0,3,2,1,5,H-,1,0,1,0,1000,250.0,0,C02CA,305,test
608.7009906768799,4,0,3,2,1,5,H-,1,0,1,0,1000,250.0,0,C02CA,306,test
785.1378917694092,4,0,3,2,1,5,H-,1,0,1,0,1000,250.0,0,C02CA,307,test
1215.8668041229248,4,0,3,2,1,5,H-,1,2,3,0,1000,250.0,2,C02CA,308,test
1712.7838134765625,4,0,3,2,1,5,H-,1,4,0,0,1000,250.0,4,C02CA,309,test
1232.720136642456,4,0,3,2,1,5,H-,1,2,3,0,1000,250.0,2,C02CA,310,test
640.6121253967285,4,0,3,2,1,5,H-,1,2,3,0,1000,250.0,2,C02CA,311,test
960.2789878845215,4,0,3,2,1,5,H-,1,1,4,0,1000,250.0,1,C02CA,312,test
688.7290477752686,4,0,3,2,1,5,H-,1,1,4,0,1000,250.0,1,C02CA,313,test
848.8008975982666,4,0,3,2,1,5,H-,1,2,3,0,1000,250.0,2,C02CA,314,test
816.8201446533203,4,0,3,2,1,5,H-,1,1,4,0,1000,250.0,1,C02CA,315,test
1198.8179683685303,4,0,3,2,1,5,H-,1,4,0,0,1000,250.0,4,C02CA,316,test
768.5470581054688,4,0,3,2,1,5,H-,1,2,3,0,1000,250.0,2,C02CA,317,test
1552.804946899414,4,0,3,2,1,5,H-,1,3,2,0,1000,250.0,3,C02CA,318,test
702.7521133422852,4,0,3,2,1,5,H-,1,2,3,0,1000,250.0,2,C02CA,319,test
976.7990112304688,4,0,3,2,1,5,H-,1,0,1,0,1000,250.0,0,C02CA,320,test
1312.7808570861816,4,0,3,2,1,5,H-,1,1,4,0,1000,250.0,1,C02CA,321,test
977.0760536193848,4,0,3,2,1,5,H-,1,5,5,0,1000,250.0,5,C02CA,322,test
653.9971828460693,4,0,3,2,1,5,H-,1,0,1,0,1000,250.0,0,C02CA,323,test
1568.652868270874,4,0,3,2,1,5,H-,1,3,2,0,1000,250.0,3,C02CA,324,test
736.8600368499756,4,0,3,2,1,5,H-,1,3,2,0,1000,250.0,3,C02CA,325,test
1056.6160678863525,4,0,3,2,1,5,H-,1,1,4,0,1000,250.0,1,C02CA,326,test
848.9739894866943,4,0,3,2,1,5,H-,1,2,3,0,1000,250.0,2,C02CA,327,test
1152.9960632324219,4,0,3,2,1,5,H-,1,1,4,0,1000,250.0,1,C02CA,328,test
1552.9930591583252,4,0,3,2,1,5,H-,1,3,2,0,1000,250.0,3,C02CA,329,test
1056.5998554229736,4,0,3,2,1,5,H-,1,5,5,0,1000,250.0,5,C02CA,330,test
1408.8289737701416,4,0,3,2,1,5,H-,1,4,0,0,1000,250.0,4,C02CA,331,test
960.7770442962646,4,0,3,2,1,5,H-,1,0,1,0,1000,250.0,0,C02CA,332,test
750.8659362792969,4,0,3,2,1,5,H-,1,1,4,0,1000,250.0,1,C02CA,333,test
656.7361354827881,4,0,3,2,1,5,H-,1,1,4,0,1000,250.0,1,C02CA,334,test
1631.964921951294,4,0,3,2,1,5,H-,1,4,0,0,1000,250.0,4,C02CA,335,test
750.7951259613037,4,0,3,2,1,5,H-,1,0,1,0,1000,250.0,0,C02CA,336,test
944.633960723877,4,0,3,2,1,5,H-,1,1,4,0,1000,250.0,1,C02CA,337,test
720.80397605896,4,0,3,2,1,5,H-,1,2,3,0,1000,250.0,2,C02CA,338,test
641.096830368042,4,0,3,2,1,5,H-,1,0,1,0,1000,250.0,0,C02CA,339,test
992.5549030303955,4,0,3,2,1,5,H-,1,1,4,0,1000,250.0,1,C02CA,340,test
1376.9550323486328,4,0,3,2,1,5,H-,1,3,2,0,1000,250.0,3,C02CA,341,test
672.6419925689697,4,0,3,2,1,5,H-,1,2,3,0,1000,250.0,2,C02CA,342,test
640.6371593475342,4,0,3,2,1,5,H-,1,2,3,0,1000,250.0,2,C02CA,343,test
1040.8170223236084,4,0,3,2,1,5,H-,1,1,4,0,1000,250.0,1,C02CA,344,test
1169.036865234375,4,0,3,2,1,5,H-,1,1,4,0,1000,250.0,1,C02CA,345,test
1456.8159580230713,4,0,3,2,1,5,H-,1,3,2,0,1000,250.0,3,C02CA,346,test
670.7310676574707,4,0,3,2,1,5,H-,1,3,2,0,1000,250.0,3,C02CA,347,test
1249.0811347961426,4,0,3,2,1,5,H-,1,4,0,0,1000,250.0,4,C02CA,348,test
752.9549598693848,4,0,3,2,1,5,H-,1,4,0,0,1000,250.0,4,C02CA,349,test
912.7888679504395,4,0,3,2,1,5,H-,1,2,3,0,1000,250.0,2,C02CA,350,test
881.0410499572754,4,0,3,2,1,5,H-,1,0,1,0,1000,250.0,0,C02CA,351,test
1902.7459621429443,4,0,3,2,1,5,H-,1,1,4,0,1000,250.0,1,C02CA,352,test
656.8920612335205,4,0,3,2,1,5,H-,1,1,4,0,1000,250.0,1,C02CA,353,test
768.665075302124,4,0,3,2,1,5,H-,1,2,3,0,1000,250.0,2,C02CA,354,test
1248.8670349121094,4,0,3,2,1,5,H-,1,3,2,0,1000,250.0,3,C02CA,355,test
785.0019931793213,4,0,3,2,1,5,H-,1,3,2,0,1000,250.0,3,C02CA,356,test
1440.2351379394531,4,0,3,2,1,5,H-,1,3,2,0,1000,250.0,3,C02CA,357,test
1504.8558712005615,4,0,3,2,1,5,H-,1,5,5,0,1000,250.0,5,C02CA,358,test
1312.743902206421,4,0,3,2,1,5,H-,1,4,0,0,1000,250.0,4,C02CA,359,test
736.4590167999268,4,0,3,2,1,5,H-,1,5,5,0,1000,250.0,5,C02CA,360,test
784.965991973877,4,0,3,2,1,5,H-,1,0,1,0,1000,250.0,0,C02CA,361,test
896.9619274139404,4,0,3,2,1,5,H-,1,0,1,0,1000,250.0,0,C02CA,362,test
816.7400360107422,4,0,3,2,1,5,H-,0,4,0,0,1000,250.0,5,C02CA,363,test
864.3779754638672,4,0,3,2,1,5,H-,1,5,5,0,1000,250.0,5,C02CA,364,test
1344.8410034179688,4,0,3,2,1,5,H-,1,3,2,0,1000,250.0,3,C02CA,365,test
1169.0669059753418,4,0,3,2,1,5,H-,1,3,2,0,1000,250.0,3,C02CA,366,test
1152.8759002685547,4,0,3,2,1,5,H-,1,1,4,0,1000,250.0,1,C02CA,367,test
1424.7171878814697,4,0,3,2,1,5,H-,1,5,5,0,1000,250.0,5,C02CA,368,test
1552.6680946350098,4,0,3,2,1,5,H-,1,4,0,0,1000,250.0,4,C02CA,369,test
784.8398685455322,4,0,3,2,1,5,H-,1,0,1,0,1000,250.0,0,C02CA,370,test
1200.6268501281738,4,0,3,2,1,5,H-,1,4,0,0,1000,250.0,4,C02CA,371,test
1200.9119987487793,4,0,3,2,1,5,H-,1,4,0,0,1000,250.0,4,C02CA,372,test
1280.8301448822021,4,0,3,2,1,5,H-,1,4,0,0,1000,250.0,4,C02CA,373,test
784.6128940582275,4,0,3,2,1,5,H-,1,2,3,0,1000,250.0,2,C02CA,374,test
640.7139301300049,4,0,3,2,1,5,H-,1,1,4,0,1000,250.0,1,C02CA,375,test
1153.1219482421875,4,0,3,2,1,5,H-,1,3,2,0,1000,250.0,3,C02CA,376,test
1105.0200462341309,4,0,3,2,1,5,H-,1,4,0,0,1000,250.0,4,C02CA,377,test
720.9930419921875,4,0,3,2,1,5,H-,1,0,1,0,1000,250.0,0,C02CA,378,test
1680.6530952453613,4,0,3,2,1,5,H-,1,5,5,0,1000,250.0,5,C02CA,379,test
1377.058982849121,4,0,3,2,1,5,H-,1,2,3,0,1000,250.0,2,C02CA,380,test
1249.0270137786865,4,0,3,2,1,5,H-,1,4,0,0,1000,250.0,4,C02CA,381,test
784.7518920898438,4,0,3,2,1,5,H-,1,0,1,0,1000,250.0,0,C02CA,382,test
1152.766227722168,4,0,3,2,1,5,H-,1,3,2,0,1000,250.0,3,C02CA,383,test
1104.7909259796143,4,0,3,2,1,5,H-,1,4,0,0,1000,250.0,4,C02CA,384,test
753.0100345611572,4,0,3,2,1,5,H-,1,0,1,0,1000,250.0,0,C02CA,385,test
896.9800472259521,4,0,3,2,1,5,H-,1,1,4,0,1000,250.0,1,C02CA,386,test
1456.6669464111328,4,0,3,2,1,5,H-,1,3,2,0,1000,250.0,3,C02CA,387,test
1360.6398105621338,4,0,3,2,1,5,H-,1,5,5,0,1000,250.0,5,C02CA,388,test
1169.0168380737305,4,0,3,2,1,5,H-,1,2,3,0,1000,250.0,2,C02CA,389,test
1168.738842010498,4,0,3,2,1,5,H-,1,4,0,0,1000,250.0,4,C02CA,390,test
833.1000804901123,4,0,3,2,1,5,H-,1,3,2,0,1000,250.0,3,C02CA,391,test
1184.765100479126,4,0,3,2,1,5,H-,1,5,5,0,1000,250.0,5,C02CA,392,test
1104.9220561981201,4,0,3,2,1,5,H-,1,4,0,0,1000,250.0,4,C02CA,393,test
736.5272045135498,4,0,3,2,1,5,H-,1,1,4,0,1000,250.0,1,C02CA,394,test
752.7329921722412,4,0,3,2,1,5,H-,1,5,5,0,1000,250.0,5,C02CA,395,test
752.9590129852295,4,0,3,2,1,5,H-,1,3,2,0,1000,250.0,3,C02CA,396,test
832.2451114654541,4,0,3,2,1,5,H-,1,2,3,0,1000,250.0,2,C02CA,397,test
784.8081588745117,4,0,3,2,1,5,H-,1,0,1,0,1000,250.0,0,C02CA,398,test
960.9558582305908,4,0,3,2,1,5,H-,1,5,5,0,1000,250.0,5,C02CA,399,test
688.8821125030518,4,0,3,2,1,5,H-,1,0,1,0,1000,250.0,0,C02CA,400,test
784.6758365631104,4,0,3,2,1,5,H-,1,1,4,0,1000,250.0,1,C02CA,401,test
688.7750625610352,4,0,3,2,1,5,H-,1,2,3,0,1000,250.0,2,C02CA,402,test
1536.6730690002441,4,0,3,2,1,5,H-,1,3,2,0,1000,250.0,3,C02CA,403,test
1104.7110557556152,4,0,3,2,1,5,H-,1,2,3,0,1000,250.0,2,C02CA,404,test
624.6719360351562,4,0,3,2,1,5,H-,1,0,1,0,1000,250.0,0,C02CA,405,test
1889.111042022705,4,0,3,2,1,5,H-,1,4,0,0,1000,250.0,4,C02CA,406,test
672.0249652862549,4,0,3,2,1,5,H-,1,3,2,0,1000,250.0,3,C02CA,407,test
752.7458667755127,4,0,3,2,1,5,H-,1,3,2,0,1000,250.0,3,C02CA,408,test
752.9540061950684,4,0,3,2,1,5,H-,1,2,3,0,1000,250.0,2,C02CA,409,test
878.9088726043701,4,0,3,2,1,5,H-,1,5,5,0,1000,250.0,5,C02CA,410,test
656.8050384521484,4,0,3,2,1,5,H-,1,0,1,0,1000,250.0,0,C02CA,411,test
545.0460910797119,4,0,3,2,1,5,H-,1,0,1,0,1000,250.0,0,C02CA,412,test
944.8709487915039,4,0,3,2,1,5,H-,1,3,2,0,1000,250.0,3,C02CA,413,test
720.8960056304932,4,0,3,2,1,5,H-,1,0,1,0,1000,250.0,0,C02CA,414,test
656.8071842193604,4,0,3,2,1,5,H-,1,0,1,0,1000,250.0,0,C02CA,415,test
736.7000579833984,4,0,3,2,1,5,H-,1,0,1,0,1000,250.0,0,C02CA,416,test
656.8410396575928,4,0,3,2,1,5,H-,1,3,2,0,1000,250.0,3,C02CA,417,test
624.6018409729004,4,0,3,2,1,5,H-,1,0,1,0,1000,250.0,0,C02CA,418,test
1313.1630420684814,4,0,3,2,1,5,H-,0,4,0,0,1000,250.0,5,C02CA,419,test
672.9919910430908,4,0,3,2,1,5,H-,1,0,1,0,1000,250.0,0,C02CA,420,test
544.9810028076172,4,0,3,2,1,5,H-,1,0,1,0,1000,250.0,0,C02CA,421,test
1056.3900470733643,4,0,3,2,1,5,H-,1,4,0,0,1000,250.0,4,C02CA,422,test
832.8080177307129,4,0,3,2,1,5,H-,1,3,2,0,1000,250.0,3,C02CA,423,test
752.9301643371582,4,0,3,2,1,5,H-,1,2,3,0,1000,250.0,2,C02CA,424,test
608.7150573730469,4,0,3,2,1,5,H-,1,0,1,0,1000,250.0,0,C02CA,425,test
688.917875289917,4,0,3,2,1,5,H-,1,1,4,0,1000,250.0,1,C02CA,426,test
1008.7080001831055,4,0,3,2,1,5,H-,1,5,5,0,1000,250.0,5,C02CA,427,test
750.6959438323975,4,0,3,2,1,5,H-,1,2,3,0,1000,250.0,2,C02CA,428,test
1022.834062576294,4,0,3,2,1,5,H-,1,4,0,0,1000,250.0,4,C02CA,429,test
784.7929000854492,4,0,3,2,1,5,H-,1,0,1,0,1000,250.0,0,C02CA,430,test
1152.9991626739502,4,0,3,2,1,5,H-,1,3,2,0,1000,250.0,3,C02CA,431,test
1168.5638427734375,4,0,3,2,1,5,H-,1,4,0,0,1000,250.0,4,C02CA,432,test
752.6609897613525,4,0,3,2,1,5,H-,1,2,3,0,1000,250.0,2,C02CA,433,test
1040.9431457519531,4,0,3,2,1,5,H-,1,3,2,0,1000,250.0,3,C02CA,434,test
896.9008922576904,4,0,3,2,1,5,H-,1,3,2,0,1000,250.0,3,C02CA,435,test
1136.8699073791504,4,0,3,2,1,5,H-,1,4,0,0,1000,250.0,4,C02CA,436,test
848.6320972442627,4,0,3,2,1,5,H-,1,1,4,0,1000,250.0,1,C02CA,437,test
848.8211631774902,4,0,3,2,1,5,H-,1,2,3,0,1000,250.0,2,C02CA,438,test
973.3860492706299,4,0,3,2,1,5,H-,1,1,4,0,1000,250.0,1,C02CA,439,test
928.9729595184326,4,0,3,2,1,5,H-,1,5,5,0,1000,250.0,5,C02CA,440,test
895.9782123565674,4,0,3,2,1,5,H-,1,5,5,0,1000,250.0,5,C02CA,441,test
848.6111164093018,4,0,3,2,1,5,H-,1,3,2,0,1000,250.0,3,C02CA,442,test
528.7799835205078,4,0,3,2,1,5,H-,1,3,2,0,1000,250.0,3,C02CA,443,test
993.0880069732666,4,0,3,2,1,5,H-,1,4,0,0,1000,250.0,4,C02CA,444,test
625.1111030578613,4,0,3,2,1,5,H-,1,0,1,0,1000,250.0,0,C02CA,445,test
896.2740898132324,4,0,3,2,1,5,H-,1,2,3,0,1000,250.0,2,C02CA,446,test
704.7960758209229,4,0,3,2,1,5,H-,1,0,1,0,1000,250.0,0,C02CA,447,test
880.979061126709,4,0,3,2,1,5,H-,1,2,3,0,1000,250.0,2,C02CA,448,test
1201.073169708252,4,0,3,2,1,5,H-,1,0,1,0,1000,250.0,0,C02CA,449,test
688.8301372528076,4,0,3,2,1,5,H-,1,3,2,0,1000,250.0,3,C02CA,450,test
1553.1039237976074,4,0,3,2,1,5,H-,1,5,5,0,1000,250.0,5,C02CA,451,test
640.9049034118652,4,0,3,2,1,5,H-,1,0,1,0,1000,250.0,0,C02CA,452,test
753.0808448791504,4,0,3,2,1,5,H-,1,3,2,0,1000,250.0,3,C02CA,453,test
1249.0670680999756,4,0,3,2,1,5,H-,1,4,0,0,1000,250.0,4,C02CA,454,test
960.8888626098633,4,0,3,2,1,5,H-,1,4,0,0,1000,250.0,4,C02CA,455,test
929.1000366210938,4,0,3,2,1,5,H-,1,2,3,0,1000,250.0,2,C02CA,456,test
1025.1009464263916,4,0,3,2,1,5,H-,1,4,0,0,1000,250.0,4,C02CA,457,test
1008.8710784912109,4,0,3,2,1,5,H-,1,5,5,0,1000,250.0,5,C02CA,458,test
896.5878486633301,4,0,3,2,1,5,H-,1,3,2,0,1000,250.0,3,C02CA,459,test
1392.6911354064941,4,0,3,2,1,5,H-,1,5,5,0,1000,250.0,5,C02CA,460,test
1521.003007888794,4,0,3,2,1,5,H-,1,4,0,0,1000,250.0,4,C02CA,461,test
944.7760581970215,4,0,3,2,1,5,H-,1,1,4,0,1000,250.0,1,C02CA,462,test
1263.9691829681396,4,0,3,2,1,5,H-,1,5,5,0,1000,250.0,5,C02CA,463,test
961.2700939178467,4,0,3,2,1,5,H-,1,0,1,0,1000,250.0,0,C02CA,464,test
672.6720333099365,4,0,3,2,1,5,H-,1,0,1,0,1000,250.0,0,C02CA,465,test
608.9999675750732,4,0,3,2,1,5,H-,1,0,1,0,1000,250.0,0,C02CA,466,test
1296.9868183135986,4,0,3,2,1,5,H-,1,1,4,0,1000,250.0,1,C02CA,467,test
784.8269939422607,4,0,3,2,1,5,H-,1,1,4,0,1000,250.0,1,C02CA,468,test
2496.7379570007324,4,0,3,2,1,5,H-,1,5,5,0,1000,250.0,5,C02CA,469,test
784.3220233917236,4,0,3,2,1,5,H-,1,4,0,0,1000,250.0,4,C02CA,470,test
625.0169277191162,4,0,3,2,1,5,H-,1,5,5,0,1000,250.0,5,C02CA,471,test
1041.011095046997,4,0,3,2,1,5,H-,0,2,3,0,1000,250.0,1,C02CA,472,test
881.0720443725586,4,0,3,2,1,5,H-,1,5,5,0,1000,250.0,5,C02CA,473,test
976.6428470611572,4,0,3,2,1,5,H-,1,1,4,0,1000,250.0,1,C02CA,474,test
896.740198135376,4,0,3,2,1,5,H-,1,5,5,0,1000,250.0,5,C02CA,475,test
848.621129989624,4,0,3,2,1,5,H-,1,2,3,0,1000,250.0,2,C02CA,476,test
896.9030380249023,4,0,3,2,1,5,H-,1,3,2,0,1000,250.0,3,C02CA,477,test
720.710039138794,4,0,3,2,1,5,H-,1,3,2,0,1000,250.0,3,C02CA,478,test
1120.293140411377,4,0,3,2,1,5,H-,1,4,0,0,1000,250.0,4,C02CA,479,test
752.7720928192139,4,0,3,2,1,5,H-,1,4,0,0,1000,250.0,4,C02CA,480,test
752.7978420257568,4,0,3,2,1,5,H-,1,2,3,0,1000,250.0,2,C02CA,481,test
672.3690032958984,4,0,3,2,1,5,H-,1,3,2,0,1000,250.0,3,C02CA,482,test
1216.722011566162,4,0,3,2,1,5,H-,1,3,2,0,1000,250.0,3,C02CA,483,test
654.9959182739258,4,0,3,2,1,5,H-,1,3,2,0,1000,250.0,3,C02CA,484,test
656.7471027374268,4,0,3,2,1,5,H-,1,2,3,0,1000,250.0,2,C02CA,485,test
625.0100135803223,4,0,3,2,1,5,H-,1,2,3,0,1000,250.0,2,C02CA,486,test
1472.8329181671143,4,0,3,2,1,5,H-,1,4,0,0,1000,250.0,4,C02CA,487,test
752.7871131896973,4,0,3,2,1,5,H-,1,2,3,0,1000,250.0,2,C02CA,488,test
1680.6449890136719,4,0,3,2,1,5,H-,1,3,2,0,1000,250.0,3,C02CA,489,test
720.6950187683105,4,0,3,2,1,5,H-,1,2,3,0,1000,250.0,2,C02CA,490,test
1328.9570808410645,4,0,3,2,1,5,H-,1,4,0,0,1000,250.0,4,C02CA,491,test
704.7789096832275,4,0,3,2,1,5,H-,1,0,1,0,1000,250.0,0,C02CA,492,test
1600.762128829956,4,0,3,2,1,5,H-,1,3,2,0,1000,250.0,3,C02CA,493,test
1105.0128936767578,4,0,3,2,1,5,H-,1,5,5,0,1000,250.0,5,C02CA,494,test
1072.5929737091064,4,0,3,2,1,5,H-,1,3,2,0,1000,250.0,3,C02CA,495,test
1281.0158729553223,4,0,3,2,1,5,H-,1,4,0,0,1000,250.0,4,C02CA,496,test
1248.7549781799316,4,0,3,2,1,5,H-,1,4,0,0,1000,250.0,4,C02CA,497,test
1152.9860496520996,4,0,3,2,1,5,H-,1,1,4,0,1000,250.0,1,C02CA,498,test
944.6780681610107,4,0,3,2,1,5,H-,1,2,3,0,1000,250.0,2,C02CA,499,test
