RT,SRmap_0,SRmap_1,SRmap_2,SRmap_3,SRmap_4,SRmap_5,condition,correct,correct_response,curstim,ms-precue,ms-prestimblank,ntrials,response,subject,trial,type
1344.6171283721924,3,4,2,1,0,5,M,1,1,3,0,1000,250.0,1,d01sl,0,train
837.25905418396,3,4,2,1,0,5,M,1,3,0,0,1000,250.0,3,d01sl,1,train
752.6590824127197,3,4,2,1,0,5,M,1,1,3,0,1000,250.0,1,d01sl,2,train
576.6291618347168,3,4,2,1,0,5,M,1,0,4,0,1000,250.0,0,d01sl,3,train
672.4710464477539,3,4,2,1,0,5,M,1,2,2,0,1000,250.0,2,d01sl,4,train
624.6628761291504,3,4,2,1,0,5,M,0,1,3,0,1000,250.0,0,d01sl,5,train
624.6118545532227,3,4,2,1,0,5,M,1,1,3,0,1000,250.0,1,d01sl,6,train
464.73097801208496,3,4,2,1,0,5,M,1,1,3,0,1000,250.0,1,d01sl,7,train
400.73704719543457,3,4,2,1,0,5,M,1,2,2,0,1000,250.0,2,d01sl,8,train
464.75696563720703,3,4,2,1,0,5,M,1,0,4,0,1000,250.0,0,d01sl,9,train
544.705867767334,3,4,2,1,0,5,M,1,5,5,0,1000,250.0,5,d01sl,10,train
416.78905487060547,3,4,2,1,0,5,M,0,5,5,0,1000,250.0,4,d01sl,11,train
672.7330684661865,3,4,2,1,0,5,M,1,4,1,0,1000,250.0,4,d01sl,12,train
496.7498779296875,3,4,2,1,0,5,M,1,4,1,0,1000,250.0,4,d01sl,13,train
448.81606101989746,3,4,2,1,0,5,M,1,5,5,0,1000,250.0,5,d01sl,14,train
496.7808723449707,3,4,2,1,0,5,M,0,2,2,0,1000,250.0,3,d01sl,15,train
560.6510639190674,3,4,2,1,0,5,M,1,3,0,0,1000,250.0,3,d01sl,16,train
560.6770515441895,3,4,2,1,0,5,M,1,2,2,0,1000,250.0,2,d01sl,17,train
656.8119525909424,3,4,2,1,0,5,M,0,4,1,0,1000,250.0,5,d01sl,18,train
624.7391700744629,3,4,2,1,0,5,M,1,0,4,0,1000,250.0,0,d01sl,19,train
576.7650604248047,3,4,2,1,0,5,M,1,1,3,0,1000,250.0,1,d01sl,20,train
480.61299324035645,3,4,2,1,0,5,M,1,2,2,0,1000,250.0,2,d01sl,21,train
432.567834854126,3,4,2,1,0,5,M,1,0,4,0,1000,250.0,0,d01sl,22,train
481.01115226745605,3,4,2,1,0,5,M,1,2,2,0,1000,250.0,2,d01sl,23,train
480.93485832214355,3,4,2,1,0,5,M,1,1,3,0,1000,250.0,1,d01sl,24,train
625.0028610229492,3,4,2,1,0,5,M,1,3,0,0,1000,250.0,3,d01sl,25,train
481.01091384887695,3,4,2,1,0,5,M,1,3,0,0,1000,250.0,3,d01sl,26,train
401.0019302368164,3,4,2,1,0,5,M,1,3,0,0,1000,250.0,3,d01sl,27,train
560.9960556030273,3,4,2,1,0,5,M,1,1,3,0,1000,250.0,1,d01sl,28,train
784.782886505127,3,4,2,1,0,5,M,1,4,1,0,1000,250.0,4,d01sl,29,train
416.76998138427734,3,4,2,1,0,5,M,1,4,1,0,1000,250.0,4,d01sl,30,train
608.802080154419,3,4,2,1,0,5,M,1,0,4,0,1000,250.0,0,d01sl,31,train
736.8011474609375,3,4,2,1,0,5,M,1,3,0,0,1000,250.0,3,d01sl,32,train
512.8068923950195,3,4,2,1,0,5,M,1,5,5,0,1000,250.0,5,d01sl,33,train
480.75389862060547,3,4,2,1,0,5,M,1,5,5,0,1000,250.0,5,d01sl,34,train
480.8030128479004,3,4,2,1,0,5,M,1,1,3,0,1000,250.0,1,d01sl,35,train
544.0061092376709,3,4,2,1,0,5,M,1,5,5,0,1000,250.0,5,d01sl,36,train
512.7851963043213,3,4,2,1,0,5,M,1,5,5,0,1000,250.0,5,d01sl,37,train
448.78101348876953,3,4,2,1,0,5,M,1,5,5,0,1000,250.0,5,d01sl,38,train
496.7670440673828,3,4,2,1,0,5,M,1,4,1,0,1000,250.0,4,d01sl,39,train
528.7981033325195,3,4,2,1,0,5,M,1,3,0,0,1000,250.0,3,d01sl,40,train
448.76909255981445,3,4,2,1,0,5,M,1,1,3,0,1000,250.0,1,d01sl,41,train
480.73697090148926,3,4,2,1,0,5,M,1,2,2,0,1000,250.0,2,d01sl,42,train
512.7718448638916,3,4,2,1,0,5,M,0,3,0,0,1000,250.0,2,d01sl,43,train
704.355001449585,3,4,2,1,0,5,M,1,1,3,0,1000,250.0,1,d01sl,44,train
480.741024017334,3,4,2,1,0,5,M,1,0,4,0,1000,250.0,0,d01sl,45,train
784.7769260406494,3,4,2,1,0,5,M,1,4,1,0,1000,250.0,4,d01sl,46,train
640.8178806304932,3,4,2,1,0,5,M,0,3,0,0,1000,250.0,2,d01sl,47,train
752.7320384979248,3,4,2,1,0,5,M,1,4,1,0,1000,250.0,4,d01sl,48,train
384.8240375518799,3,4,2,1,0,5,M,1,4,1,0,1000,250.0,4,d01sl,49,train
592.0109748840332,3,4,2,1,0,5,M,1,1,3,0,1000,250.0,1,d01sl,50,train
592.7820205688477,3,4,2,1,0,5,M,1,3,0,0,1000,250.0,3,d01sl,51,train
592.8330421447754,3,4,2,1,0,5,M,0,3,0,0,1000,250.0,2,d01sl,52,train
832.705020904541,3,4,2,1,0,5,M,1,5,5,0,1000,250.0,5,d01sl,53,train
672.8160381317139,3,4,2,1,0,5,M,1,0,4,0,1000,250.0,0,d01sl,54,train
576.7982006072998,3,4,2,1,0,5,M,0,4,1,0,1000,250.0,3,d01sl,55,train
592.7040576934814,3,4,2,1,0,5,M,1,2,2,0,1000,250.0,2,d01sl,56,train
544.7771549224854,3,4,2,1,0,5,M,1,3,0,0,1000,250.0,3,d01sl,57,train
368.668794631958,3,4,2,1,0,5,M,1,3,0,0,1000,250.0,3,d01sl,58,train
705.4498195648193,3,4,2,1,0,5,M,1,4,1,0,1000,250.0,4,d01sl,59,train
432.79480934143066,3,4,2,1,0,5,M,1,2,2,0,1000,250.0,2,d01sl,60,train
448.7729072570801,3,4,2,1,0,5,M,1,3,0,0,1000,250.0,3,d01sl,61,train
432.7809810638428,3,4,2,1,0,5,M,1,4,1,0,1000,250.0,4,d01sl,62,train
400.806188583374,3,4,2,1,0,5,M,1,3,0,0,1000,250.0,3,d01sl,63,train
464.8120403289795,3,4,2,1,0,5,M,1,4,1,0,1000,250.0,4,d01sl,64,train
752.8030872344971,3,4,2,1,0,5,M,1,3,0,0,1000,250.0,3,d01sl,65,train
416.7499542236328,3,4,2,1,0,5,M,0,5,5,0,1000,250.0,4,d01sl,66,train
528.6870002746582,3,4,2,1,0,5,M,1,0,4,0,1000,250.0,0,d01sl,67,train
400.6509780883789,3,4,2,1,0,5,M,1,1,3,0,1000,250.0,1,d01sl,68,train
624.8090267181396,3,4,2,1,0,5,M,1,4,1,0,1000,250.0,4,d01sl,69,train
576.76100730896,3,4,2,1,0,5,M,1,4,1,0,1000,250.0,4,d01sl,70,train
528.8190841674805,3,4,2,1,0,5,M,1,5,5,0,1000,250.0,5,d01sl,71,train
576.7269134521484,3,4,2,1,0,5,M,1,4,1,0,1000,250.0,4,d01sl,72,train
464.7369384765625,3,4,2,1,0,5,M,1,5,5,0,1000,250.0,5,d01sl,73,train
544.7449684143066,3,4,2,1,0,5,M,1,3,0,0,1000,250.0,3,d01sl,74,train
352.7860641479492,3,4,2,1,0,5,M,1,4,1,0,1000,250.0,4,d01sl,75,train
400.78186988830566,3,4,2,1,0,5,M,1,3,0,0,1000,250.0,3,d01sl,76,train
432.76190757751465,3,4,2,1,0,5,M,0,1,3,0,1000,250.0,3,d01sl,77,train
528.6331176757812,3,4,2,1,0,5,M,1,0,4,0,1000,250.0,0,d01sl,78,train
640.6350135803223,3,4,2,1,0,5,M,1,4,1,0,1000,250.0,4,d01sl,79,train
432.76500701904297,3,4,2,1,0,5,M,1,2,2,0,1000,250.0,2,d01sl,80,train
528.7230014801025,3,4,2,1,0,5,M,1,3,0,0,1000,250.0,3,d01sl,81,train
544.8060035705566,3,4,2,1,0,5,M,1,1,3,0,1000,250.0,1,d01sl,82,train
384.77492332458496,3,4,2,1,0,5,M,1,1,3,0,1000,250.0,1,d01sl,83,train
544.7969436645508,3,4,2,1,0,5,M,1,3,0,0,1000,250.0,3,d01sl,84,train
448.77099990844727,3,4,2,1,0,5,M,1,1,3,0,1000,250.0,1,d01sl,85,train
480.7770252227783,3,4,2,1,0,5,M,1,1,3,0,1000,250.0,1,d01sl,86,train
528.7599563598633,3,4,2,1,0,5,M,1,3,0,0,1000,250.0,3,d01sl,87,train
480.7708263397217,3,4,2,1,0,5,M,0,5,5,0,1000,250.0,3,d01sl,88,train
512.6450061798096,3,4,2,1,0,5,M,1,4,1,0,1000,250.0,4,d01sl,89,train
592.8168296813965,3,4,2,1,0,5,M,1,1,3,0,1000,250.0,1,d01sl,90,train
544.7778701782227,3,4,2,1,0,5,M,1,5,5,0,1000,250.0,5,d01sl,91,train
544.7409152984619,3,4,2,1,0,5,M,1,2,2,0,1000,250.0,2,d01sl,92,train
480.8230400085449,3,4,2,1,0,5,M,1,0,4,0,1000,250.0,0,d01sl,93,train
480.7460308074951,3,4,2,1,0,5,M,1,2,2,0,1000,250.0,2,d01sl,94,train
480.7600975036621,3,4,2,1,0,5,M,1,3,0,0,1000,250.0,3,d01sl,95,train
448.7600326538086,3,4,2,1,0,5,M,1,3,0,0,1000,250.0,3,d01sl,96,train
368.77894401550293,3,4,2,1,0,5,M,1,3,0,0,1000,250.0,3,d01sl,97,train
384.68194007873535,3,4,2,1,0,5,M,0,2,2,0,1000,250.0,3,d01sl,98,train
480.8039665222168,3,4,2,1,0,5,M,1,3,0,0,1000,250.0,3,d01sl,99,train
480.78107833862305,3,4,2,1,0,5,M,1,0,4,0,1000,250.0,0,d01sl,100,train
432.76500701904297,3,4,2,1,0,5,M,1,2,2,0,1000,250.0,2,d01sl,101,train
624.0019798278809,3,4,2,1,0,5,M,1,4,1,0,1000,250.0,4,d01sl,102,train
608.8018417358398,3,4,2,1,0,5,M,1,1,3,0,1000,250.0,1,d01sl,103,train
480.8049201965332,3,4,2,1,0,5,M,1,0,4,0,1000,250.0,0,d01sl,104,train
464.80298042297363,3,4,2,1,0,5,M,1,1,3,0,1000,250.0,1,d01sl,105,train
480.7868003845215,3,4,2,1,0,5,M,1,2,2,0,1000,250.0,2,d01sl,106,train
624.7780323028564,3,4,2,1,0,5,M,1,0,4,0,1000,250.0,0,d01sl,107,train
592.818021774292,3,4,2,1,0,5,M,1,5,5,0,1000,250.0,5,d01sl,108,train
656.804084777832,3,4,2,1,0,5,M,1,4,1,0,1000,250.0,4,d01sl,109,train
496.8080520629883,3,4,2,1,0,5,M,1,0,4,0,1000,250.0,0,d01sl,110,train
432.82198905944824,3,4,2,1,0,5,M,1,1,3,0,1000,250.0,1,d01sl,111,train
576.8418312072754,3,4,2,1,0,5,M,0,4,1,0,1000,250.0,3,d01sl,112,train
464.7061824798584,3,4,2,1,0,5,M,1,5,5,0,1000,250.0,5,d01sl,113,train
416.75806045532227,3,4,2,1,0,5,M,1,4,1,0,1000,250.0,4,d01sl,114,train
592.8149223327637,3,4,2,1,0,5,M,1,2,2,0,1000,250.0,2,d01sl,115,train
432.79504776000977,3,4,2,1,0,5,M,1,1,3,0,1000,250.0,1,d01sl,116,train
496.7780113220215,3,4,2,1,0,5,M,1,2,2,0,1000,250.0,2,d01sl,117,train
464.77603912353516,3,4,2,1,0,5,M,1,1,3,0,1000,250.0,1,d01sl,118,train
672.5199222564697,3,4,2,1,0,5,M,1,3,0,0,1000,250.0,3,d01sl,119,train
480.76510429382324,3,4,2,1,0,5,M,1,0,4,0,1000,250.0,0,d01sl,120,train
576.8041610717773,3,4,2,1,0,5,M,1,5,5,0,1000,250.0,5,d01sl,121,train
448.70996475219727,3,4,2,1,0,5,M,0,1,3,0,1000,250.0,2,d01sl,122,train
448.7581253051758,3,4,2,1,0,5,M,1,2,2,0,1000,250.0,2,d01sl,123,train
544.6100234985352,3,4,2,1,0,5,M,1,4,1,0,1000,250.0,4,d01sl,124,train
416.80383682250977,3,4,2,1,0,5,M,1,2,2,0,1000,250.0,2,d01sl,125,train
528.8050174713135,3,4,2,1,0,5,M,1,5,5,0,1000,250.0,5,d01sl,126,train
496.8221187591553,3,4,2,1,0,5,M,1,2,2,0,1000,250.0,2,d01sl,127,train
560.7681274414062,3,4,2,1,0,5,M,1,4,1,0,1000,250.0,4,d01sl,128,train
496.8409538269043,3,4,2,1,0,5,M,1,5,5,0,1000,250.0,5,d01sl,129,train
576.7900943756104,3,4,2,1,0,5,M,1,1,3,0,1000,250.0,1,d01sl,130,train
496.80113792419434,3,4,2,1,0,5,M,1,1,3,0,1000,250.0,1,d01sl,131,train
368.78204345703125,3,4,2,1,0,5,M,1,1,3,0,1000,250.0,1,d01sl,132,train
528.8050174713135,3,4,2,1,0,5,M,1,2,2,0,1000,250.0,2,d01sl,133,train
528.8279056549072,3,4,2,1,0,5,M,1,1,3,0,1000,250.0,1,d01sl,134,train
448.7788677215576,3,4,2,1,0,5,M,1,1,3,0,1000,250.0,1,d01sl,135,train
560.7988834381104,3,4,2,1,0,5,M,1,5,5,0,1000,250.0,5,d01sl,136,train
656.8441390991211,3,4,2,1,0,5,M,1,3,0,0,1000,250.0,3,d01sl,137,train
544.8019504547119,3,4,2,1,0,5,M,1,1,3,0,1000,250.0,1,d01sl,138,train
560.7900619506836,3,4,2,1,0,5,M,1,5,5,0,1000,250.0,5,d01sl,139,train
720.5350399017334,3,4,2,1,0,5,M,1,3,0,0,1000,250.0,3,d01sl,140,train
624.7389316558838,3,4,2,1,0,5,M,0,4,1,0,1000,250.0,2,d01sl,141,train
688.744068145752,3,4,2,1,0,5,M,1,4,1,0,1000,250.0,4,d01sl,142,train
496.81901931762695,3,4,2,1,0,5,M,1,0,4,0,1000,250.0,0,d01sl,143,train
448.8070011138916,3,4,2,1,0,5,M,1,0,4,0,1000,250.0,0,d01sl,144,train
576.8020153045654,3,4,2,1,0,5,M,1,5,5,0,1000,250.0,5,d01sl,145,train
624.8049736022949,3,4,2,1,0,5,M,1,4,1,0,1000,250.0,4,d01sl,146,train
576.8258571624756,3,4,2,1,0,5,M,1,1,3,0,1000,250.0,1,d01sl,147,train
480.8070659637451,3,4,2,1,0,5,M,1,0,4,0,1000,250.0,0,d01sl,148,train
576.6041278839111,3,4,2,1,0,5,M,1,3,0,0,1000,250.0,3,d01sl,149,train
464.80584144592285,3,4,2,1,0,5,M,1,1,3,0,1000,250.0,1,d01sl,150,train
688.7319087982178,3,4,2,1,0,5,M,1,5,5,0,1000,250.0,5,d01sl,151,train
336.7750644683838,3,4,2,1,0,5,M,1,1,3,0,1000,250.0,1,d01sl,152,train
592.7529335021973,3,4,2,1,0,5,M,1,4,1,0,1000,250.0,4,d01sl,153,train
496.7830181121826,3,4,2,1,0,5,M,1,5,5,0,1000,250.0,5,d01sl,154,train
624.7649192810059,3,4,2,1,0,5,M,1,4,1,0,1000,250.0,4,d01sl,155,train
656.7859649658203,3,4,2,1,0,5,M,1,4,1,0,1000,250.0,4,d01sl,156,train
496.74296379089355,3,4,2,1,0,5,M,0,0,4,0,1000,250.0,3,d01sl,157,train
448.7791061401367,3,4,2,1,0,5,M,1,3,0,0,1000,250.0,3,d01sl,158,train
400.7871150970459,3,4,2,1,0,5,M,1,2,2,0,1000,250.0,2,d01sl,159,train
528.4969806671143,3,4,2,1,0,5,M,1,3,0,0,1000,250.0,3,d01sl,160,train
560.7349872589111,3,4,2,1,0,5,M,1,2,2,0,1000,250.0,2,d01sl,161,train
624.7971057891846,3,4,2,1,0,5,M,1,1,3,0,1000,250.0,1,d01sl,162,train
464.7829532623291,3,4,2,1,0,5,M,1,3,0,0,1000,250.0,3,d01sl,163,train
512.8011703491211,3,4,2,1,0,5,M,1,1,3,0,1000,250.0,1,d01sl,164,train
496.8068599700928,3,4,2,1,0,5,M,1,1,3,0,1000,250.0,1,d01sl,165,train
496.81997299194336,3,4,2,1,0,5,M,1,2,2,0,1000,250.0,2,d01sl,166,train
432.79504776000977,3,4,2,1,0,5,M,0,3,0,0,1000,250.0,2,d01sl,167,train
416.6700839996338,3,4,2,1,0,5,M,1,3,0,0,1000,250.0,3,d01sl,168,train
416.7609214782715,3,4,2,1,0,5,M,1,1,3,0,1000,250.0,1,d01sl,169,train
416.7981147766113,3,4,2,1,0,5,M,1,1,3,0,1000,250.0,1,d01sl,170,train
480.78298568725586,3,4,2,1,0,5,M,1,0,4,0,1000,250.0,0,d01sl,171,train
560.7969760894775,3,4,2,1,0,5,M,1,3,0,0,1000,250.0,3,d01sl,172,train
496.7920780181885,3,4,2,1,0,5,M,1,1,3,0,1000,250.0,1,d01sl,173,train
496.8149662017822,3,4,2,1,0,5,M,1,3,0,0,1000,250.0,3,d01sl,174,train
448.75383377075195,3,4,2,1,0,5,M,0,2,2,0,1000,250.0,3,d01sl,175,train
544.7320938110352,3,4,2,1,0,5,M,1,1,3,0,1000,250.0,1,d01sl,176,train
448.4591484069824,3,4,2,1,0,5,M,1,0,4,0,1000,250.0,0,d01sl,177,train
512.7880573272705,3,4,2,1,0,5,M,1,2,2,0,1000,250.0,2,d01sl,178,train
592.663049697876,3,4,2,1,0,5,M,1,2,2,0,1000,250.0,2,d01sl,179,train
464.80393409729004,3,4,2,1,0,5,M,0,5,5,0,1000,250.0,3,d01sl,180,train
480.7701110839844,3,4,2,1,0,5,M,1,3,0,0,1000,250.0,3,d01sl,181,train
432.7981472015381,3,4,2,1,0,5,M,1,2,2,0,1000,250.0,2,d01sl,182,train
560.8270168304443,3,4,2,1,0,5,M,1,3,0,0,1000,250.0,3,d01sl,183,train
512.8030776977539,3,4,2,1,0,5,M,1,2,2,0,1000,250.0,2,d01sl,184,train
624.8369216918945,3,4,2,1,0,5,M,1,1,3,0,1000,250.0,1,d01sl,185,train
416.79906845092773,3,4,2,1,0,5,M,1,3,0,0,1000,250.0,3,d01sl,186,train
400.7589817047119,3,4,2,1,0,5,M,1,2,2,0,1000,250.0,2,d01sl,187,train
448.8110542297363,3,4,2,1,0,5,M,1,0,4,0,1000,250.0,0,d01sl,188,train
448.7581253051758,3,4,2,1,0,5,M,0,4,1,0,1000,250.0,3,d01sl,189,train
480.79800605773926,3,4,2,1,0,5,M,1,3,0,0,1000,250.0,3,d01sl,190,train
528.8121700286865,3,4,2,1,0,5,M,1,5,5,0,1000,250.0,5,d01sl,191,train
352.8180122375488,3,4,2,1,0,5,M,1,4,1,0,1000,250.0,4,d01sl,192,train
480.8077812194824,3,4,2,1,0,5,M,1,5,5,0,1000,250.0,5,d01sl,193,train
432.77883529663086,3,4,2,1,0,5,M,1,3,0,0,1000,250.0,3,d01sl,194,train
416.79906845092773,3,4,2,1,0,5,M,1,2,2,0,1000,250.0,2,d01sl,195,train
480.79919815063477,3,4,2,1,0,5,M,0,3,0,0,1000,250.0,2,d01sl,196,train
544.705867767334,3,4,2,1,0,5,M,1,0,4,0,1000,250.0,0,d01sl,197,train
464.7870063781738,3,4,2,1,0,5,M,1,0,4,0,1000,250.0,0,d01sl,198,train
528.825044631958,3,4,2,1,0,5,M,1,1,3,0,1000,250.0,1,d01sl,199,train
592.7989482879639,3,4,2,1,0,5,M,1,2,2,0,1000,250.0,2,d01sl,200,train
544.82102394104,3,4,2,1,0,5,M,1,5,5,0,1000,250.0,5,d01sl,201,train
480.8077812194824,3,4,2,1,0,5,M,0,1,3,0,1000,250.0,2,d01sl,202,train
496.75798416137695,3,4,2,1,0,5,M,1,0,4,0,1000,250.0,0,d01sl,203,train
688.7960433959961,3,4,2,1,0,5,M,1,4,1,0,1000,250.0,4,d01sl,204,train
832.8309059143066,3,4,2,1,0,5,M,0,5,5,0,1000,250.0,4,d01sl,205,train
480.68785667419434,3,4,2,1,0,5,M,1,5,5,0,1000,250.0,5,d01sl,206,train
464.7541046142578,3,4,2,1,0,5,M,0,2,2,0,1000,250.0,1,d01sl,207,train
608.759880065918,3,4,2,1,0,5,M,1,1,3,0,1000,250.0,1,d01sl,208,train
464.71309661865234,3,4,2,1,0,5,M,1,5,5,0,1000,250.0,5,d01sl,209,train
480.72004318237305,3,4,2,1,0,5,M,1,1,3,0,1000,250.0,1,d01sl,210,train
560.7781410217285,3,4,2,1,0,5,M,1,5,5,0,1000,250.0,5,d01sl,211,train
320.85108757019043,3,4,2,1,0,5,M,1,1,3,0,1000,250.0,1,d01sl,212,train
368.7591552734375,3,4,2,1,0,5,M,1,1,3,0,1000,250.0,1,d01sl,213,train
448.82917404174805,3,4,2,1,0,5,M,1,5,5,0,1000,250.0,5,d01sl,214,train
576.7719745635986,3,4,2,1,0,5,M,1,5,5,0,1000,250.0,5,d01sl,215,train
432.8000545501709,3,4,2,1,0,5,M,1,4,1,0,1000,250.0,4,d01sl,216,train
608.7710857391357,3,4,2,1,0,5,M,1,1,3,0,1000,250.0,1,d01sl,217,train
448.7900733947754,3,4,2,1,0,5,M,1,4,1,0,1000,250.0,4,d01sl,218,train
352.7209758758545,3,4,2,1,0,5,M,1,4,1,0,1000,250.0,4,d01sl,219,train
528.7899971008301,3,4,2,1,0,5,M,1,0,4,0,1000,250.0,0,d01sl,220,train
640.5739784240723,3,4,2,1,0,5,M,1,4,1,0,1000,250.0,4,d01sl,221,train
560.7919692993164,3,4,2,1,0,5,M,1,1,3,0,1000,250.0,1,d01sl,222,train
480.73506355285645,3,4,2,1,0,5,M,1,5,5,0,1000,250.0,5,d01sl,223,train
624.8228549957275,3,4,2,1,0,5,M,0,3,0,0,1000,250.0,2,d01sl,224,train
416.78905487060547,3,4,2,1,0,5,M,1,4,1,0,1000,250.0,4,d01sl,225,train
512.8231048583984,3,4,2,1,0,5,M,1,4,1,0,1000,250.0,4,d01sl,226,train
480.7870388031006,3,4,2,1,0,5,M,1,3,0,0,1000,250.0,3,d01sl,227,train
592.8268432617188,3,4,2,1,0,5,M,0,2,2,0,1000,250.0,1,d01sl,228,train
560.8119964599609,3,4,2,1,0,5,M,1,2,2,0,1000,250.0,2,d01sl,229,train
400.79593658447266,3,4,2,1,0,5,M,1,2,2,0,1000,250.0,2,d01sl,230,train
400.8221626281738,3,4,2,1,0,5,M,1,2,2,0,1000,250.0,2,d01sl,231,train
400.7711410522461,3,4,2,1,0,5,M,1,2,2,0,1000,250.0,2,d01sl,232,train
384.77206230163574,3,4,2,1,0,5,M,1,2,2,0,1000,250.0,2,d01sl,233,train
432.73186683654785,3,4,2,1,0,5,M,0,4,1,0,1000,250.0,3,d01sl,234,train
576.7240524291992,3,4,2,1,0,5,M,1,2,2,0,1000,250.0,2,d01sl,235,train
528.7988185882568,3,4,2,1,0,5,M,1,1,3,0,1000,250.0,1,d01sl,236,train
416.8570041656494,3,4,2,1,0,5,M,0,5,5,0,1000,250.0,3,d01sl,237,train
464.71095085144043,3,4,2,1,0,5,M,1,3,0,0,1000,250.0,3,d01sl,238,train
512.6001834869385,3,4,2,1,0,5,M,1,5,5,0,1000,250.0,5,d01sl,239,train
496.8268871307373,3,4,2,1,0,5,M,1,3,0,0,1000,250.0,3,d01sl,240,train
432.7359199523926,3,4,2,1,0,5,M,1,3,0,0,1000,250.0,3,d01sl,241,train
432.811975479126,3,4,2,1,0,5,M,1,1,3,0,1000,250.0,1,d01sl,242,train
464.7350311279297,3,4,2,1,0,5,M,1,5,5,0,1000,250.0,5,d01sl,243,train
496.78802490234375,3,4,2,1,0,5,M,1,4,1,0,1000,250.0,4,d01sl,244,train
576.7571926116943,3,4,2,1,0,5,M,1,2,2,0,1000,250.0,2,d01sl,245,train
528.7840366363525,3,4,2,1,0,5,M,1,3,0,0,1000,250.0,3,d01sl,246,train
528.7919044494629,3,4,2,1,0,5,M,1,0,4,0,1000,250.0,0,d01sl,247,train
496.7918395996094,3,4,2,1,0,5,M,0,4,1,0,1000,250.0,3,d01sl,248,train
496.74415588378906,3,4,2,1,0,5,M,1,0,4,0,1000,250.0,0,d01sl,249,train
5344.4859981536865,3,4,2,1,0,5,M,1,0,4,0,1000,250.0,0,d01sl,250,test
2496.673107147217,3,4,2,1,0,5,M,1,2,2,0,1000,250.0,2,d01sl,251,test
416.6691303253174,3,4,2,1,0,5,M,1,0,4,0,1000,250.0,0,d01sl,252,test
560.723066329956,3,4,2,1,0,5,M,1,2,2,0,1000,250.0,2,d01sl,253,test
640.6199932098389,3,4,2,1,0,5,M,1,2,2,0,1000,250.0,2,d01sl,254,test
1168.708086013794,3,4,2,1,0,5,M,1,4,1,0,1000,250.0,4,d01sl,255,test
640.692949295044,3,4,2,1,0,5,M,1,2,2,0,1000,250.0,2,d01sl,256,test
576.4331817626953,3,4,2,1,0,5,M,1,0,4,0,1000,250.0,0,d01sl,257,test
624.7150897979736,3,4,2,1,0,5,M,1,0,4,0,1000,250.0,0,d01sl,258,test
672.774076461792,3,4,2,1,0,5,M,1,4,1,0,1000,250.0,4,d01sl,259,test
1104.727029800415,3,4,2,1,0,5,M,1,5,5,0,1000,250.0,5,d01sl,260,test
1568.7241554260254,3,4,2,1,0,5,M,1,1,3,0,1000,250.0,1,d01sl,261,test
1536.6718769073486,3,4,2,1,0,5,M,1,3,0,0,1000,250.0,3,d01sl,262,test
704.7450542449951,3,4,2,1,0,5,M,1,3,0,0,1000,250.0,3,d01sl,263,test
880.7668685913086,3,4,2,1,0,5,M,0,4,1,0,1000,250.0,2,d01sl,264,test
800.739049911499,3,4,2,1,0,5,M,1,2,2,0,1000,250.0,2,d01sl,265,test
944.7400569915771,3,4,2,1,0,5,M,1,1,3,0,1000,250.0,1,d01sl,266,test
1328.65309715271,3,4,2,1,0,5,M,1,4,1,0,1000,250.0,4,d01sl,267,test
608.7279319763184,3,4,2,1,0,5,M,1,0,4,0,1000,250.0,0,d01sl,268,test
800.6219863891602,3,4,2,1,0,5,M,1,5,5,0,1000,250.0,5,d01sl,269,test
864.7317886352539,3,4,2,1,0,5,M,1,4,1,0,1000,250.0,4,d01sl,270,test
656.761884689331,3,4,2,1,0,5,M,1,5,5,0,1000,250.0,5,d01sl,271,test
576.7619609832764,3,4,2,1,0,5,M,1,0,4,0,1000,250.0,0,d01sl,272,test
2496.7520236968994,3,4,2,1,0,5,M,1,3,0,0,1000,250.0,3,d01sl,273,test
624.6960163116455,3,4,2,1,0,5,M,1,2,2,0,1000,250.0,2,d01sl,274,test
656.7380428314209,3,4,2,1,0,5,M,1,3,0,0,1000,250.0,3,d01sl,275,test
608.7400913238525,3,4,2,1,0,5,M,1,5,5,0,1000,250.0,5,d01sl,276,test
544.7380542755127,3,4,2,1,0,5,M,1,4,1,0,1000,250.0,4,d01sl,277,test
848.6762046813965,3,4,2,1,0,5,M,0,3,0,0,1000,250.0,5,d01sl,278,test
672.6999282836914,3,4,2,1,0,5,M,1,0,4,0,1000,250.0,0,d01sl,279,test
512.7260684967041,3,4,2,1,0,5,M,1,0,4,0,1000,250.0,0,d01sl,280,test
656.7580699920654,3,4,2,1,0,5,M,1,5,5,0,1000,250.0,5,d01sl,281,test
608.7231636047363,3,4,2,1,0,5,M,1,0,4,0,1000,250.0,0,d01sl,282,test
1168.7979698181152,3,4,2,1,0,5,M,1,3,0,0,1000,250.0,3,d01sl,283,test
560.7249736785889,3,4,2,1,0,5,M,1,2,2,0,1000,250.0,2,d01sl,284,test
592.7479267120361,3,4,2,1,0,5,M,1,0,4,0,1000,250.0,0,d01sl,285,test
512.7251148223877,3,4,2,1,0,5,M,1,0,4,0,1000,250.0,0,d01sl,286,test
640.7220363616943,3,4,2,1,0,5,M,1,1,3,0,1000,250.0,1,d01sl,287,test
624.71604347229,3,4,2,1,0,5,M,1,5,5,0,1000,250.0,5,d01sl,288,test
1120.7740306854248,3,4,2,1,0,5,M,0,1,3,0,1000,250.0,5,d01sl,289,test
1040.79008102417,3,4,2,1,0,5,M,1,3,0,0,1000,250.0,3,d01sl,290,test
624.6678829193115,3,4,2,1,0,5,M,1,2,2,0,1000,250.0,2,d01sl,291,test
848.6998081207275,3,4,2,1,0,5,M,0,1,3,0,1000,250.0,0,d01sl,292,test
1136.8041038513184,3,4,2,1,0,5,M,1,3,0,0,1000,250.0,3,d01sl,293,test
608.726978302002,3,4,2,1,0,5,M,1,5,5,0,1000,250.0,5,d01sl,294,test
528.7251472473145,3,4,2,1,0,5,M,0,2,2,0,1000,250.0,3,d01sl,295,test
416.72587394714355,3,4,2,1,0,5,M,1,2,2,0,1000,250.0,2,d01sl,296,test
1072.7670192718506,3,4,2,1,0,5,M,1,3,0,0,1000,250.0,3,d01sl,297,test
544.7280406951904,3,4,2,1,0,5,M,1,2,2,0,1000,250.0,2,d01sl,298,test
560.5981349945068,3,4,2,1,0,5,M,1,1,3,0,1000,250.0,1,d01sl,299,test
560.7161521911621,3,4,2,1,0,5,M,1,4,1,0,1000,250.0,4,d01sl,300,test
704.7088146209717,3,4,2,1,0,5,M,1,1,3,0,1000,250.0,1,d01sl,301,test
608.7231636047363,3,4,2,1,0,5,M,1,2,2,0,1000,250.0,2,d01sl,302,test
672.7330684661865,3,4,2,1,0,5,M,1,1,3,0,1000,250.0,1,d01sl,303,test
816.7438507080078,3,4,2,1,0,5,M,1,3,0,0,1000,250.0,3,d01sl,304,test
528.7370681762695,3,4,2,1,0,5,M,1,4,1,0,1000,250.0,4,d01sl,305,test
656.7420959472656,3,4,2,1,0,5,M,1,2,2,0,1000,250.0,2,d01sl,306,test
560.7199668884277,3,4,2,1,0,5,M,1,1,3,0,1000,250.0,1,d01sl,307,test
704.7319412231445,3,4,2,1,0,5,M,1,3,0,0,1000,250.0,3,d01sl,308,test
448.7578868865967,3,4,2,1,0,5,M,1,3,0,0,1000,250.0,3,d01sl,309,test
624.7179508209229,3,4,2,1,0,5,M,1,2,2,0,1000,250.0,2,d01sl,310,test
544.7158813476562,3,4,2,1,0,5,M,1,1,3,0,1000,250.0,1,d01sl,311,test
928.7559986114502,3,4,2,1,0,5,M,1,3,0,0,1000,250.0,3,d01sl,312,test
512.7289295196533,3,4,2,1,0,5,M,1,4,1,0,1000,250.0,4,d01sl,313,test
624.7000694274902,3,4,2,1,0,5,M,1,3,0,0,1000,250.0,3,d01sl,314,test
480.49187660217285,3,4,2,1,0,5,M,1,4,1,0,1000,250.0,4,d01sl,315,test
512.6769542694092,3,4,2,1,0,5,M,1,2,2,0,1000,250.0,2,d01sl,316,test
480.7569980621338,3,4,2,1,0,5,M,1,4,1,0,1000,250.0,4,d01sl,317,test
624.4990825653076,3,4,2,1,0,5,M,1,5,5,0,1000,250.0,5,d01sl,318,test
656.7192077636719,3,4,2,1,0,5,M,1,5,5,0,1000,250.0,5,d01sl,319,test
416.69487953186035,3,4,2,1,0,5,M,1,5,5,0,1000,250.0,5,d01sl,320,test
608.7419986724854,3,4,2,1,0,5,M,1,3,0,0,1000,250.0,3,d01sl,321,test
512.7120018005371,3,4,2,1,0,5,M,1,2,2,0,1000,250.0,2,d01sl,322,test
624.7320175170898,3,4,2,1,0,5,M,1,5,5,0,1000,250.0,5,d01sl,323,test
704.8180103302002,3,4,2,1,0,5,M,1,1,3,0,1000,250.0,1,d01sl,324,test
528.7251472473145,3,4,2,1,0,5,M,1,4,1,0,1000,250.0,4,d01sl,325,test
624.7220039367676,3,4,2,1,0,5,M,1,3,0,0,1000,250.0,3,d01sl,326,test
448.7030506134033,3,4,2,1,0,5,M,1,4,1,0,1000,250.0,4,d01sl,327,test
592.7259922027588,3,4,2,1,0,5,M,1,5,5,0,1000,250.0,5,d01sl,328,test
576.6210556030273,3,4,2,1,0,5,M,1,4,1,0,1000,250.0,4,d01sl,329,test
512.6049518585205,3,4,2,1,0,5,M,1,2,2,0,1000,250.0,2,d01sl,330,test
432.70397186279297,3,4,2,1,0,5,M,1,4,1,0,1000,250.0,4,d01sl,331,test
720.757007598877,3,4,2,1,0,5,M,1,0,4,0,1000,250.0,0,d01sl,332,test
528.6898612976074,3,4,2,1,0,5,M,1,5,5,0,1000,250.0,5,d01sl,333,test
352.71596908569336,3,4,2,1,0,5,M,1,1,3,0,1000,250.0,1,d01sl,334,test
560.7469081878662,3,4,2,1,0,5,M,0,3,0,0,1000,250.0,5,d01sl,335,test
480.4501533508301,3,4,2,1,0,5,M,1,1,3,0,1000,250.0,1,d01sl,336,test
528.7120342254639,3,4,2,1,0,5,M,1,5,5,0,1000,250.0,5,d01sl,337,test
544.7180271148682,3,4,2,1,0,5,M,1,2,2,0,1000,250.0,2,d01sl,338,test
1056.771993637085,3,4,2,1,0,5,M,1,3,0,0,1000,250.0,3,d01sl,339,test
384.7229480743408,3,4,2,1,0,5,M,1,3,0,0,1000,250.0,3,d01sl,340,test
496.74510955810547,3,4,2,1,0,5,M,1,2,2,0,1000,250.0,2,d01sl,341,test
480.7450771331787,3,4,2,1,0,5,M,1,4,1,0,1000,250.0,4,d01sl,342,test
368.73579025268555,3,4,2,1,0,5,M,1,4,1,0,1000,250.0,4,d01sl,343,test
528.7158489227295,3,4,2,1,0,5,M,1,3,0,0,1000,250.0,3,d01sl,344,test
544.7149276733398,3,4,2,1,0,5,M,1,5,5,0,1000,250.0,5,d01sl,345,test
544.7568893432617,3,4,2,1,0,5,M,1,5,5,0,1000,250.0,5,d01sl,346,test
512.7298831939697,3,4,2,1,0,5,M,1,2,2,0,1000,250.0,2,d01sl,347,test
416.68200492858887,3,4,2,1,0,5,M,1,3,0,0,1000,250.0,3,d01sl,348,test
496.74415588378906,3,4,2,1,0,5,M,1,1,3,0,1000,250.0,1,d01sl,349,test
592.7078723907471,3,4,2,1,0,5,M,1,3,0,0,1000,250.0,3,d01sl,350,test
336.637020111084,3,4,2,1,0,5,M,0,0,4,0,1000,250.0,3,d01sl,351,test
512.7151012420654,3,4,2,1,0,5,M,0,4,1,0,1000,250.0,3,d01sl,352,test
464.69902992248535,3,4,2,1,0,5,M,1,4,1,0,1000,250.0,4,d01sl,353,test
528.6998748779297,3,4,2,1,0,5,M,1,2,2,0,1000,250.0,2,d01sl,354,test
512.7241611480713,3,4,2,1,0,5,M,1,2,2,0,1000,250.0,2,d01sl,355,test
400.6810188293457,3,4,2,1,0,5,M,1,2,2,0,1000,250.0,2,d01sl,356,test
1072.610855102539,3,4,2,1,0,5,M,1,3,0,0,1000,250.0,3,d01sl,357,test
528.7160873413086,3,4,2,1,0,5,M,1,0,4,0,1000,250.0,0,d01sl,358,test
688.6081695556641,3,4,2,1,0,5,M,1,3,0,0,1000,250.0,3,d01sl,359,test
384.69910621643066,3,4,2,1,0,5,M,1,3,0,0,1000,250.0,3,d01sl,360,test
368.7310218811035,3,4,2,1,0,5,M,1,3,0,0,1000,250.0,3,d01sl,361,test
432.7371120452881,3,4,2,1,0,5,M,1,3,0,0,1000,250.0,3,d01sl,362,test
544.7089672088623,3,4,2,1,0,5,M,1,0,4,0,1000,250.0,0,d01sl,363,test
464.7071361541748,3,4,2,1,0,5,M,0,5,5,0,1000,250.0,4,d01sl,364,test
416.69702529907227,3,4,2,1,0,5,M,1,3,0,0,1000,250.0,3,d01sl,365,test
384.71102714538574,3,4,2,1,0,5,M,1,3,0,0,1000,250.0,3,d01sl,366,test
512.7348899841309,3,4,2,1,0,5,M,1,0,4,0,1000,250.0,0,d01sl,367,test
512.7320289611816,3,4,2,1,0,5,M,0,3,0,0,1000,250.0,0,d01sl,368,test
448.7028121948242,3,4,2,1,0,5,M,1,0,4,0,1000,250.0,0,d01sl,369,test
704.721212387085,3,4,2,1,0,5,M,1,5,5,0,1000,250.0,5,d01sl,370,test
512.6960277557373,3,4,2,1,0,5,M,1,0,4,0,1000,250.0,0,d01sl,371,test
512.692928314209,3,4,2,1,0,5,M,0,1,3,0,1000,250.0,0,d01sl,372,test
464.7200107574463,3,4,2,1,0,5,M,1,3,0,0,1000,250.0,3,d01sl,373,test
528.7289619445801,3,4,2,1,0,5,M,1,0,4,0,1000,250.0,0,d01sl,374,test
432.71613121032715,3,4,2,1,0,5,M,0,2,2,0,1000,250.0,0,d01sl,375,test
512.6101970672607,3,4,2,1,0,5,M,1,4,1,0,1000,250.0,4,d01sl,376,test
400.70509910583496,3,4,2,1,0,5,M,1,4,1,0,1000,250.0,4,d01sl,377,test
496.7379570007324,3,4,2,1,0,5,M,1,3,0,0,1000,250.0,3,d01sl,378,test
976.7649173736572,3,4,2,1,0,5,M,1,5,5,0,1000,250.0,5,d01sl,379,test
592.7281379699707,3,4,2,1,0,5,M,1,2,2,0,1000,250.0,2,d01sl,380,test
576.7209529876709,3,4,2,1,0,5,M,0,3,0,0,1000,250.0,5,d01sl,381,test
528.7480354309082,3,4,2,1,0,5,M,1,0,4,0,1000,250.0,0,d01sl,382,test
528.7280082702637,3,4,2,1,0,5,M,1,4,1,0,1000,250.0,4,d01sl,383,test
656.7111015319824,3,4,2,1,0,5,M,1,5,5,0,1000,250.0,5,d01sl,384,test
464.68281745910645,3,4,2,1,0,5,M,0,2,2,0,1000,250.0,3,d01sl,385,test
416.6290760040283,3,4,2,1,0,5,M,1,1,3,0,1000,250.0,1,d01sl,386,test
624.7379779815674,3,4,2,1,0,5,M,1,5,5,0,1000,250.0,5,d01sl,387,test
352.69808769226074,3,4,2,1,0,5,M,1,1,3,0,1000,250.0,1,d01sl,388,test
544.6560382843018,3,4,2,1,0,5,M,0,2,2,0,1000,250.0,3,d01sl,389,test
544.6569919586182,3,4,2,1,0,5,M,1,0,4,0,1000,250.0,0,d01sl,390,test
496.5550899505615,3,4,2,1,0,5,M,1,1,3,0,1000,250.0,1,d01sl,391,test
496.63591384887695,3,4,2,1,0,5,M,1,2,2,0,1000,250.0,2,d01sl,392,test
624.7310638427734,3,4,2,1,0,5,M,1,1,3,0,1000,250.0,1,d01sl,393,test
512.7041339874268,3,4,2,1,0,5,M,1,4,1,0,1000,250.0,4,d01sl,394,test
480.7240962982178,3,4,2,1,0,5,M,1,0,4,0,1000,250.0,0,d01sl,395,test
544.7041988372803,3,4,2,1,0,5,M,1,4,1,0,1000,250.0,4,d01sl,396,test
608.7260246276855,3,4,2,1,0,5,M,1,0,4,0,1000,250.0,0,d01sl,397,test
704.7491073608398,3,4,2,1,0,5,M,0,3,0,0,1000,250.0,5,d01sl,398,test
608.7310314178467,3,4,2,1,0,5,M,1,4,1,0,1000,250.0,4,d01sl,399,test
592.749834060669,3,4,2,1,0,5,M,1,3,0,0,1000,250.0,3,d01sl,400,test
480.6561470031738,3,4,2,1,0,5,M,0,5,5,0,1000,250.0,4,d01sl,401,test
544.687032699585,3,4,2,1,0,5,M,1,1,3,0,1000,250.0,1,d01sl,402,test
624.7100830078125,3,4,2,1,0,5,M,1,3,0,0,1000,250.0,3,d01sl,403,test
432.70397186279297,3,4,2,1,0,5,M,0,5,5,0,1000,250.0,4,d01sl,404,test
528.7458896636963,3,4,2,1,0,5,M,1,4,1,0,1000,250.0,4,d01sl,405,test
512.7389430999756,3,4,2,1,0,5,M,0,2,2,0,1000,250.0,3,d01sl,406,test
544.7108745574951,3,4,2,1,0,5,M,0,3,0,0,1000,250.0,4,d01sl,407,test
560.6558322906494,3,4,2,1,0,5,M,1,5,5,0,1000,250.0,5,d01sl,408,test
608.7009906768799,3,4,2,1,0,5,M,1,3,0,0,1000,250.0,3,d01sl,409,test
384.706974029541,3,4,2,1,0,5,M,1,3,0,0,1000,250.0,3,d01sl,410,test
368.6971664428711,3,4,2,1,0,5,M,1,3,0,0,1000,250.0,3,d01sl,411,test
352.3571491241455,3,4,2,1,0,5,M,0,3,0,0,1000,250.0,5,d01sl,412,test
400.7101058959961,3,4,2,1,0,5,M,1,3,0,0,1000,250.0,3,d01sl,413,test
544.5160865783691,3,4,2,1,0,5,M,1,0,4,0,1000,250.0,0,d01sl,414,test
560.7521533966064,3,4,2,1,0,5,M,1,4,1,0,1000,250.0,4,d01sl,415,test
576.7109394073486,3,4,2,1,0,5,M,1,2,2,0,1000,250.0,2,d01sl,416,test
480.6478023529053,3,4,2,1,0,5,M,1,0,4,0,1000,250.0,0,d01sl,417,test
592.7238464355469,3,4,2,1,0,5,M,1,5,5,0,1000,250.0,5,d01sl,418,test
512.5851631164551,3,4,2,1,0,5,M,1,4,1,0,1000,250.0,4,d01sl,419,test
480.7431697845459,3,4,2,1,0,5,M,1,0,4,0,1000,250.0,0,d01sl,420,test
560.7380867004395,3,4,2,1,0,5,M,1,4,1,0,1000,250.0,4,d01sl,421,test
560.6729984283447,3,4,2,1,0,5,M,1,5,5,0,1000,250.0,5,d01sl,422,test
528.7251472473145,3,4,2,1,0,5,M,1,1,3,0,1000,250.0,1,d01sl,423,test
608.7498664855957,3,4,2,1,0,5,M,1,5,5,0,1000,250.0,5,d01sl,424,test
416.6991710662842,3,4,2,1,0,5,M,1,3,0,0,1000,250.0,3,d01sl,425,test
480.7291030883789,3,4,2,1,0,5,M,1,2,2,0,1000,250.0,2,d01sl,426,test
560.7190132141113,3,4,2,1,0,5,M,1,0,4,0,1000,250.0,0,d01sl,427,test
416.74304008483887,3,4,2,1,0,5,M,0,5,5,0,1000,250.0,3,d01sl,428,test
624.7320175170898,3,4,2,1,0,5,M,1,1,3,0,1000,250.0,1,d01sl,429,test
480.7169437408447,3,4,2,1,0,5,M,1,4,1,0,1000,250.0,4,d01sl,430,test
448.6978054046631,3,4,2,1,0,5,M,1,4,1,0,1000,250.0,4,d01sl,431,test
528.7201404571533,3,4,2,1,0,5,M,1,2,2,0,1000,250.0,2,d01sl,432,test
624.7241497039795,3,4,2,1,0,5,M,1,3,0,0,1000,250.0,3,d01sl,433,test
512.7201080322266,3,4,2,1,0,5,M,1,5,5,0,1000,250.0,5,d01sl,434,test
560.7039928436279,3,4,2,1,0,5,M,1,0,4,0,1000,250.0,0,d01sl,435,test
832.5908184051514,3,4,2,1,0,5,M,1,5,5,0,1000,250.0,5,d01sl,436,test
496.7188835144043,3,4,2,1,0,5,M,1,4,1,0,1000,250.0,4,d01sl,437,test
496.737003326416,3,4,2,1,0,5,M,1,5,5,0,1000,250.0,5,d01sl,438,test
816.7459964752197,3,4,2,1,0,5,M,1,3,0,0,1000,250.0,3,d01sl,439,test
544.7289943695068,3,4,2,1,0,5,M,1,0,4,0,1000,250.0,0,d01sl,440,test
656.7568778991699,3,4,2,1,0,5,M,1,3,0,0,1000,250.0,3,d01sl,441,test
464.7200107574463,3,4,2,1,0,5,M,1,4,1,0,1000,250.0,4,d01sl,442,test
544.7478294372559,3,4,2,1,0,5,M,1,0,4,0,1000,250.0,0,d01sl,443,test
496.70982360839844,3,4,2,1,0,5,M,0,2,2,0,1000,250.0,3,d01sl,444,test
608.6649894714355,3,4,2,1,0,5,M,1,0,4,0,1000,250.0,0,d01sl,445,test
448.71020317077637,3,4,2,1,0,5,M,1,4,1,0,1000,250.0,4,d01sl,446,test
464.71500396728516,3,4,2,1,0,5,M,1,0,4,0,1000,250.0,0,d01sl,447,test
528.735876083374,3,4,2,1,0,5,M,1,4,1,0,1000,250.0,4,d01sl,448,test
544.558048248291,3,4,2,1,0,5,M,1,0,4,0,1000,250.0,0,d01sl,449,test
416.6882038116455,3,4,2,1,0,5,M,1,0,4,0,1000,250.0,0,d01sl,450,test
560.6930255889893,3,4,2,1,0,5,M,1,3,0,0,1000,250.0,3,d01sl,451,test
448.7118721008301,3,4,2,1,0,5,M,1,4,1,0,1000,250.0,4,d01sl,452,test
368.74985694885254,3,4,2,1,0,5,M,1,4,1,0,1000,250.0,4,d01sl,453,test
544.7311401367188,3,4,2,1,0,5,M,1,2,2,0,1000,250.0,2,d01sl,454,test
448.7431049346924,3,4,2,1,0,5,M,1,4,1,0,1000,250.0,4,d01sl,455,test
400.7091522216797,3,4,2,1,0,5,M,0,2,2,0,1000,250.0,3,d01sl,456,test
544.579029083252,3,4,2,1,0,5,M,1,5,5,0,1000,250.0,5,d01sl,457,test
384.72604751586914,3,4,2,1,0,5,M,1,2,2,0,1000,250.0,2,d01sl,458,test
400.73394775390625,3,4,2,1,0,5,M,0,2,2,0,1000,250.0,3,d01sl,459,test
480.71980476379395,3,4,2,1,0,5,M,1,1,3,0,1000,250.0,1,d01sl,460,test
512.692928314209,3,4,2,1,0,5,M,1,0,4,0,1000,250.0,0,d01sl,461,test
528.7110805511475,3,4,2,1,0,5,M,1,1,3,0,1000,250.0,1,d01sl,462,test
576.7028331756592,3,4,2,1,0,5,M,1,0,4,0,1000,250.0,0,d01sl,463,test
480.73387145996094,3,4,2,1,0,5,M,1,4,1,0,1000,250.0,4,d01sl,464,test
480.6971549987793,3,4,2,1,0,5,M,0,2,2,0,1000,250.0,1,d01sl,465,test
496.61898612976074,3,4,2,1,0,5,M,1,4,1,0,1000,250.0,4,d01sl,466,test
576.7560005187988,3,4,2,1,0,5,M,1,5,5,0,1000,250.0,5,d01sl,467,test
560.7209205627441,3,4,2,1,0,5,M,1,3,0,0,1000,250.0,3,d01sl,468,test
512.714147567749,3,4,2,1,0,5,M,1,0,4,0,1000,250.0,0,d01sl,469,test
528.7280082702637,3,4,2,1,0,5,M,1,2,2,0,1000,250.0,2,d01sl,470,test
432.7108860015869,3,4,2,1,0,5,M,0,4,1,0,1000,250.0,3,d01sl,471,test
576.7321586608887,3,4,2,1,0,5,M,1,2,2,0,1000,250.0,2,d01sl,472,test
496.7608451843262,3,4,2,1,0,5,M,1,4,1,0,1000,250.0,4,d01sl,473,test
496.7460632324219,3,4,2,1,0,5,M,1,3,0,0,1000,250.0,3,d01sl,474,test
672.6398468017578,3,4,2,1,0,5,M,1,5,5,0,1000,250.0,5,d01sl,475,test
480.6818962097168,3,4,2,1,0,5,M,1,1,3,0,1000,250.0,1,d01sl,476,test
544.7220802307129,3,4,2,1,0,5,M,1,2,2,0,1000,250.0,2,d01sl,477,test
576.7509937286377,3,4,2,1,0,5,M,0,5,5,0,1000,250.0,3,d01sl,478,test
528.6319255828857,3,4,2,1,0,5,M,1,1,3,0,1000,250.0,1,d01sl,479,test
400.7229804992676,3,4,2,1,0,5,M,1,1,3,0,1000,250.0,1,d01sl,480,test
464.74289894104004,3,4,2,1,0,5,M,1,3,0,0,1000,250.0,3,d01sl,481,test
512.7048492431641,3,4,2,1,0,5,M,1,1,3,0,1000,250.0,1,d01sl,482,test
624.7320175170898,3,4,2,1,0,5,M,1,3,0,0,1000,250.0,3,d01sl,483,test
400.73180198669434,3,4,2,1,0,5,M,1,3,0,0,1000,250.0,3,d01sl,484,test
560.7481002807617,3,4,2,1,0,5,M,1,0,4,0,1000,250.0,0,d01sl,485,test
624.7360706329346,3,4,2,1,0,5,M,1,3,0,0,1000,250.0,3,d01sl,486,test
496.73008918762207,3,4,2,1,0,5,M,1,0,4,0,1000,250.0,0,d01sl,487,test
496.7648983001709,3,4,2,1,0,5,M,1,5,5,0,1000,250.0,5,d01sl,488,test
480.7019233703613,3,4,2,1,0,5,M,1,0,4,0,1000,250.0,0,d01sl,489,test
784.7459316253662,3,4,2,1,0,5,M,0,5,5,0,1000,250.0,3,d01sl,490,test
464.7071361541748,3,4,2,1,0,5,M,1,3,0,0,1000,250.0,3,d01sl,491,test
512.6020908355713,3,4,2,1,0,5,M,1,4,1,0,1000,250.0,4,d01sl,492,test
544.727087020874,3,4,2,1,0,5,M,1,0,4,0,1000,250.0,0,d01sl,493,test
512.7520561218262,3,4,2,1,0,5,M,1,4,1,0,1000,250.0,4,d01sl,494,test
592.7400588989258,3,4,2,1,0,5,M,1,5,5,0,1000,250.0,5,d01sl,495,test
512.7339363098145,3,4,2,1,0,5,M,1,0,4,0,1000,250.0,0,d01sl,496,test
416.40186309814453,3,4,2,1,0,5,M,1,3,0,0,1000,250.0,3,d01sl,497,test
912.5289916992188,3,4,2,1,0,5,M,1,2,2,0,1000,250.0,2,d01sl,498,test
432.6808452606201,3,4,2,1,0,5,M,1,4,1,0,1000,250.0,4,d01sl,499,test
