RT,SRmap_0,SRmap_1,SRmap_2,SRmap_3,SRmap_4,SRmap_5,condition,correct,correct_response,curstim,ms-precue,ms-prestimblank,ntrials,response,subject,trial,type
4239.6399974823,2,5,1,3,0,4,H-,1,4,5,0,1000,250.0,4,E06YS,0,train
3120.516777038574,2,5,1,3,0,4,H-,1,0,4,0,1000,250.0,0,E06YS,1,train
1824.4209289550781,2,5,1,3,0,4,H-,1,3,3,0,1000,250.0,3,E06YS,2,train
2224.3587970733643,2,5,1,3,0,4,H-,1,5,1,0,1000,250.0,5,E06YS,3,train
2480.8311462402344,2,5,1,3,0,4,H-,1,2,0,0,1000,250.0,2,E06YS,4,train
1296.7760562896729,2,5,1,3,0,4,H-,1,2,0,0,1000,250.0,2,E06YS,5,train
1216.7210578918457,2,5,1,3,0,4,H-,1,3,3,0,1000,250.0,3,E06YS,6,train
1744.262933731079,2,5,1,3,0,4,H-,1,1,2,0,1000,250.0,1,E06YS,7,train
2064.470052719116,2,5,1,3,0,4,H-,1,4,5,0,1000,250.0,4,E06YS,8,train
1456.2370777130127,2,5,1,3,0,4,H-,1,0,4,0,1000,250.0,0,E06YS,9,train
1280.5721759796143,2,5,1,3,0,4,H-,1,3,3,0,1000,250.0,3,E06YS,10,train
1296.46897315979,2,5,1,3,0,4,H-,1,0,4,0,1000,250.0,0,E06YS,11,train
1184.5300197601318,2,5,1,3,0,4,H-,1,3,3,0,1000,250.0,3,E06YS,12,train
1904.5698642730713,2,5,1,3,0,4,H-,1,1,2,0,1000,250.0,1,E06YS,13,train
1280.578851699829,2,5,1,3,0,4,H-,0,2,0,0,1000,250.0,3,E06YS,14,train
1104.274034500122,2,5,1,3,0,4,H-,1,1,2,0,1000,250.0,1,E06YS,15,train
1248.528003692627,2,5,1,3,0,4,H-,1,3,3,0,1000,250.0,3,E06YS,16,train
976.6230583190918,2,5,1,3,0,4,H-,1,4,5,0,1000,250.0,4,E06YS,17,train
1776.5789031982422,2,5,1,3,0,4,H-,1,4,5,0,1000,250.0,4,E06YS,18,train
1728.7390232086182,2,5,1,3,0,4,H-,1,0,4,0,1000,250.0,0,E06YS,19,train
1168.8580513000488,2,5,1,3,0,4,H-,1,3,3,0,1000,250.0,3,E06YS,20,train
1360.3851795196533,2,5,1,3,0,4,H-,1,2,0,0,1000,250.0,2,E06YS,21,train
1568.566083908081,2,5,1,3,0,4,H-,1,2,0,0,1000,250.0,2,E06YS,22,train
1520.585060119629,2,5,1,3,0,4,H-,1,4,5,0,1000,250.0,4,E06YS,23,train
1424.6079921722412,2,5,1,3,0,4,H-,1,1,2,0,1000,250.0,1,E06YS,24,train
1440.5338764190674,2,5,1,3,0,4,H-,1,3,3,0,1000,250.0,3,E06YS,25,train
1120.5949783325195,2,5,1,3,0,4,H-,1,0,4,0,1000,250.0,0,E06YS,26,train
848.5989570617676,2,5,1,3,0,4,H-,1,3,3,0,1000,250.0,3,E06YS,27,train
1552.5319576263428,2,5,1,3,0,4,H-,1,3,3,0,1000,250.0,3,E06YS,28,train
1200.4148960113525,2,5,1,3,0,4,H-,1,1,2,0,1000,250.0,1,E06YS,29,train
1328.5040855407715,2,5,1,3,0,4,H-,1,3,3,0,1000,250.0,3,E06YS,30,train
880.5711269378662,2,5,1,3,0,4,H-,1,3,3,0,1000,250.0,3,E06YS,31,train
1232.5639724731445,2,5,1,3,0,4,H-,1,1,2,0,1000,250.0,1,E06YS,32,train
768.5410976409912,2,5,1,3,0,4,H-,1,0,4,0,1000,250.0,0,E06YS,33,train
1456.463098526001,2,5,1,3,0,4,H-,1,5,1,0,1000,250.0,5,E06YS,34,train
1056.5249919891357,2,5,1,3,0,4,H-,1,2,0,0,1000,250.0,2,E06YS,35,train
1600.4438400268555,2,5,1,3,0,4,H-,1,0,4,0,1000,250.0,0,E06YS,36,train
976.6190052032471,2,5,1,3,0,4,H-,1,1,2,0,1000,250.0,1,E06YS,37,train
2496.5779781341553,2,5,1,3,0,4,H-,1,4,5,0,1000,250.0,4,E06YS,38,train
672.6069450378418,2,5,1,3,0,4,H-,1,4,5,0,1000,250.0,4,E06YS,39,train
784.6059799194336,2,5,1,3,0,4,H-,1,3,3,0,1000,250.0,3,E06YS,40,train
672.6548671722412,2,5,1,3,0,4,H-,1,5,1,0,1000,250.0,5,E06YS,41,train
592.7169322967529,2,5,1,3,0,4,H-,1,5,1,0,1000,250.0,5,E06YS,42,train
1136.5950107574463,2,5,1,3,0,4,H-,1,1,2,0,1000,250.0,1,E06YS,43,train
688.5199546813965,2,5,1,3,0,4,H-,1,0,4,0,1000,250.0,0,E06YS,44,train
976.6819477081299,2,5,1,3,0,4,H-,1,0,4,0,1000,250.0,0,E06YS,45,train
688.6379718780518,2,5,1,3,0,4,H-,1,1,2,0,1000,250.0,1,E06YS,46,train
912.6710891723633,2,5,1,3,0,4,H-,1,3,3,0,1000,250.0,3,E06YS,47,train
864.6550178527832,2,5,1,3,0,4,H-,1,3,3,0,1000,250.0,3,E06YS,48,train
768.744945526123,2,5,1,3,0,4,H-,1,0,4,0,1000,250.0,0,E06YS,49,train
736.5388870239258,2,5,1,3,0,4,H-,0,4,5,0,1000,250.0,3,E06YS,50,train
1232.4979305267334,2,5,1,3,0,4,H-,1,1,2,0,1000,250.0,1,E06YS,51,train
864.4390106201172,2,5,1,3,0,4,H-,1,1,2,0,1000,250.0,1,E06YS,52,train
1024.4379043579102,2,5,1,3,0,4,H-,1,3,3,0,1000,250.0,3,E06YS,53,train
720.6218242645264,2,5,1,3,0,4,H-,1,3,3,0,1000,250.0,3,E06YS,54,train
1088.4480476379395,2,5,1,3,0,4,H-,1,0,4,0,1000,250.0,0,E06YS,55,train
816.6210651397705,2,5,1,3,0,4,H-,1,5,1,0,1000,250.0,5,E06YS,56,train
816.4489269256592,2,5,1,3,0,4,H-,1,0,4,0,1000,250.0,0,E06YS,57,train
528.8019180297852,2,5,1,3,0,4,H-,1,5,1,0,1000,250.0,5,E06YS,58,train
1088.5281562805176,2,5,1,3,0,4,H-,1,4,5,0,1000,250.0,4,E06YS,59,train
896.449089050293,2,5,1,3,0,4,H-,1,3,3,0,1000,250.0,3,E06YS,60,train
1008.4109306335449,2,5,1,3,0,4,H-,1,1,2,0,1000,250.0,1,E06YS,61,train
480.42798042297363,2,5,1,3,0,4,H-,1,5,1,0,1000,250.0,5,E06YS,62,train
976.5279293060303,2,5,1,3,0,4,H-,1,4,5,0,1000,250.0,4,E06YS,63,train
1296.4801788330078,2,5,1,3,0,4,H-,1,2,0,0,1000,250.0,2,E06YS,64,train
544.5199012756348,2,5,1,3,0,4,H-,1,5,1,0,1000,250.0,5,E06YS,65,train
624.4349479675293,2,5,1,3,0,4,H-,1,1,2,0,1000,250.0,1,E06YS,66,train
1024.6751308441162,2,5,1,3,0,4,H-,1,2,0,0,1000,250.0,2,E06YS,67,train
640.4528617858887,2,5,1,3,0,4,H-,1,0,4,0,1000,250.0,0,E06YS,68,train
544.5749759674072,2,5,1,3,0,4,H-,1,5,1,0,1000,250.0,5,E06YS,69,train
1136.6701126098633,2,5,1,3,0,4,H-,1,4,5,0,1000,250.0,4,E06YS,70,train
944.7770118713379,2,5,1,3,0,4,H-,1,3,3,0,1000,250.0,3,E06YS,71,train
1168.5700416564941,2,5,1,3,0,4,H-,1,1,2,0,1000,250.0,1,E06YS,72,train
832.5259685516357,2,5,1,3,0,4,H-,1,2,0,0,1000,250.0,2,E06YS,73,train
624.1950988769531,2,5,1,3,0,4,H-,1,0,4,0,1000,250.0,0,E06YS,74,train
768.5449123382568,2,5,1,3,0,4,H-,1,0,4,0,1000,250.0,0,E06YS,75,train
1056.8177700042725,2,5,1,3,0,4,H-,1,2,0,0,1000,250.0,2,E06YS,76,train
1152.4999141693115,2,5,1,3,0,4,H-,1,4,5,0,1000,250.0,4,E06YS,77,train
1312.4339580535889,2,5,1,3,0,4,H-,1,1,2,0,1000,250.0,1,E06YS,78,train
544.7201728820801,2,5,1,3,0,4,H-,1,5,1,0,1000,250.0,5,E06YS,79,train
592.454195022583,2,5,1,3,0,4,H-,1,0,4,0,1000,250.0,0,E06YS,80,train
624.5059967041016,2,5,1,3,0,4,H-,1,1,2,0,1000,250.0,1,E06YS,81,train
1472.5661277770996,2,5,1,3,0,4,H-,1,4,5,0,1000,250.0,4,E06YS,82,train
544.5170402526855,2,5,1,3,0,4,H-,1,1,2,0,1000,250.0,1,E06YS,83,train
1056.4560890197754,2,5,1,3,0,4,H-,1,2,0,0,1000,250.0,2,E06YS,84,train
528.4440517425537,2,5,1,3,0,4,H-,1,5,1,0,1000,250.0,5,E06YS,85,train
752.4979114532471,2,5,1,3,0,4,H-,1,1,2,0,1000,250.0,1,E06YS,86,train
1088.8500213623047,2,5,1,3,0,4,H-,1,4,5,0,1000,250.0,4,E06YS,87,train
1056.5459728240967,2,5,1,3,0,4,H-,1,3,3,0,1000,250.0,3,E06YS,88,train
688.560962677002,2,5,1,3,0,4,H-,1,0,4,0,1000,250.0,0,E06YS,89,train
1072.554111480713,2,5,1,3,0,4,H-,1,2,0,0,1000,250.0,2,E06YS,90,train
1584.5420360565186,2,5,1,3,0,4,H-,1,4,5,0,1000,250.0,4,E06YS,91,train
1408.4091186523438,2,5,1,3,0,4,H-,1,2,0,0,1000,250.0,2,E06YS,92,train
480.532169342041,2,5,1,3,0,4,H-,1,5,1,0,1000,250.0,5,E06YS,93,train
1696.4318752288818,2,5,1,3,0,4,H-,1,3,3,0,1000,250.0,3,E06YS,94,train
832.4449062347412,2,5,1,3,0,4,H-,1,0,4,0,1000,250.0,0,E06YS,95,train
1536.4561080932617,2,5,1,3,0,4,H-,1,4,5,0,1000,250.0,4,E06YS,96,train
832.211971282959,2,5,1,3,0,4,H-,1,0,4,0,1000,250.0,0,E06YS,97,train
976.5300750732422,2,5,1,3,0,4,H-,1,1,2,0,1000,250.0,1,E06YS,98,train
496.49977684020996,2,5,1,3,0,4,H-,1,5,1,0,1000,250.0,5,E06YS,99,train
736.569881439209,2,5,1,3,0,4,H-,1,1,2,0,1000,250.0,1,E06YS,100,train
1248.5709190368652,2,5,1,3,0,4,H-,1,4,5,0,1000,250.0,4,E06YS,101,train
688.5509490966797,2,5,1,3,0,4,H-,1,3,3,0,1000,250.0,3,E06YS,102,train
1168.5659885406494,2,5,1,3,0,4,H-,1,3,3,0,1000,250.0,3,E06YS,103,train
688.4498596191406,2,5,1,3,0,4,H-,0,4,5,0,1000,250.0,3,E06YS,104,train
560.4970455169678,2,5,1,3,0,4,H-,1,5,1,0,1000,250.0,5,E06YS,105,train
464.42604064941406,2,5,1,3,0,4,H-,0,4,5,0,1000,250.0,5,E06YS,106,train
976.5548706054688,2,5,1,3,0,4,H-,1,0,4,0,1000,250.0,0,E06YS,107,train
1390.099048614502,2,5,1,3,0,4,H-,1,4,5,0,1000,250.0,4,E06YS,108,train
960.5221748352051,2,5,1,3,0,4,H-,1,0,4,0,1000,250.0,0,E06YS,109,train
752.4588108062744,2,5,1,3,0,4,H-,1,1,2,0,1000,250.0,1,E06YS,110,train
1152.5938510894775,2,5,1,3,0,4,H-,1,4,5,0,1000,250.0,4,E06YS,111,train
896.7199325561523,2,5,1,3,0,4,H-,1,4,5,0,1000,250.0,4,E06YS,112,train
1040.5259132385254,2,5,1,3,0,4,H-,1,1,2,0,1000,250.0,1,E06YS,113,train
1136.625051498413,2,5,1,3,0,4,H-,1,2,0,0,1000,250.0,2,E06YS,114,train
1008.6030960083008,2,5,1,3,0,4,H-,1,2,0,0,1000,250.0,2,E06YS,115,train
1136.544942855835,2,5,1,3,0,4,H-,1,0,4,0,1000,250.0,0,E06YS,116,train
2448.812961578369,2,5,1,3,0,4,H-,1,0,4,0,1000,250.0,0,E06YS,117,train
896.2349891662598,2,5,1,3,0,4,H-,1,2,0,0,1000,250.0,2,E06YS,118,train
1264.4429206848145,2,5,1,3,0,4,H-,1,4,5,0,1000,250.0,4,E06YS,119,train
560.4419708251953,2,5,1,3,0,4,H-,1,4,5,0,1000,250.0,4,E06YS,120,train
800.8720874786377,2,5,1,3,0,4,H-,1,4,5,0,1000,250.0,4,E06YS,121,train
928.4610748291016,2,5,1,3,0,4,H-,1,3,3,0,1000,250.0,3,E06YS,122,train
752.4340152740479,2,5,1,3,0,4,H-,1,3,3,0,1000,250.0,3,E06YS,123,train
480.6561470031738,2,5,1,3,0,4,H-,1,3,3,0,1000,250.0,3,E06YS,124,train
848.4909534454346,2,5,1,3,0,4,H-,1,4,5,0,1000,250.0,4,E06YS,125,train
624.7649192810059,2,5,1,3,0,4,H-,1,3,3,0,1000,250.0,3,E06YS,126,train
864.5498752593994,2,5,1,3,0,4,H-,1,2,0,0,1000,250.0,2,E06YS,127,train
576.4870643615723,2,5,1,3,0,4,H-,1,5,1,0,1000,250.0,5,E06YS,128,train
944.3099498748779,2,5,1,3,0,4,H-,1,3,3,0,1000,250.0,3,E06YS,129,train
800.5459308624268,2,5,1,3,0,4,H-,1,0,4,0,1000,250.0,0,E06YS,130,train
976.470947265625,2,5,1,3,0,4,H-,1,3,3,0,1000,250.0,3,E06YS,131,train
672.4469661712646,2,5,1,3,0,4,H-,1,3,3,0,1000,250.0,3,E06YS,132,train
352.4971008300781,2,5,1,3,0,4,H-,1,3,3,0,1000,250.0,3,E06YS,133,train
544.4579124450684,2,5,1,3,0,4,H-,1,5,1,0,1000,250.0,5,E06YS,134,train
432.45697021484375,2,5,1,3,0,4,H-,1,5,1,0,1000,250.0,5,E06YS,135,train
640.5360698699951,2,5,1,3,0,4,H-,1,1,2,0,1000,250.0,1,E06YS,136,train
736.4420890808105,2,5,1,3,0,4,H-,1,2,0,0,1000,250.0,2,E06YS,137,train
848.5150337219238,2,5,1,3,0,4,H-,1,2,0,0,1000,250.0,2,E06YS,138,train
1088.5591506958008,2,5,1,3,0,4,H-,1,4,5,0,1000,250.0,4,E06YS,139,train
1408.4789752960205,2,5,1,3,0,4,H-,1,0,4,0,1000,250.0,0,E06YS,140,train
544.471025466919,2,5,1,3,0,4,H-,1,5,1,0,1000,250.0,5,E06YS,141,train
608.4978580474854,2,5,1,3,0,4,H-,1,1,2,0,1000,250.0,1,E06YS,142,train
1008.5158348083496,2,5,1,3,0,4,H-,1,1,2,0,1000,250.0,1,E06YS,143,train
784.437894821167,2,5,1,3,0,4,H-,1,3,3,0,1000,250.0,3,E06YS,144,train
752.4619102478027,2,5,1,3,0,4,H-,0,4,5,0,1000,250.0,3,E06YS,145,train
528.5189151763916,2,5,1,3,0,4,H-,1,5,1,0,1000,250.0,5,E06YS,146,train
576.4389038085938,2,5,1,3,0,4,H-,1,5,1,0,1000,250.0,5,E06YS,147,train
912.4760627746582,2,5,1,3,0,4,H-,1,3,3,0,1000,250.0,3,E06YS,148,train
736.1118793487549,2,5,1,3,0,4,H-,1,3,3,0,1000,250.0,3,E06YS,149,train
608.5128784179688,2,5,1,3,0,4,H-,1,0,4,0,1000,250.0,0,E06YS,150,train
448.46200942993164,2,5,1,3,0,4,H-,1,1,2,0,1000,250.0,1,E06YS,151,train
432.4300289154053,2,5,1,3,0,4,H-,1,1,2,0,1000,250.0,1,E06YS,152,train
688.4679794311523,2,5,1,3,0,4,H-,1,0,4,0,1000,250.0,0,E06YS,153,train
432.48701095581055,2,5,1,3,0,4,H-,1,0,4,0,1000,250.0,0,E06YS,154,train
400.5100727081299,2,5,1,3,0,4,H-,1,0,4,0,1000,250.0,0,E06YS,155,train
944.648027420044,2,5,1,3,0,4,H-,1,2,0,0,1000,250.0,2,E06YS,156,train
720.4809188842773,2,5,1,3,0,4,H-,1,1,2,0,1000,250.0,1,E06YS,157,train
512.1660232543945,2,5,1,3,0,4,H-,1,5,1,0,1000,250.0,5,E06YS,158,train
416.4271354675293,2,5,1,3,0,4,H-,1,5,1,0,1000,250.0,5,E06YS,159,train
976.2389659881592,2,5,1,3,0,4,H-,1,3,3,0,1000,250.0,3,E06YS,160,train
608.4609031677246,2,5,1,3,0,4,H-,1,0,4,0,1000,250.0,0,E06YS,161,train
464.8151397705078,2,5,1,3,0,4,H-,1,0,4,0,1000,250.0,0,E06YS,162,train
704.5350074768066,2,5,1,3,0,4,H-,1,3,3,0,1000,250.0,3,E06YS,163,train
848.4859466552734,2,5,1,3,0,4,H-,1,0,4,0,1000,250.0,0,E06YS,164,train
720.4759120941162,2,5,1,3,0,4,H-,1,2,0,0,1000,250.0,2,E06YS,165,train
576.4031410217285,2,5,1,3,0,4,H-,1,0,4,0,1000,250.0,0,E06YS,166,train
592.522144317627,2,5,1,3,0,4,H-,1,3,3,0,1000,250.0,3,E06YS,167,train
544.5799827575684,2,5,1,3,0,4,H-,1,5,1,0,1000,250.0,5,E06YS,168,train
592.4050807952881,2,5,1,3,0,4,H-,1,2,0,0,1000,250.0,2,E06YS,169,train
1008.4710121154785,2,5,1,3,0,4,H-,1,4,5,0,1000,250.0,4,E06YS,170,train
864.5591735839844,2,5,1,3,0,4,H-,1,1,2,0,1000,250.0,1,E06YS,171,train
896.4459896087646,2,5,1,3,0,4,H-,1,4,5,0,1000,250.0,4,E06YS,172,train
704.4029235839844,2,5,1,3,0,4,H-,1,4,5,0,1000,250.0,4,E06YS,173,train
672.6188659667969,2,5,1,3,0,4,H-,1,2,0,0,1000,250.0,2,E06YS,174,train
480.38196563720703,2,5,1,3,0,4,H-,1,2,0,0,1000,250.0,2,E06YS,175,train
704.4110298156738,2,5,1,3,0,4,H-,1,3,3,0,1000,250.0,3,E06YS,176,train
656.4528942108154,2,5,1,3,0,4,H-,1,4,5,0,1000,250.0,4,E06YS,177,train
800.47607421875,2,5,1,3,0,4,H-,1,1,2,0,1000,250.0,1,E06YS,178,train
1296.5328693389893,2,5,1,3,0,4,H-,1,2,0,0,1000,250.0,2,E06YS,179,train
560.7471466064453,2,5,1,3,0,4,H-,1,5,1,0,1000,250.0,5,E06YS,180,train
704.4198513031006,2,5,1,3,0,4,H-,1,2,0,0,1000,250.0,2,E06YS,181,train
912.5151634216309,2,5,1,3,0,4,H-,1,4,5,0,1000,250.0,4,E06YS,182,train
1328.4051418304443,2,5,1,3,0,4,H-,1,0,4,0,1000,250.0,0,E06YS,183,train
1904.444932937622,2,5,1,3,0,4,H-,1,3,3,0,1000,250.0,3,E06YS,184,train
1120.539903640747,2,5,1,3,0,4,H-,1,3,3,0,1000,250.0,3,E06YS,185,train
672.4040508270264,2,5,1,3,0,4,H-,1,1,2,0,1000,250.0,1,E06YS,186,train
1232.470989227295,2,5,1,3,0,4,H-,1,1,2,0,1000,250.0,1,E06YS,187,train
928.4589290618896,2,5,1,3,0,4,H-,1,3,3,0,1000,250.0,3,E06YS,188,train
720.628023147583,2,5,1,3,0,4,H-,1,1,2,0,1000,250.0,1,E06YS,189,train
640.800952911377,2,5,1,3,0,4,H-,1,0,4,0,1000,250.0,0,E06YS,190,train
976.4678478240967,2,5,1,3,0,4,H-,1,3,3,0,1000,250.0,3,E06YS,191,train
496.48594856262207,2,5,1,3,0,4,H-,1,3,3,0,1000,250.0,3,E06YS,192,train
576.6351222991943,2,5,1,3,0,4,H-,1,3,3,0,1000,250.0,3,E06YS,193,train
528.9690494537354,2,5,1,3,0,4,H-,1,5,1,0,1000,250.0,5,E06YS,194,train
784.8470211029053,2,5,1,3,0,4,H-,1,3,3,0,1000,250.0,3,E06YS,195,train
561.0032081604004,2,5,1,3,0,4,H-,0,0,4,0,1000,250.0,1,E06YS,196,train
544.6040630340576,2,5,1,3,0,4,H-,1,0,4,0,1000,250.0,0,E06YS,197,train
657.012939453125,2,5,1,3,0,4,H-,1,3,3,0,1000,250.0,3,E06YS,198,train
832.9801559448242,2,5,1,3,0,4,H-,1,4,5,0,1000,250.0,4,E06YS,199,train
816.9820308685303,2,5,1,3,0,4,H-,1,2,0,0,1000,250.0,2,E06YS,200,train
512.9959583282471,2,5,1,3,0,4,H-,1,2,0,0,1000,250.0,2,E06YS,201,train
656.933069229126,2,5,1,3,0,4,H-,0,3,3,0,1000,250.0,4,E06YS,202,train
1073.1139183044434,2,5,1,3,0,4,H-,1,4,5,0,1000,250.0,4,E06YS,203,train
816.5261745452881,2,5,1,3,0,4,H-,1,1,2,0,1000,250.0,1,E06YS,204,train
464.9090766906738,2,5,1,3,0,4,H-,1,1,2,0,1000,250.0,1,E06YS,205,train
1025.0508785247803,2,5,1,3,0,4,H-,1,3,3,0,1000,250.0,3,E06YS,206,train
608.983039855957,2,5,1,3,0,4,H-,1,0,4,0,1000,250.0,0,E06YS,207,train
624.4709491729736,2,5,1,3,0,4,H-,1,1,2,0,1000,250.0,1,E06YS,208,train
880.9330463409424,2,5,1,3,0,4,H-,1,4,5,0,1000,250.0,4,E06YS,209,train
544.9438095092773,2,5,1,3,0,4,H-,1,0,4,0,1000,250.0,0,E06YS,210,train
480.5428981781006,2,5,1,3,0,4,H-,1,0,4,0,1000,250.0,0,E06YS,211,train
513.0221843719482,2,5,1,3,0,4,H-,1,5,1,0,1000,250.0,5,E06YS,212,train
512.9539966583252,2,5,1,3,0,4,H-,1,5,1,0,1000,250.0,5,E06YS,213,train
912.8210544586182,2,5,1,3,0,4,H-,1,2,0,0,1000,250.0,2,E06YS,214,train
625.1089572906494,2,5,1,3,0,4,H-,1,4,5,0,1000,250.0,4,E06YS,215,train
576.509952545166,2,5,1,3,0,4,H-,1,0,4,0,1000,250.0,0,E06YS,216,train
704.9098014831543,2,5,1,3,0,4,H-,1,2,0,0,1000,250.0,2,E06YS,217,train
960.9100818634033,2,5,1,3,0,4,H-,1,4,5,0,1000,250.0,4,E06YS,218,train
640.8920288085938,2,5,1,3,0,4,H-,1,0,4,0,1000,250.0,0,E06YS,219,train
1376.8970966339111,2,5,1,3,0,4,H-,1,2,0,0,1000,250.0,2,E06YS,220,train
976.7630100250244,2,5,1,3,0,4,H-,1,3,3,0,1000,250.0,3,E06YS,221,train
1504.9169063568115,2,5,1,3,0,4,H-,1,2,0,0,1000,250.0,2,E06YS,222,train
1504.9209594726562,2,5,1,3,0,4,H-,1,4,5,0,1000,250.0,4,E06YS,223,train
1056.9751262664795,2,5,1,3,0,4,H-,1,0,4,0,1000,250.0,0,E06YS,224,train
1392.883062362671,2,5,1,3,0,4,H-,1,3,3,0,1000,250.0,3,E06YS,225,train
816.9779777526855,2,5,1,3,0,4,H-,1,5,1,0,1000,250.0,5,E06YS,226,train
528.5921096801758,2,5,1,3,0,4,H-,1,5,1,0,1000,250.0,5,E06YS,227,train
592.8859710693359,2,5,1,3,0,4,H-,1,0,4,0,1000,250.0,0,E06YS,228,train
672.93381690979,2,5,1,3,0,4,H-,1,5,1,0,1000,250.0,5,E06YS,229,train
800.868034362793,2,5,1,3,0,4,H-,1,0,4,0,1000,250.0,0,E06YS,230,train
752.8560161590576,2,5,1,3,0,4,H-,1,1,2,0,1000,250.0,1,E06YS,231,train
656.9101810455322,2,5,1,3,0,4,H-,1,1,2,0,1000,250.0,1,E06YS,232,train
528.8510322570801,2,5,1,3,0,4,H-,1,5,1,0,1000,250.0,5,E06YS,233,train
944.4780349731445,2,5,1,3,0,4,H-,1,4,5,0,1000,250.0,4,E06YS,234,train
624.9048709869385,2,5,1,3,0,4,H-,1,1,2,0,1000,250.0,1,E06YS,235,train
1120.9690570831299,2,5,1,3,0,4,H-,1,2,0,0,1000,250.0,2,E06YS,236,train
880.9230327606201,2,5,1,3,0,4,H-,1,2,0,0,1000,250.0,2,E06YS,237,train
640.8789157867432,2,5,1,3,0,4,H-,1,4,5,0,1000,250.0,4,E06YS,238,train
672.9300022125244,2,5,1,3,0,4,H-,1,1,2,0,1000,250.0,1,E06YS,239,train
737.076997756958,2,5,1,3,0,4,H-,1,2,0,0,1000,250.0,2,E06YS,240,train
529.059886932373,2,5,1,3,0,4,H-,1,5,1,0,1000,250.0,5,E06YS,241,train
769.1230773925781,2,5,1,3,0,4,H-,1,3,3,0,1000,250.0,3,E06YS,242,train
528.9101600646973,2,5,1,3,0,4,H-,1,5,1,0,1000,250.0,5,E06YS,243,train
848.8209247589111,2,5,1,3,0,4,H-,1,4,5,0,1000,250.0,4,E06YS,244,train
576.8911838531494,2,5,1,3,0,4,H-,1,0,4,0,1000,250.0,0,E06YS,245,train
560.978889465332,2,5,1,3,0,4,H-,1,5,1,0,1000,250.0,5,E06YS,246,train
560.9049797058105,2,5,1,3,0,4,H-,1,5,1,0,1000,250.0,5,E06YS,247,train
849.0440845489502,2,5,1,3,0,4,H-,1,3,3,0,1000,250.0,3,E06YS,248,train
496.87790870666504,2,5,1,3,0,4,H-,1,4,5,0,1000,250.0,4,E06YS,249,train
1056.9310188293457,0,4,1,3,5,2,H-,1,1,2,0,1000,250.0,1,E06YS,250,test
2560.969114303589,0,4,1,3,5,2,H-,1,5,4,0,1000,250.0,5,E06YS,251,test
1344.825029373169,0,4,1,3,5,2,H-,1,1,2,0,1000,250.0,1,E06YS,252,test
1729.038953781128,0,4,1,3,5,2,H-,1,2,5,0,1000,250.0,2,E06YS,253,test
1265.103816986084,0,4,1,3,5,2,H-,1,1,2,0,1000,250.0,1,E06YS,254,test
1921.111822128296,0,4,1,3,5,2,H-,1,5,4,0,1000,250.0,5,E06YS,255,test
1136.7239952087402,0,4,1,3,5,2,H-,1,2,5,0,1000,250.0,2,E06YS,256,test
945.1110363006592,0,4,1,3,5,2,H-,1,3,3,0,1000,250.0,3,E06YS,257,test
2704.9880027770996,0,4,1,3,5,2,H-,1,0,0,0,1000,250.0,0,E06YS,258,test
800.8928298950195,0,4,1,3,5,2,H-,1,0,0,0,1000,250.0,0,E06YS,259,test
2496.8860149383545,0,4,1,3,5,2,H-,1,5,4,0,1000,250.0,5,E06YS,260,test
864.9301528930664,0,4,1,3,5,2,H-,1,1,2,0,1000,250.0,1,E06YS,261,test
1313.107967376709,0,4,1,3,5,2,H-,1,3,3,0,1000,250.0,3,E06YS,262,test
1152.7099609375,0,4,1,3,5,2,H-,1,2,5,0,1000,250.0,2,E06YS,263,test
2033.0018997192383,0,4,1,3,5,2,H-,1,0,0,0,1000,250.0,0,E06YS,264,test
1329.0331363677979,0,4,1,3,5,2,H-,1,4,1,0,1000,250.0,4,E06YS,265,test
1025.1591205596924,0,4,1,3,5,2,H-,1,0,0,0,1000,250.0,0,E06YS,266,test
657.0110321044922,0,4,1,3,5,2,H-,1,1,2,0,1000,250.0,1,E06YS,267,test
2305.1438331604004,0,4,1,3,5,2,H-,1,5,4,0,1000,250.0,5,E06YS,268,test
640.9220695495605,0,4,1,3,5,2,H-,1,1,2,0,1000,250.0,1,E06YS,269,test
785.1309776306152,0,4,1,3,5,2,H-,1,2,5,0,1000,250.0,2,E06YS,270,test
1665.146827697754,0,4,1,3,5,2,H-,1,5,4,0,1000,250.0,5,E06YS,271,test
673.0780601501465,0,4,1,3,5,2,H-,1,1,2,0,1000,250.0,1,E06YS,272,test
1232.5849533081055,0,4,1,3,5,2,H-,1,0,0,0,1000,250.0,0,E06YS,273,test
609.1079711914062,0,4,1,3,5,2,H-,1,0,0,0,1000,250.0,0,E06YS,274,test
865.0121688842773,0,4,1,3,5,2,H-,1,4,1,0,1000,250.0,4,E06YS,275,test
705.1329612731934,0,4,1,3,5,2,H-,1,0,0,0,1000,250.0,0,E06YS,276,test
1697.1499919891357,0,4,1,3,5,2,H-,1,5,4,0,1000,250.0,5,E06YS,277,test
673.098087310791,0,4,1,3,5,2,H-,1,1,2,0,1000,250.0,1,E06YS,278,test
1441.0829544067383,0,4,1,3,5,2,H-,1,4,1,0,1000,250.0,4,E06YS,279,test
1057.2149753570557,0,4,1,3,5,2,H-,1,4,1,0,1000,250.0,4,E06YS,280,test
752.6822090148926,0,4,1,3,5,2,H-,1,0,0,0,1000,250.0,0,E06YS,281,test
817.1570301055908,0,4,1,3,5,2,H-,1,5,4,0,1000,250.0,5,E06YS,282,test
1377.0618438720703,0,4,1,3,5,2,H-,1,2,5,0,1000,250.0,2,E06YS,283,test
593.0819511413574,0,4,1,3,5,2,H-,1,2,5,0,1000,250.0,2,E06YS,284,test
417.05799102783203,0,4,1,3,5,2,H-,1,2,5,0,1000,250.0,2,E06YS,285,test
800.5619049072266,0,4,1,3,5,2,H-,1,3,3,0,1000,250.0,3,E06YS,286,test
1313.0619525909424,0,4,1,3,5,2,H-,1,5,4,0,1000,250.0,5,E06YS,287,test
849.0869998931885,0,4,1,3,5,2,H-,1,0,0,0,1000,250.0,0,E06YS,288,test
2417.0169830322266,0,4,1,3,5,2,H-,1,4,1,0,1000,250.0,4,E06YS,289,test
1552.9170036315918,0,4,1,3,5,2,H-,1,3,3,0,1000,250.0,3,E06YS,290,test
1265.0020122528076,0,4,1,3,5,2,H-,1,3,3,0,1000,250.0,3,E06YS,291,test
1760.951042175293,0,4,1,3,5,2,H-,1,0,0,0,1000,250.0,0,E06YS,292,test
1793.1790351867676,0,4,1,3,5,2,H-,1,4,1,0,1000,250.0,4,E06YS,293,test
2208.9951038360596,0,4,1,3,5,2,H-,1,4,1,0,1000,250.0,4,E06YS,294,test
2145.1690196990967,0,4,1,3,5,2,H-,1,3,3,0,1000,250.0,3,E06YS,295,test
1457.1101665496826,0,4,1,3,5,2,H-,1,0,0,0,1000,250.0,0,E06YS,296,test
673.1460094451904,0,4,1,3,5,2,H-,1,5,4,0,1000,250.0,5,E06YS,297,test
1025.1381397247314,0,4,1,3,5,2,H-,1,2,5,0,1000,250.0,2,E06YS,298,test
1008.9380741119385,0,4,1,3,5,2,H-,1,3,3,0,1000,250.0,3,E06YS,299,test
1105.0820350646973,0,4,1,3,5,2,H-,1,5,4,0,1000,250.0,5,E06YS,300,test
689.141035079956,0,4,1,3,5,2,H-,0,0,0,0,1000,250.0,2,E06YS,301,test
1472.9759693145752,0,4,1,3,5,2,H-,1,2,5,0,1000,250.0,2,E06YS,302,test
784.9128246307373,0,4,1,3,5,2,H-,1,4,1,0,1000,250.0,4,E06YS,303,test
976.6240119934082,0,4,1,3,5,2,H-,1,3,3,0,1000,250.0,3,E06YS,304,test
896.99387550354,0,4,1,3,5,2,H-,1,0,0,0,1000,250.0,0,E06YS,305,test
1264.7998332977295,0,4,1,3,5,2,H-,1,2,5,0,1000,250.0,2,E06YS,306,test
640.8751010894775,0,4,1,3,5,2,H-,1,4,1,0,1000,250.0,4,E06YS,307,test
1184.506893157959,0,4,1,3,5,2,H-,1,2,5,0,1000,250.0,2,E06YS,308,test
688.6210441589355,0,4,1,3,5,2,H-,1,1,2,0,1000,250.0,1,E06YS,309,test
528.4039974212646,0,4,1,3,5,2,H-,1,0,0,0,1000,250.0,0,E06YS,310,test
672.6438999176025,0,4,1,3,5,2,H-,1,4,1,0,1000,250.0,4,E06YS,311,test
1536.3118648529053,0,4,1,3,5,2,H-,1,0,0,0,1000,250.0,0,E06YS,312,test
528.5220146179199,0,4,1,3,5,2,H-,1,1,2,0,1000,250.0,1,E06YS,313,test
1888.4539604187012,0,4,1,3,5,2,H-,1,3,3,0,1000,250.0,3,E06YS,314,test
880.1591396331787,0,4,1,3,5,2,H-,1,3,3,0,1000,250.0,3,E06YS,315,test
576.4901638031006,0,4,1,3,5,2,H-,1,1,2,0,1000,250.0,1,E06YS,316,test
1136.5101337432861,0,4,1,3,5,2,H-,1,2,5,0,1000,250.0,2,E06YS,317,test
624.4280338287354,0,4,1,3,5,2,H-,1,0,0,0,1000,250.0,0,E06YS,318,test
992.5339221954346,0,4,1,3,5,2,H-,1,3,3,0,1000,250.0,3,E06YS,319,test
1136.509895324707,0,4,1,3,5,2,H-,1,2,5,0,1000,250.0,2,E06YS,320,test
624.3758201599121,0,4,1,3,5,2,H-,1,2,5,0,1000,250.0,2,E06YS,321,test
880.4490566253662,0,4,1,3,5,2,H-,1,0,0,0,1000,250.0,0,E06YS,322,test
1152.6670455932617,0,4,1,3,5,2,H-,1,2,5,0,1000,250.0,2,E06YS,323,test
832.4799537658691,0,4,1,3,5,2,H-,1,3,3,0,1000,250.0,3,E06YS,324,test
1568.742036819458,0,4,1,3,5,2,H-,1,2,5,0,1000,250.0,2,E06YS,325,test
1600.4970073699951,0,4,1,3,5,2,H-,1,3,3,0,1000,250.0,3,E06YS,326,test
656.4300060272217,0,4,1,3,5,2,H-,1,1,2,0,1000,250.0,1,E06YS,327,test
912.883996963501,0,4,1,3,5,2,H-,1,2,5,0,1000,250.0,2,E06YS,328,test
912.8429889678955,0,4,1,3,5,2,H-,1,4,1,0,1000,250.0,4,E06YS,329,test
624.6631145477295,0,4,1,3,5,2,H-,1,3,3,0,1000,250.0,3,E06YS,330,test
752.4900436401367,0,4,1,3,5,2,H-,1,4,1,0,1000,250.0,4,E06YS,331,test
575.671911239624,0,4,1,3,5,2,H-,1,4,1,0,1000,250.0,4,E06YS,332,test
592.522144317627,0,4,1,3,5,2,H-,1,5,4,0,1000,250.0,5,E06YS,333,test
1008.4869861602783,0,4,1,3,5,2,H-,1,0,0,0,1000,250.0,0,E06YS,334,test
640.4259204864502,0,4,1,3,5,2,H-,1,3,3,0,1000,250.0,3,E06YS,335,test
576.5969753265381,0,4,1,3,5,2,H-,1,4,1,0,1000,250.0,4,E06YS,336,test
624.4659423828125,0,4,1,3,5,2,H-,1,5,4,0,1000,250.0,5,E06YS,337,test
912.5521183013916,0,4,1,3,5,2,H-,1,4,1,0,1000,250.0,4,E06YS,338,test
928.5409450531006,0,4,1,3,5,2,H-,1,2,5,0,1000,250.0,2,E06YS,339,test
672.4190711975098,0,4,1,3,5,2,H-,1,3,3,0,1000,250.0,3,E06YS,340,test
448.49586486816406,0,4,1,3,5,2,H-,1,0,0,0,1000,250.0,0,E06YS,341,test
544.5160865783691,0,4,1,3,5,2,H-,1,5,4,0,1000,250.0,5,E06YS,342,test
544.5201396942139,0,4,1,3,5,2,H-,1,4,1,0,1000,250.0,4,E06YS,343,test
816.4589405059814,0,4,1,3,5,2,H-,1,3,3,0,1000,250.0,3,E06YS,344,test
672.6009845733643,0,4,1,3,5,2,H-,1,0,0,0,1000,250.0,0,E06YS,345,test
480.17191886901855,0,4,1,3,5,2,H-,1,1,2,0,1000,250.0,1,E06YS,346,test
672.4598407745361,0,4,1,3,5,2,H-,1,1,2,0,1000,250.0,1,E06YS,347,test
464.57505226135254,0,4,1,3,5,2,H-,1,1,2,0,1000,250.0,1,E06YS,348,test
448.43292236328125,0,4,1,3,5,2,H-,1,1,2,0,1000,250.0,1,E06YS,349,test
896.5389728546143,0,4,1,3,5,2,H-,1,3,3,0,1000,250.0,3,E06YS,350,test
720.4608917236328,0,4,1,3,5,2,H-,1,4,1,0,1000,250.0,4,E06YS,351,test
736.4568710327148,0,4,1,3,5,2,H-,1,5,4,0,1000,250.0,5,E06YS,352,test
960.4678153991699,0,4,1,3,5,2,H-,1,3,3,0,1000,250.0,3,E06YS,353,test
1008.6359977722168,0,4,1,3,5,2,H-,1,2,5,0,1000,250.0,2,E06YS,354,test
736.4611625671387,0,4,1,3,5,2,H-,1,0,0,0,1000,250.0,0,E06YS,355,test
576.4129161834717,0,4,1,3,5,2,H-,1,5,4,0,1000,250.0,5,E06YS,356,test
608.3931922912598,0,4,1,3,5,2,H-,1,1,2,0,1000,250.0,1,E06YS,357,test
528.4221172332764,0,4,1,3,5,2,H-,1,1,2,0,1000,250.0,1,E06YS,358,test
1167.6180362701416,0,4,1,3,5,2,H-,1,0,0,0,1000,250.0,0,E06YS,359,test
592.628002166748,0,4,1,3,5,2,H-,1,4,1,0,1000,250.0,4,E06YS,360,test
1168.4789657592773,0,4,1,3,5,2,H-,1,3,3,0,1000,250.0,3,E06YS,361,test
608.5240840911865,0,4,1,3,5,2,H-,1,5,4,0,1000,250.0,5,E06YS,362,test
1632.52592086792,0,4,1,3,5,2,H-,1,3,3,0,1000,250.0,3,E06YS,363,test
944.6499347686768,0,4,1,3,5,2,H-,1,0,0,0,1000,250.0,0,E06YS,364,test
512.3839378356934,0,4,1,3,5,2,H-,1,0,0,0,1000,250.0,0,E06YS,365,test
1408.4351062774658,0,4,1,3,5,2,H-,1,3,3,0,1000,250.0,3,E06YS,366,test
912.4269485473633,0,4,1,3,5,2,H-,1,2,5,0,1000,250.0,2,E06YS,367,test
576.3609409332275,0,4,1,3,5,2,H-,1,4,1,0,1000,250.0,4,E06YS,368,test
608.4668636322021,0,4,1,3,5,2,H-,1,0,0,0,1000,250.0,0,E06YS,369,test
625.0078678131104,0,4,1,3,5,2,H-,1,5,4,0,1000,250.0,5,E06YS,370,test
1073.0879306793213,0,4,1,3,5,2,H-,1,3,3,0,1000,250.0,3,E06YS,371,test
928.9350509643555,0,4,1,3,5,2,H-,1,2,5,0,1000,250.0,2,E06YS,372,test
560.8880519866943,0,4,1,3,5,2,H-,1,4,1,0,1000,250.0,4,E06YS,373,test
848.9298820495605,0,4,1,3,5,2,H-,1,2,5,0,1000,250.0,2,E06YS,374,test
592.8981304168701,0,4,1,3,5,2,H-,1,0,0,0,1000,250.0,0,E06YS,375,test
944.9970722198486,0,4,1,3,5,2,H-,1,2,5,0,1000,250.0,2,E06YS,376,test
945.0759887695312,0,4,1,3,5,2,H-,1,2,5,0,1000,250.0,2,E06YS,377,test
496.837854385376,0,4,1,3,5,2,H-,1,0,0,0,1000,250.0,0,E06YS,378,test
576.915979385376,0,4,1,3,5,2,H-,1,1,2,0,1000,250.0,1,E06YS,379,test
609.0419292449951,0,4,1,3,5,2,H-,1,0,0,0,1000,250.0,0,E06YS,380,test
673.0911731719971,0,4,1,3,5,2,H-,1,0,0,0,1000,250.0,0,E06YS,381,test
464.97488021850586,0,4,1,3,5,2,H-,1,0,0,0,1000,250.0,0,E06YS,382,test
529.0951728820801,0,4,1,3,5,2,H-,1,1,2,0,1000,250.0,1,E06YS,383,test
688.9410018920898,0,4,1,3,5,2,H-,1,0,0,0,1000,250.0,0,E06YS,384,test
656.9931507110596,0,4,1,3,5,2,H-,1,5,4,0,1000,250.0,5,E06YS,385,test
656.9910049438477,0,4,1,3,5,2,H-,1,5,4,0,1000,250.0,5,E06YS,386,test
912.3070240020752,0,4,1,3,5,2,H-,1,3,3,0,1000,250.0,3,E06YS,387,test
1168.977975845337,0,4,1,3,5,2,H-,1,2,5,0,1000,250.0,2,E06YS,388,test
592.9679870605469,0,4,1,3,5,2,H-,1,1,2,0,1000,250.0,1,E06YS,389,test
736.9189262390137,0,4,1,3,5,2,H-,1,0,0,0,1000,250.0,0,E06YS,390,test
944.9560642242432,0,4,1,3,5,2,H-,1,3,3,0,1000,250.0,3,E06YS,391,test
640.9878730773926,0,4,1,3,5,2,H-,1,4,1,0,1000,250.0,4,E06YS,392,test
849.4820594787598,0,4,1,3,5,2,H-,1,2,5,0,1000,250.0,2,E06YS,393,test
928.9419651031494,0,4,1,3,5,2,H-,1,2,5,0,1000,250.0,2,E06YS,394,test
1792.9887771606445,0,4,1,3,5,2,H-,1,5,4,0,1000,250.0,5,E06YS,395,test
1120.6910610198975,0,4,1,3,5,2,H-,1,2,5,0,1000,250.0,2,E06YS,396,test
656.9280624389648,0,4,1,3,5,2,H-,1,2,5,0,1000,250.0,2,E06YS,397,test
800.9579181671143,0,4,1,3,5,2,H-,1,4,1,0,1000,250.0,4,E06YS,398,test
1041.0051345825195,0,4,1,3,5,2,H-,1,0,0,0,1000,250.0,0,E06YS,399,test
608.9639663696289,0,4,1,3,5,2,H-,1,4,1,0,1000,250.0,4,E06YS,400,test
912.6460552215576,0,4,1,3,5,2,H-,1,4,1,0,1000,250.0,4,E06YS,401,test
1808.9940547943115,0,4,1,3,5,2,H-,1,2,5,0,1000,250.0,2,E06YS,402,test
912.8859043121338,0,4,1,3,5,2,H-,1,3,3,0,1000,250.0,3,E06YS,403,test
704.9939632415771,0,4,1,3,5,2,H-,1,1,2,0,1000,250.0,1,E06YS,404,test
1104.970932006836,0,4,1,3,5,2,H-,1,2,5,0,1000,250.0,2,E06YS,405,test
993.0009841918945,0,4,1,3,5,2,H-,1,5,4,0,1000,250.0,5,E06YS,406,test
1344.9549674987793,0,4,1,3,5,2,H-,1,2,5,0,1000,250.0,2,E06YS,407,test
592.9210186004639,0,4,1,3,5,2,H-,1,1,2,0,1000,250.0,1,E06YS,408,test
897.1550464630127,0,4,1,3,5,2,H-,1,3,3,0,1000,250.0,3,E06YS,409,test
624.9899864196777,0,4,1,3,5,2,H-,1,1,2,0,1000,250.0,1,E06YS,410,test
929.1260242462158,0,4,1,3,5,2,H-,1,0,0,0,1000,250.0,0,E06YS,411,test
1025.050163269043,0,4,1,3,5,2,H-,1,3,3,0,1000,250.0,3,E06YS,412,test
656.9108963012695,0,4,1,3,5,2,H-,1,2,5,0,1000,250.0,2,E06YS,413,test
769.0060138702393,0,4,1,3,5,2,H-,1,3,3,0,1000,250.0,3,E06YS,414,test
833.021879196167,0,4,1,3,5,2,H-,1,2,5,0,1000,250.0,2,E06YS,415,test
625.0989437103271,0,4,1,3,5,2,H-,1,5,4,0,1000,250.0,5,E06YS,416,test
608.8509559631348,0,4,1,3,5,2,H-,0,0,0,0,1000,250.0,2,E06YS,417,test
544.9979305267334,0,4,1,3,5,2,H-,1,1,2,0,1000,250.0,1,E06YS,418,test
608.8898181915283,0,4,1,3,5,2,H-,1,1,2,0,1000,250.0,1,E06YS,419,test
593.0659770965576,0,4,1,3,5,2,H-,1,4,1,0,1000,250.0,4,E06YS,420,test
640.7651901245117,0,4,1,3,5,2,H-,1,5,4,0,1000,250.0,5,E06YS,421,test
784.9199771881104,0,4,1,3,5,2,H-,1,5,4,0,1000,250.0,5,E06YS,422,test
704.3399810791016,0,4,1,3,5,2,H-,1,5,4,0,1000,250.0,5,E06YS,423,test
560.8758926391602,0,4,1,3,5,2,H-,1,4,1,0,1000,250.0,4,E06YS,424,test
544.5969104766846,0,4,1,3,5,2,H-,1,4,1,0,1000,250.0,4,E06YS,425,test
529.0501117706299,0,4,1,3,5,2,H-,1,4,1,0,1000,250.0,4,E06YS,426,test
561.0752105712891,0,4,1,3,5,2,H-,1,5,4,0,1000,250.0,5,E06YS,427,test
801.0799884796143,0,4,1,3,5,2,H-,1,4,1,0,1000,250.0,4,E06YS,428,test
609.1279983520508,0,4,1,3,5,2,H-,1,4,1,0,1000,250.0,4,E06YS,429,test
880.5370330810547,0,4,1,3,5,2,H-,1,0,0,0,1000,250.0,0,E06YS,430,test
673.084020614624,0,4,1,3,5,2,H-,1,4,1,0,1000,250.0,4,E06YS,431,test
993.0031299591064,0,4,1,3,5,2,H-,1,3,3,0,1000,250.0,3,E06YS,432,test
704.9970626831055,0,4,1,3,5,2,H-,1,2,5,0,1000,250.0,2,E06YS,433,test
608.9370250701904,0,4,1,3,5,2,H-,1,4,1,0,1000,250.0,4,E06YS,434,test
1056.8788051605225,0,4,1,3,5,2,H-,1,0,0,0,1000,250.0,0,E06YS,435,test
1153.0320644378662,0,4,1,3,5,2,H-,1,3,3,0,1000,250.0,3,E06YS,436,test
1073.047161102295,0,4,1,3,5,2,H-,1,4,1,0,1000,250.0,4,E06YS,437,test
1185.0121021270752,0,4,1,3,5,2,H-,1,3,3,0,1000,250.0,3,E06YS,438,test
768.9759731292725,0,4,1,3,5,2,H-,1,5,4,0,1000,250.0,5,E06YS,439,test
928.9600849151611,0,4,1,3,5,2,H-,1,3,3,0,1000,250.0,3,E06YS,440,test
608.7517738342285,0,4,1,3,5,2,H-,1,4,1,0,1000,250.0,4,E06YS,441,test
880.9278011322021,0,4,1,3,5,2,H-,1,0,0,0,1000,250.0,0,E06YS,442,test
688.9810562133789,0,4,1,3,5,2,H-,1,1,2,0,1000,250.0,1,E06YS,443,test
848.9041328430176,0,4,1,3,5,2,H-,1,3,3,0,1000,250.0,3,E06YS,444,test
608.8330745697021,0,4,1,3,5,2,H-,1,4,1,0,1000,250.0,4,E06YS,445,test
560.9819889068604,0,4,1,3,5,2,H-,1,4,1,0,1000,250.0,4,E06YS,446,test
577.009916305542,0,4,1,3,5,2,H-,1,4,1,0,1000,250.0,4,E06YS,447,test
592.8089618682861,0,4,1,3,5,2,H-,1,4,1,0,1000,250.0,4,E06YS,448,test
768.8560485839844,0,4,1,3,5,2,H-,1,3,3,0,1000,250.0,3,E06YS,449,test
561.1081123352051,0,4,1,3,5,2,H-,1,4,1,0,1000,250.0,4,E06YS,450,test
881.1550140380859,0,4,1,3,5,2,H-,1,3,3,0,1000,250.0,3,E06YS,451,test
849.0631580352783,0,4,1,3,5,2,H-,1,0,0,0,1000,250.0,0,E06YS,452,test
528.6731719970703,0,4,1,3,5,2,H-,1,0,0,0,1000,250.0,0,E06YS,453,test
752.9489994049072,0,4,1,3,5,2,H-,0,2,5,0,1000,250.0,0,E06YS,454,test
785.0260734558105,0,4,1,3,5,2,H-,1,3,3,0,1000,250.0,3,E06YS,455,test
688.9290809631348,0,4,1,3,5,2,H-,1,0,0,0,1000,250.0,0,E06YS,456,test
512.9609107971191,0,4,1,3,5,2,H-,1,0,0,0,1000,250.0,0,E06YS,457,test
560.9500408172607,0,4,1,3,5,2,H-,1,4,1,0,1000,250.0,4,E06YS,458,test
608.5538864135742,0,4,1,3,5,2,H-,1,0,0,0,1000,250.0,0,E06YS,459,test
640.9599781036377,0,4,1,3,5,2,H-,1,5,4,0,1000,250.0,5,E06YS,460,test
1008.9797973632812,0,4,1,3,5,2,H-,1,3,3,0,1000,250.0,3,E06YS,461,test
752.9158592224121,0,4,1,3,5,2,H-,1,5,4,0,1000,250.0,5,E06YS,462,test
816.925048828125,0,4,1,3,5,2,H-,1,0,0,0,1000,250.0,0,E06YS,463,test
528.8040637969971,0,4,1,3,5,2,H-,1,0,0,0,1000,250.0,0,E06YS,464,test
1041.025161743164,0,4,1,3,5,2,H-,1,2,5,0,1000,250.0,2,E06YS,465,test
608.7689399719238,0,4,1,3,5,2,H-,1,5,4,0,1000,250.0,5,E06YS,466,test
752.903938293457,0,4,1,3,5,2,H-,1,0,0,0,1000,250.0,0,E06YS,467,test
752.8669834136963,0,4,1,3,5,2,H-,1,3,3,0,1000,250.0,3,E06YS,468,test
528.7380218505859,0,4,1,3,5,2,H-,1,4,1,0,1000,250.0,4,E06YS,469,test
705.0380706787109,0,4,1,3,5,2,H-,1,3,3,0,1000,250.0,3,E06YS,470,test
512.8200054168701,0,4,1,3,5,2,H-,0,1,2,0,1000,250.0,0,E06YS,471,test
976.8409729003906,0,4,1,3,5,2,H-,1,3,3,0,1000,250.0,3,E06YS,472,test
544.5380210876465,0,4,1,3,5,2,H-,1,1,2,0,1000,250.0,1,E06YS,473,test
672.4879741668701,0,4,1,3,5,2,H-,1,0,0,0,1000,250.0,0,E06YS,474,test
720.4811573028564,0,4,1,3,5,2,H-,1,0,0,0,1000,250.0,0,E06YS,475,test
1584.5139026641846,0,4,1,3,5,2,H-,1,3,3,0,1000,250.0,3,E06YS,476,test
929.0909767150879,0,4,1,3,5,2,H-,1,2,5,0,1000,250.0,2,E06YS,477,test
561.1729621887207,0,4,1,3,5,2,H-,1,4,1,0,1000,250.0,4,E06YS,478,test
673.2871532440186,0,4,1,3,5,2,H-,1,1,2,0,1000,250.0,1,E06YS,479,test
465.15822410583496,0,4,1,3,5,2,H-,1,1,2,0,1000,250.0,1,E06YS,480,test
737.6449108123779,0,4,1,3,5,2,H-,1,2,5,0,1000,250.0,2,E06YS,481,test
513.1680965423584,0,4,1,3,5,2,H-,1,1,2,0,1000,250.0,1,E06YS,482,test
545.3519821166992,0,4,1,3,5,2,H-,1,1,2,0,1000,250.0,1,E06YS,483,test
609.6131801605225,0,4,1,3,5,2,H-,1,5,4,0,1000,250.0,5,E06YS,484,test
449.6641159057617,0,4,1,3,5,2,H-,0,1,2,0,1000,250.0,5,E06YS,485,test
881.89697265625,0,4,1,3,5,2,H-,1,2,5,0,1000,250.0,2,E06YS,486,test
753.7550926208496,0,4,1,3,5,2,H-,1,4,1,0,1000,250.0,4,E06YS,487,test
1522.1359729766846,0,4,1,3,5,2,H-,1,4,1,0,1000,250.0,4,E06YS,488,test
849.8079776763916,0,4,1,3,5,2,H-,1,1,2,0,1000,250.0,1,E06YS,489,test
784.9891185760498,0,4,1,3,5,2,H-,1,5,4,0,1000,250.0,5,E06YS,490,test
1488.9490604400635,0,4,1,3,5,2,H-,1,5,4,0,1000,250.0,5,E06YS,491,test
896.9368934631348,0,4,1,3,5,2,H-,1,3,3,0,1000,250.0,3,E06YS,492,test
1328.8588523864746,0,4,1,3,5,2,H-,1,2,5,0,1000,250.0,2,E06YS,493,test
752.9599666595459,0,4,1,3,5,2,H-,1,0,0,0,1000,250.0,0,E06YS,494,test
880.9881210327148,0,4,1,3,5,2,H-,1,1,2,0,1000,250.0,1,E06YS,495,test
704.9911022186279,0,4,1,3,5,2,H-,1,4,1,0,1000,250.0,4,E06YS,496,test
896.9559669494629,0,4,1,3,5,2,H-,1,2,5,0,1000,250.0,2,E06YS,497,test
1712.9459381103516,0,4,1,3,5,2,H-,1,3,3,0,1000,250.0,3,E06YS,498,test
1809.128999710083,0,4,1,3,5,2,H-,1,0,0,0,1000,250.0,0,E06YS,499,test
