RT,SRmap_0,SRmap_1,SRmap_2,SRmap_3,SRmap_4,SRmap_5,condition,correct,correct_response,curstim,ms-precue,ms-prestimblank,ntrials,response,subject,trial,type
2638.0250453948975,3,4,0,5,1,2,E+,0,3,0,400,600,250.0,4,E10RD,0,train
3502.9728412628174,3,4,0,5,1,2,E+,1,0,2,400,600,250.0,0,E10RD,1,train
2383.1470012664795,3,4,0,5,1,2,E+,1,4,1,400,600,250.0,4,E10RD,2,train
879.2829513549805,3,4,0,5,1,2,E+,1,0,2,400,600,250.0,0,E10RD,3,train
847.1958637237549,3,4,0,5,1,2,E+,1,2,5,400,600,250.0,2,E10RD,4,train
2415.523052215576,3,4,0,5,1,2,E+,1,1,4,400,600,250.0,1,E10RD,5,train
1343.0721759796143,3,4,0,5,1,2,E+,1,5,3,400,600,250.0,5,E10RD,6,train
1167.099952697754,3,4,0,5,1,2,E+,1,1,4,400,600,250.0,1,E10RD,7,train
1231.1558723449707,3,4,0,5,1,2,E+,1,4,1,400,600,250.0,4,E10RD,8,train
1295.2921390533447,3,4,0,5,1,2,E+,1,4,1,400,600,250.0,4,E10RD,9,train
271.4581489562988,3,4,0,5,1,2,E+,1,0,2,400,600,250.0,0,E10RD,10,train
255.45692443847656,3,4,0,5,1,2,E+,1,5,3,400,600,250.0,5,E10RD,11,train
335.5100154876709,3,4,0,5,1,2,E+,1,5,3,400,600,250.0,5,E10RD,12,train
159.1939926147461,3,4,0,5,1,2,E+,1,4,1,400,600,250.0,4,E10RD,13,train
383.23402404785156,3,4,0,5,1,2,E+,0,3,0,400,600,250.0,2,E10RD,14,train
559.5560073852539,3,4,0,5,1,2,E+,1,5,3,400,600,250.0,5,E10RD,15,train
223.14691543579102,3,4,0,5,1,2,E+,1,4,1,400,600,250.0,4,E10RD,16,train
255.15389442443848,3,4,0,5,1,2,E+,0,2,5,400,600,250.0,1,E10RD,17,train
303.1940460205078,3,4,0,5,1,2,E+,1,2,5,400,600,250.0,2,E10RD,18,train
351.20606422424316,3,4,0,5,1,2,E+,0,3,0,400,600,250.0,4,E10RD,19,train
319.2257881164551,3,4,0,5,1,2,E+,1,2,5,400,600,250.0,2,E10RD,20,train
382.98702239990234,3,4,0,5,1,2,E+,1,1,4,400,600,250.0,1,E10RD,21,train
671.2749004364014,3,4,0,5,1,2,E+,1,4,1,400,600,250.0,4,E10RD,22,train
575.2089023590088,3,4,0,5,1,2,E+,1,1,4,400,600,250.0,1,E10RD,23,train
191.26200675964355,3,4,0,5,1,2,E+,1,5,3,400,600,250.0,5,E10RD,24,train
255.1748752593994,3,4,0,5,1,2,E+,1,0,2,400,600,250.0,0,E10RD,25,train
303.50399017333984,3,4,0,5,1,2,E+,0,3,0,400,600,250.0,2,E10RD,26,train
687.3409748077393,3,4,0,5,1,2,E+,1,0,2,400,600,250.0,0,E10RD,27,train
479.18009757995605,3,4,0,5,1,2,E+,1,0,2,400,600,250.0,0,E10RD,28,train
351.24897956848145,3,4,0,5,1,2,E+,1,4,1,400,600,250.0,4,E10RD,29,train
95.2599048614502,3,4,0,5,1,2,E+,1,3,0,400,600,250.0,3,E10RD,30,train
239.13002014160156,3,4,0,5,1,2,E+,1,5,3,400,600,250.0,5,E10RD,31,train
239.15719985961914,3,4,0,5,1,2,E+,1,4,1,400,600,250.0,4,E10RD,32,train
239.5799160003662,3,4,0,5,1,2,E+,1,4,1,400,600,250.0,4,E10RD,33,train
95.21985054016113,3,4,0,5,1,2,E+,0,1,4,400,600,250.0,3,E10RD,34,train
479.25686836242676,3,4,0,5,1,2,E+,1,3,0,400,600,250.0,3,E10RD,35,train
143.2950496673584,3,4,0,5,1,2,E+,1,0,2,400,600,250.0,0,E10RD,36,train
655.2829742431641,3,4,0,5,1,2,E+,1,4,1,400,600,250.0,4,E10RD,37,train
367.22302436828613,3,4,0,5,1,2,E+,1,4,1,400,600,250.0,4,E10RD,38,train
287.20784187316895,3,4,0,5,1,2,E+,1,2,5,400,600,250.0,2,E10RD,39,train
223.1919765472412,3,4,0,5,1,2,E+,1,2,5,400,600,250.0,2,E10RD,40,train
239.0890121459961,3,4,0,5,1,2,E+,1,3,0,400,600,250.0,3,E10RD,41,train
223.21009635925293,3,4,0,5,1,2,E+,1,0,2,400,600,250.0,0,E10RD,42,train
303.2999038696289,3,4,0,5,1,2,E+,1,3,0,400,600,250.0,3,E10RD,43,train
207.20696449279785,3,4,0,5,1,2,E+,1,5,3,400,600,250.0,5,E10RD,44,train
271.15488052368164,3,4,0,5,1,2,E+,1,2,5,400,600,250.0,2,E10RD,45,train
271.4860439300537,3,4,0,5,1,2,E+,1,3,0,400,600,250.0,3,E10RD,46,train
191.2071704864502,3,4,0,5,1,2,E+,1,5,3,400,600,250.0,5,E10RD,47,train
271.30699157714844,3,4,0,5,1,2,E+,1,2,5,400,600,250.0,2,E10RD,48,train
239.17508125305176,3,4,0,5,1,2,E+,1,4,1,400,600,250.0,4,E10RD,49,train
175.2760410308838,3,4,0,5,1,2,E+,1,3,0,400,600,250.0,3,E10RD,50,train
31.213998794555664,3,4,0,5,1,2,E+,1,4,1,400,600,250.0,4,E10RD,51,train
63.05408477783203,3,4,0,5,1,2,E+,1,5,3,400,600,250.0,5,E10RD,52,train
223.24585914611816,3,4,0,5,1,2,E+,1,1,4,400,600,250.0,1,E10RD,53,train
159.621000289917,3,4,0,5,1,2,E+,1,1,4,400,600,250.0,1,E10RD,54,train
271.5001106262207,3,4,0,5,1,2,E+,1,3,0,400,600,250.0,3,E10RD,55,train
207.19194412231445,3,4,0,5,1,2,E+,1,1,4,400,600,250.0,1,E10RD,56,train
79.19001579284668,3,4,0,5,1,2,E+,1,0,2,400,600,250.0,0,E10RD,57,train
255.14793395996094,3,4,0,5,1,2,E+,1,3,0,400,600,250.0,3,E10RD,58,train
287.2509956359863,3,4,0,5,1,2,E+,1,4,1,400,600,250.0,4,E10RD,59,train
111.23108863830566,3,4,0,5,1,2,E+,1,0,2,400,600,250.0,0,E10RD,60,train
239.2899990081787,3,4,0,5,1,2,E+,1,3,0,400,600,250.0,3,E10RD,61,train
223.45495223999023,3,4,0,5,1,2,E+,1,5,3,400,600,250.0,5,E10RD,62,train
271.2888717651367,3,4,0,5,1,2,E+,1,1,4,400,600,250.0,1,E10RD,63,train
159.3010425567627,3,4,0,5,1,2,E+,1,0,2,400,600,250.0,0,E10RD,64,train
303.2209873199463,3,4,0,5,1,2,E+,1,1,4,400,600,250.0,1,E10RD,65,train
159.24978256225586,3,4,0,5,1,2,E+,1,0,2,400,600,250.0,0,E10RD,66,train
79.16092872619629,3,4,0,5,1,2,E+,1,0,2,400,600,250.0,0,E10RD,67,train
79.09989356994629,3,4,0,5,1,2,E+,1,0,2,400,600,250.0,0,E10RD,68,train
111.36603355407715,3,4,0,5,1,2,E+,1,1,4,400,600,250.0,1,E10RD,69,train
31.12506866455078,3,4,0,5,1,2,E+,1,1,4,400,600,250.0,1,E10RD,70,train
143.18013191223145,3,4,0,5,1,2,E+,1,0,2,400,600,250.0,0,E10RD,71,train
287.3220443725586,3,4,0,5,1,2,E+,0,4,1,400,600,250.0,5,E10RD,72,train
127.20394134521484,3,4,0,5,1,2,E+,1,0,2,400,600,250.0,0,E10RD,73,train
287.1708869934082,3,4,0,5,1,2,E+,1,5,3,400,600,250.0,5,E10RD,74,train
143.28312873840332,3,4,0,5,1,2,E+,1,3,0,400,600,250.0,3,E10RD,75,train
31.383991241455078,3,4,0,5,1,2,E+,1,4,1,400,600,250.0,4,E10RD,76,train
255.32007217407227,3,4,0,5,1,2,E+,1,2,5,400,600,250.0,2,E10RD,77,train
31.32009506225586,3,4,0,5,1,2,E+,1,1,4,400,600,250.0,1,E10RD,78,train
319.21887397766113,3,4,0,5,1,2,E+,1,2,5,400,600,250.0,2,E10RD,79,train
143.19300651550293,3,4,0,5,1,2,E+,1,1,4,400,600,250.0,1,E10RD,80,train
239.1641139984131,3,4,0,5,1,2,E+,1,5,3,400,600,250.0,5,E10RD,81,train
191.27488136291504,3,4,0,5,1,2,E+,1,3,0,400,600,250.0,3,E10RD,82,train
127.21085548400879,3,4,0,5,1,2,E+,1,5,3,400,600,250.0,5,E10RD,83,train
175.17781257629395,3,4,0,5,1,2,E+,0,1,4,400,600,250.0,0,E10RD,84,train
287.2459888458252,3,4,0,5,1,2,E+,1,4,1,400,600,250.0,4,E10RD,85,train
255.18798828125,3,4,0,5,1,2,E+,1,4,1,400,600,250.0,4,E10RD,86,train
111.23085021972656,3,4,0,5,1,2,E+,1,5,3,400,600,250.0,5,E10RD,87,train
159.12604331970215,3,4,0,5,1,2,E+,1,0,2,400,600,250.0,0,E10RD,88,train
159.20615196228027,3,4,0,5,1,2,E+,1,1,4,400,600,250.0,1,E10RD,89,train
175.3389835357666,3,4,0,5,1,2,E+,1,5,3,400,600,250.0,5,E10RD,90,train
47.20807075500488,3,4,0,5,1,2,E+,1,4,1,400,600,250.0,4,E10RD,91,train
127.18510627746582,3,4,0,5,1,2,E+,1,1,4,400,600,250.0,1,E10RD,92,train
15.279054641723633,3,4,0,5,1,2,E+,0,0,2,400,600,250.0,1,E10RD,93,train
191.1008358001709,3,4,0,5,1,2,E+,1,5,3,400,600,250.0,5,E10RD,94,train
255.20992279052734,3,4,0,5,1,2,E+,0,2,5,400,600,250.0,1,E10RD,95,train
239.1369342803955,3,4,0,5,1,2,E+,1,1,4,400,600,250.0,1,E10RD,96,train
95.3068733215332,3,4,0,5,1,2,E+,1,5,3,400,600,250.0,5,E10RD,97,train
303.2090663909912,3,4,0,5,1,2,E+,1,3,0,400,600,250.0,3,E10RD,98,train
159.28196907043457,3,4,0,5,1,2,E+,1,5,3,400,600,250.0,5,E10RD,99,train
159.1930389404297,3,4,0,5,1,2,E+,1,4,1,400,600,250.0,4,E10RD,100,train
143.13793182373047,3,4,0,5,1,2,E+,1,5,3,400,600,250.0,5,E10RD,101,train
63.282012939453125,3,4,0,5,1,2,E+,1,3,0,400,600,250.0,3,E10RD,102,train
159.1949462890625,3,4,0,5,1,2,E+,1,1,4,400,600,250.0,1,E10RD,103,train
287.1110439300537,3,4,0,5,1,2,E+,0,4,1,400,600,250.0,5,E10RD,104,train
207.20815658569336,3,4,0,5,1,2,E+,1,5,3,400,600,250.0,5,E10RD,105,train
175.16303062438965,3,4,0,5,1,2,E+,1,0,2,400,600,250.0,0,E10RD,106,train
127.2120475769043,3,4,0,5,1,2,E+,1,4,1,400,600,250.0,4,E10RD,107,train
175.15206336975098,3,4,0,5,1,2,E+,1,5,3,400,600,250.0,5,E10RD,108,train
255.78904151916504,3,4,0,5,1,2,E+,1,2,5,400,600,250.0,2,E10RD,109,train
255.88488578796387,3,4,0,5,1,2,E+,1,4,1,400,600,250.0,4,E10RD,110,train
47.93906211853027,3,4,0,5,1,2,E+,1,5,3,400,600,250.0,5,E10RD,111,train
111.23800277709961,3,4,0,5,1,2,E+,1,0,2,400,600,250.0,0,E10RD,112,train
111.2370491027832,3,4,0,5,1,2,E+,1,0,2,400,600,250.0,0,E10RD,113,train
335.1571559906006,3,4,0,5,1,2,E+,1,4,1,400,600,250.0,4,E10RD,114,train
159.22093391418457,3,4,0,5,1,2,E+,1,1,4,400,600,250.0,1,E10RD,115,train
239.16316032409668,3,4,0,5,1,2,E+,1,4,1,400,600,250.0,4,E10RD,116,train
143.1570053100586,3,4,0,5,1,2,E+,1,5,3,400,600,250.0,5,E10RD,117,train
47.345876693725586,3,4,0,5,1,2,E+,1,5,3,400,600,250.0,5,E10RD,118,train
207.2131633758545,3,4,0,5,1,2,E+,0,2,5,400,600,250.0,1,E10RD,119,train
191.21909141540527,3,4,0,5,1,2,E+,0,3,0,400,600,250.0,4,E10RD,120,train
271.1818218231201,3,4,0,5,1,2,E+,1,5,3,400,600,250.0,5,E10RD,121,train
255.2490234375,3,4,0,5,1,2,E+,1,5,3,400,600,250.0,5,E10RD,122,train
143.26810836791992,3,4,0,5,1,2,E+,1,5,3,400,600,250.0,5,E10RD,123,train
159.17491912841797,3,4,0,5,1,2,E+,1,0,2,400,600,250.0,0,E10RD,124,train
95.36600112915039,3,4,0,5,1,2,E+,1,0,2,400,600,250.0,0,E10RD,125,train
559.2129230499268,3,4,0,5,1,2,E+,1,3,0,400,600,250.0,3,E10RD,126,train
79.16998863220215,3,4,0,5,1,2,E+,1,0,2,400,600,250.0,0,E10RD,127,train
175.19307136535645,3,4,0,5,1,2,E+,1,5,3,400,600,250.0,5,E10RD,128,train
335.25896072387695,3,4,0,5,1,2,E+,1,2,5,400,600,250.0,2,E10RD,129,train
287.214994430542,3,4,0,5,1,2,E+,1,5,3,400,600,250.0,5,E10RD,130,train
143.2480812072754,3,4,0,5,1,2,E+,1,4,1,400,600,250.0,4,E10RD,131,train
159.26194190979004,3,4,0,5,1,2,E+,1,0,2,400,600,250.0,0,E10RD,132,train
31.22091293334961,3,4,0,5,1,2,E+,1,1,4,400,600,250.0,1,E10RD,133,train
127.23207473754883,3,4,0,5,1,2,E+,1,1,4,400,600,250.0,1,E10RD,134,train
191.29300117492676,3,4,0,5,1,2,E+,1,5,3,400,600,250.0,5,E10RD,135,train
95.37911415100098,3,4,0,5,1,2,E+,1,0,2,400,600,250.0,0,E10RD,136,train
175.26006698608398,3,4,0,5,1,2,E+,1,1,4,400,600,250.0,1,E10RD,137,train
79.34999465942383,3,4,0,5,1,2,E+,1,1,4,400,600,250.0,1,E10RD,138,train
239.31193351745605,3,4,0,5,1,2,E+,0,3,0,400,600,250.0,2,E10RD,139,train
143.25308799743652,3,4,0,5,1,2,E+,1,3,0,400,600,250.0,3,E10RD,140,train
319.3221092224121,3,4,0,5,1,2,E+,0,2,5,400,600,250.0,1,E10RD,141,train
191.2250518798828,3,4,0,5,1,2,E+,1,0,2,400,600,250.0,0,E10RD,142,train
271.2271213531494,3,4,0,5,1,2,E+,1,2,5,400,600,250.0,2,E10RD,143,train
143.14007759094238,3,4,0,5,1,2,E+,1,1,4,400,600,250.0,1,E10RD,144,train
207.25107192993164,3,4,0,5,1,2,E+,1,1,4,400,600,250.0,1,E10RD,145,train
751.4111995697021,3,4,0,5,1,2,E+,1,3,0,400,600,250.0,3,E10RD,146,train
207.24892616271973,3,4,0,5,1,2,E+,1,4,1,400,600,250.0,4,E10RD,147,train
127.28500366210938,3,4,0,5,1,2,E+,1,0,2,400,600,250.0,0,E10RD,148,train
287.22691535949707,3,4,0,5,1,2,E+,1,1,4,400,600,250.0,1,E10RD,149,train
287.25600242614746,3,4,0,5,1,2,E+,1,3,0,400,600,250.0,3,E10RD,150,train
143.23997497558594,3,4,0,5,1,2,E+,1,0,2,400,600,250.0,0,E10RD,151,train
319.0159797668457,3,4,0,5,1,2,E+,1,3,0,400,600,250.0,3,E10RD,152,train
175.23980140686035,3,4,0,5,1,2,E+,1,1,4,400,600,250.0,1,E10RD,153,train
111.29879951477051,3,4,0,5,1,2,E+,1,1,4,400,600,250.0,1,E10RD,154,train
79.33783531188965,3,4,0,5,1,2,E+,1,1,4,400,600,250.0,1,E10RD,155,train
159.2690944671631,3,4,0,5,1,2,E+,1,0,2,400,600,250.0,0,E10RD,156,train
207.31091499328613,3,4,0,5,1,2,E+,1,2,5,400,600,250.0,2,E10RD,157,train
143.23115348815918,3,4,0,5,1,2,E+,1,3,0,400,600,250.0,3,E10RD,158,train
207.25202560424805,3,4,0,5,1,2,E+,1,5,3,400,600,250.0,5,E10RD,159,train
175.29892921447754,3,4,0,5,1,2,E+,1,3,0,400,600,250.0,3,E10RD,160,train
143.3110237121582,3,4,0,5,1,2,E+,1,5,3,400,600,250.0,5,E10RD,161,train
127.23612785339355,3,4,0,5,1,2,E+,1,0,2,400,600,250.0,0,E10RD,162,train
223.3130931854248,3,4,0,5,1,2,E+,1,4,1,400,600,250.0,4,E10RD,163,train
127.3500919342041,3,4,0,5,1,2,E+,1,0,2,400,600,250.0,0,E10RD,164,train
191.57910346984863,3,4,0,5,1,2,E+,0,3,0,400,600,250.0,2,E10RD,165,train
463.5300636291504,3,4,0,5,1,2,E+,1,4,1,400,600,250.0,4,E10RD,166,train
111.24801635742188,3,4,0,5,1,2,E+,1,0,2,400,600,250.0,0,E10RD,167,train
303.3020496368408,3,4,0,5,1,2,E+,1,3,0,400,600,250.0,3,E10RD,168,train
127.12502479553223,3,4,0,5,1,2,E+,0,2,5,400,600,250.0,3,E10RD,169,train
239.12286758422852,3,4,0,5,1,2,E+,1,5,3,400,600,250.0,5,E10RD,170,train
287.25504875183105,3,4,0,5,1,2,E+,1,1,4,400,600,250.0,1,E10RD,171,train
319.195032119751,3,4,0,5,1,2,E+,1,4,1,400,600,250.0,4,E10RD,172,train
415.2381420135498,3,4,0,5,1,2,E+,1,3,0,400,600,250.0,3,E10RD,173,train
351.14002227783203,3,4,0,5,1,2,E+,1,4,1,400,600,250.0,4,E10RD,174,train
159.18898582458496,3,4,0,5,1,2,E+,1,0,2,400,600,250.0,0,E10RD,175,train
223.1919765472412,3,4,0,5,1,2,E+,1,2,5,400,600,250.0,2,E10RD,176,train
287.31799125671387,3,4,0,5,1,2,E+,1,5,3,400,600,250.0,5,E10RD,177,train
159.24382209777832,3,4,0,5,1,2,E+,1,4,1,400,600,250.0,4,E10RD,178,train
687.2358322143555,3,4,0,5,1,2,E+,1,3,0,400,600,250.0,3,E10RD,179,train
463.3021354675293,3,4,0,5,1,2,E+,1,3,0,400,600,250.0,3,E10RD,180,train
399.20711517333984,3,4,0,5,1,2,E+,1,4,1,400,600,250.0,4,E10RD,181,train
175.3089427947998,3,4,0,5,1,2,E+,1,1,4,400,600,250.0,1,E10RD,182,train
415.34996032714844,3,4,0,5,1,2,E+,1,5,3,400,600,250.0,5,E10RD,183,train
127.23803520202637,3,4,0,5,1,2,E+,1,1,4,400,600,250.0,1,E10RD,184,train
687.3419284820557,3,4,0,5,1,2,E+,1,3,0,400,600,250.0,3,E10RD,185,train
111.27209663391113,3,4,0,5,1,2,E+,1,3,0,400,600,250.0,3,E10RD,186,train
127.35414505004883,3,4,0,5,1,2,E+,1,1,4,400,600,250.0,1,E10RD,187,train
143.2321071624756,3,4,0,5,1,2,E+,1,4,1,400,600,250.0,4,E10RD,188,train
159.2249870300293,3,4,0,5,1,2,E+,1,5,3,400,600,250.0,5,E10RD,189,train
207.0310115814209,3,4,0,5,1,2,E+,0,2,5,400,600,250.0,1,E10RD,190,train
255.23090362548828,3,4,0,5,1,2,E+,1,5,3,400,600,250.0,5,E10RD,191,train
159.21688079833984,3,4,0,5,1,2,E+,1,5,3,400,600,250.0,5,E10RD,192,train
351.28092765808105,3,4,0,5,1,2,E+,1,2,5,400,600,250.0,2,E10RD,193,train
191.30206108093262,3,4,0,5,1,2,E+,1,0,2,400,600,250.0,0,E10RD,194,train
495.319128036499,3,4,0,5,1,2,E+,1,3,0,400,600,250.0,3,E10RD,195,train
143.09406280517578,3,4,0,5,1,2,E+,1,1,4,400,600,250.0,1,E10RD,196,train
127.39896774291992,3,4,0,5,1,2,E+,1,1,4,400,600,250.0,1,E10RD,197,train
223.21701049804688,3,4,0,5,1,2,E+,1,2,5,400,600,250.0,2,E10RD,198,train
271.2831497192383,3,4,0,5,1,2,E+,1,4,1,400,600,250.0,4,E10RD,199,train
95.3679084777832,3,4,0,5,1,2,E+,1,4,1,400,600,250.0,4,E10RD,200,train
287.1859073638916,3,4,0,5,1,2,E+,1,3,0,400,600,250.0,3,E10RD,201,train
319.3240165710449,3,4,0,5,1,2,E+,1,4,1,400,600,250.0,4,E10RD,202,train
351.20606422424316,3,4,0,5,1,2,E+,1,2,5,400,600,250.0,2,E10RD,203,train
143.30601692199707,3,4,0,5,1,2,E+,1,2,5,400,600,250.0,2,E10RD,204,train
223.15001487731934,3,4,0,5,1,2,E+,1,1,4,400,600,250.0,1,E10RD,205,train
351.0730266571045,3,4,0,5,1,2,E+,1,4,1,400,600,250.0,4,E10RD,206,train
111.30905151367188,3,4,0,5,1,2,E+,1,4,1,400,600,250.0,4,E10RD,207,train
303.33399772644043,3,4,0,5,1,2,E+,1,1,4,400,600,250.0,1,E10RD,208,train
191.17999076843262,3,4,0,5,1,2,E+,1,1,4,400,600,250.0,1,E10RD,209,train
143.24307441711426,3,4,0,5,1,2,E+,1,0,2,400,600,250.0,0,E10RD,210,train
47.384023666381836,3,4,0,5,1,2,E+,1,1,4,400,600,250.0,1,E10RD,211,train
271.2290287017822,3,4,0,5,1,2,E+,1,4,1,400,600,250.0,4,E10RD,212,train
175.32110214233398,3,4,0,5,1,2,E+,1,4,1,400,600,250.0,4,E10RD,213,train
127.25400924682617,3,4,0,5,1,2,E+,1,0,2,400,600,250.0,0,E10RD,214,train
111.72008514404297,3,4,0,5,1,2,E+,1,0,2,400,600,250.0,0,E10RD,215,train
79.32209968566895,3,4,0,5,1,2,E+,1,0,2,400,600,250.0,0,E10RD,216,train
47.38306999206543,3,4,0,5,1,2,E+,1,1,4,400,600,250.0,1,E10RD,217,train
175.31490325927734,3,4,0,5,1,2,E+,1,4,1,400,600,250.0,4,E10RD,218,train
15.339851379394531,3,4,0,5,1,2,E+,1,3,0,400,600,250.0,3,E10RD,219,train
175.18115043640137,3,4,0,5,1,2,E+,1,2,5,400,600,250.0,2,E10RD,220,train
143.3429718017578,3,4,0,5,1,2,E+,1,2,5,400,600,250.0,2,E10RD,221,train
191.28704071044922,3,4,0,5,1,2,E+,1,5,3,400,600,250.0,5,E10RD,222,train
127.3040771484375,3,4,0,5,1,2,E+,1,0,2,400,600,250.0,0,E10RD,223,train
207.27896690368652,3,4,0,5,1,2,E+,0,2,5,400,600,250.0,3,E10RD,224,train
175.42505264282227,3,4,0,5,1,2,E+,1,5,3,400,600,250.0,5,E10RD,225,train
143.7819004058838,3,4,0,5,1,2,E+,1,0,2,400,600,250.0,0,E10RD,226,train
111.84191703796387,3,4,0,5,1,2,E+,1,0,2,400,600,250.0,0,E10RD,227,train
319.9331760406494,3,4,0,5,1,2,E+,0,3,0,400,600,250.0,4,E10RD,228,train
239.99285697937012,3,4,0,5,1,2,E+,1,3,0,400,600,250.0,3,E10RD,229,train
31.820058822631836,3,4,0,5,1,2,E+,1,4,1,400,600,250.0,4,E10RD,230,train
63.838958740234375,3,4,0,5,1,2,E+,1,4,1,400,600,250.0,4,E10RD,231,train
111.75894737243652,3,4,0,5,1,2,E+,1,0,2,400,600,250.0,0,E10RD,232,train
143.92781257629395,3,4,0,5,1,2,E+,1,5,3,400,600,250.0,5,E10RD,233,train
303.88402938842773,3,4,0,5,1,2,E+,1,4,1,400,600,250.0,4,E10RD,234,train
159.898042678833,3,4,0,5,1,2,E+,0,2,5,400,600,250.0,1,E10RD,235,train
127.8989315032959,3,4,0,5,1,2,E+,1,2,5,400,600,250.0,2,E10RD,236,train
223.82521629333496,3,4,0,5,1,2,E+,1,5,3,400,600,250.0,5,E10RD,237,train
111.96708679199219,3,4,0,5,1,2,E+,1,5,3,400,600,250.0,5,E10RD,238,train
0.030040740966796875,3,4,0,5,1,2,E+,1,3,0,400,600,250.0,3,E10RD,239,train
111.76705360412598,3,4,0,5,1,2,E+,1,1,4,400,600,250.0,1,E10RD,240,train
31.88610076904297,3,4,0,5,1,2,E+,1,3,0,400,600,250.0,3,E10RD,241,train
0.05602836608886719,3,4,0,5,1,2,E+,1,3,0,400,600,250.0,3,E10RD,242,train
111.21606826782227,3,4,0,5,1,2,E+,1,1,4,400,600,250.0,1,E10RD,243,train
15.427112579345703,3,4,0,5,1,2,E+,1,3,0,400,600,250.0,3,E10RD,244,train
15.388011932373047,3,4,0,5,1,2,E+,1,3,0,400,600,250.0,3,E10RD,245,train
95.35384178161621,3,4,0,5,1,2,E+,0,2,5,400,600,250.0,1,E10RD,246,train
303.13801765441895,3,4,0,5,1,2,E+,1,4,1,400,600,250.0,4,E10RD,247,train
47.23381996154785,3,4,0,5,1,2,E+,1,4,1,400,600,250.0,4,E10RD,248,train
207.31616020202637,3,4,0,5,1,2,E+,1,1,4,400,600,250.0,1,E10RD,249,train
3040.508031845093,3,4,0,5,1,2,E+,1,1,4,0,1000,250.0,1,E10RD,250,test
1072.6408958435059,3,4,0,5,1,2,E+,1,1,4,0,1000,250.0,1,E10RD,251,test
1312.4680519104004,3,4,0,5,1,2,E+,1,2,5,0,1000,250.0,2,E10RD,252,test
1280.9019088745117,3,4,0,5,1,2,E+,1,5,3,0,1000,250.0,5,E10RD,253,test
1488.5170459747314,3,4,0,5,1,2,E+,1,3,0,0,1000,250.0,3,E10RD,254,test
1152.5869369506836,3,4,0,5,1,2,E+,1,0,2,0,1000,250.0,0,E10RD,255,test
1904.5698642730713,3,4,0,5,1,2,E+,1,3,0,0,1000,250.0,3,E10RD,256,test
896.8260288238525,3,4,0,5,1,2,E+,1,4,1,0,1000,250.0,4,E10RD,257,test
1024.609088897705,3,4,0,5,1,2,E+,1,1,4,0,1000,250.0,1,E10RD,258,test
1296.501874923706,3,4,0,5,1,2,E+,1,4,1,0,1000,250.0,4,E10RD,259,test
736.9070053100586,3,4,0,5,1,2,E+,1,4,1,0,1000,250.0,4,E10RD,260,test
1008.6071491241455,3,4,0,5,1,2,E+,1,1,4,0,1000,250.0,1,E10RD,261,test
1424.5319366455078,3,4,0,5,1,2,E+,1,3,0,0,1000,250.0,3,E10RD,262,test
352.77581214904785,3,4,0,5,1,2,E+,0,1,4,0,1000,250.0,5,E10RD,263,test
480.7548522949219,3,4,0,5,1,2,E+,0,2,5,0,1000,250.0,5,E10RD,264,test
1648.7650871276855,3,4,0,5,1,2,E+,1,3,0,0,1000,250.0,3,E10RD,265,test
672.5718975067139,3,4,0,5,1,2,E+,1,0,2,0,1000,250.0,0,E10RD,266,test
624.5510578155518,3,4,0,5,1,2,E+,1,5,3,0,1000,250.0,5,E10RD,267,test
1248.6069202423096,3,4,0,5,1,2,E+,1,4,1,0,1000,250.0,4,E10RD,268,test
800.6529808044434,3,4,0,5,1,2,E+,1,1,4,0,1000,250.0,1,E10RD,269,test
929.0950298309326,3,4,0,5,1,2,E+,1,3,0,0,1000,250.0,3,E10RD,270,test
817.1420097351074,3,4,0,5,1,2,E+,0,4,1,0,1000,250.0,1,E10RD,271,test
704.6208381652832,3,4,0,5,1,2,E+,1,0,2,0,1000,250.0,0,E10RD,272,test
800.6010055541992,3,4,0,5,1,2,E+,1,2,5,0,1000,250.0,2,E10RD,273,test
1121.0670471191406,3,4,0,5,1,2,E+,1,4,1,0,1000,250.0,4,E10RD,274,test
561.0349178314209,3,4,0,5,1,2,E+,1,5,3,0,1000,250.0,5,E10RD,275,test
577.1119594573975,3,4,0,5,1,2,E+,1,5,3,0,1000,250.0,5,E10RD,276,test
673.0210781097412,3,4,0,5,1,2,E+,1,0,2,0,1000,250.0,0,E10RD,277,test
769.0701484680176,3,4,0,5,1,2,E+,0,4,1,0,1000,250.0,1,E10RD,278,test
416.93592071533203,3,4,0,5,1,2,E+,1,1,4,0,1000,250.0,1,E10RD,279,test
577.0580768585205,3,4,0,5,1,2,E+,1,1,4,0,1000,250.0,1,E10RD,280,test
529.0501117706299,3,4,0,5,1,2,E+,1,1,4,0,1000,250.0,1,E10RD,281,test
656.8319797515869,3,4,0,5,1,2,E+,1,0,2,0,1000,250.0,0,E10RD,282,test
689.0950202941895,3,4,0,5,1,2,E+,1,1,4,0,1000,250.0,1,E10RD,283,test
657.0000648498535,3,4,0,5,1,2,E+,1,0,2,0,1000,250.0,0,E10RD,284,test
1185.10103225708,3,4,0,5,1,2,E+,1,3,0,0,1000,250.0,3,E10RD,285,test
737.0891571044922,3,4,0,5,1,2,E+,0,4,1,0,1000,250.0,1,E10RD,286,test
832.9508304595947,3,4,0,5,1,2,E+,1,2,5,0,1000,250.0,2,E10RD,287,test
592.9760932922363,3,4,0,5,1,2,E+,1,0,2,0,1000,250.0,0,E10RD,288,test
657.0990085601807,3,4,0,5,1,2,E+,1,0,2,0,1000,250.0,0,E10RD,289,test
609.0989112854004,3,4,0,5,1,2,E+,1,4,1,0,1000,250.0,4,E10RD,290,test
1217.0650959014893,3,4,0,5,1,2,E+,1,3,0,0,1000,250.0,3,E10RD,291,test
656.9869518280029,3,4,0,5,1,2,E+,0,0,2,0,1000,250.0,1,E10RD,292,test
961.0490798950195,3,4,0,5,1,2,E+,1,2,5,0,1000,250.0,2,E10RD,293,test
705.0421237945557,3,4,0,5,1,2,E+,1,1,4,0,1000,250.0,1,E10RD,294,test
849.1311073303223,3,4,0,5,1,2,E+,1,2,5,0,1000,250.0,2,E10RD,295,test
721.1298942565918,3,4,0,5,1,2,E+,0,0,2,0,1000,250.0,1,E10RD,296,test
720.9880352020264,3,4,0,5,1,2,E+,1,5,3,0,1000,250.0,5,E10RD,297,test
1056.7619800567627,3,4,0,5,1,2,E+,1,3,0,0,1000,250.0,3,E10RD,298,test
641.0338878631592,3,4,0,5,1,2,E+,1,5,3,0,1000,250.0,5,E10RD,299,test
529.0789604187012,3,4,0,5,1,2,E+,1,5,3,0,1000,250.0,5,E10RD,300,test
880.5689811706543,3,4,0,5,1,2,E+,1,2,5,0,1000,250.0,2,E10RD,301,test
689.0230178833008,3,4,0,5,1,2,E+,1,1,4,0,1000,250.0,1,E10RD,302,test
577.0430564880371,3,4,0,5,1,2,E+,1,0,2,0,1000,250.0,0,E10RD,303,test
656.9399833679199,3,4,0,5,1,2,E+,1,5,3,0,1000,250.0,5,E10RD,304,test
561.060905456543,3,4,0,5,1,2,E+,1,5,3,0,1000,250.0,5,E10RD,305,test
801.0032176971436,3,4,0,5,1,2,E+,1,2,5,0,1000,250.0,2,E10RD,306,test
609.0390682220459,3,4,0,5,1,2,E+,1,1,4,0,1000,250.0,1,E10RD,307,test
577.0039558410645,3,4,0,5,1,2,E+,1,5,3,0,1000,250.0,5,E10RD,308,test
993.1321144104004,3,4,0,5,1,2,E+,0,0,2,0,1000,250.0,1,E10RD,309,test
736.9778156280518,3,4,0,5,1,2,E+,1,4,1,0,1000,250.0,4,E10RD,310,test
609.1291904449463,3,4,0,5,1,2,E+,1,1,4,0,1000,250.0,1,E10RD,311,test
761.4040374755859,3,4,0,5,1,2,E+,1,4,1,0,1000,250.0,4,E10RD,312,test
577.0659446716309,3,4,0,5,1,2,E+,1,4,1,0,1000,250.0,4,E10RD,313,test
465.0890827178955,3,4,0,5,1,2,E+,1,4,1,0,1000,250.0,4,E10RD,314,test
625.053882598877,3,4,0,5,1,2,E+,1,5,3,0,1000,250.0,5,E10RD,315,test
545.1259613037109,3,4,0,5,1,2,E+,1,1,4,0,1000,250.0,1,E10RD,316,test
881.1230659484863,3,4,0,5,1,2,E+,1,3,0,0,1000,250.0,3,E10RD,317,test
497.0428943634033,3,4,0,5,1,2,E+,1,5,3,0,1000,250.0,5,E10RD,318,test
561.129093170166,3,4,0,5,1,2,E+,1,5,3,0,1000,250.0,5,E10RD,319,test
705.0621509552002,3,4,0,5,1,2,E+,1,2,5,0,1000,250.0,2,E10RD,320,test
705.1129341125488,3,4,0,5,1,2,E+,1,3,0,0,1000,250.0,3,E10RD,321,test
689.0590190887451,3,4,0,5,1,2,E+,1,0,2,0,1000,250.0,0,E10RD,322,test
769.0708637237549,3,4,0,5,1,2,E+,1,4,1,0,1000,250.0,4,E10RD,323,test
689.1098022460938,3,4,0,5,1,2,E+,1,2,5,0,1000,250.0,2,E10RD,324,test
609.0970039367676,3,4,0,5,1,2,E+,1,3,0,0,1000,250.0,3,E10RD,325,test
577.0680904388428,3,4,0,5,1,2,E+,1,3,0,0,1000,250.0,3,E10RD,326,test
1009.1078281402588,3,4,0,5,1,2,E+,1,1,4,0,1000,250.0,1,E10RD,327,test
625.0770092010498,3,4,0,5,1,2,E+,1,4,1,0,1000,250.0,4,E10RD,328,test
688.9030933380127,3,4,0,5,1,2,E+,1,0,2,0,1000,250.0,0,E10RD,329,test
593.080997467041,3,4,0,5,1,2,E+,1,1,4,0,1000,250.0,1,E10RD,330,test
545.0930595397949,3,4,0,5,1,2,E+,1,5,3,0,1000,250.0,5,E10RD,331,test
496.95706367492676,3,4,0,5,1,2,E+,1,3,0,0,1000,250.0,3,E10RD,332,test
385.026216506958,3,4,0,5,1,2,E+,1,2,5,0,1000,250.0,2,E10RD,333,test
625.1208782196045,3,4,0,5,1,2,E+,1,5,3,0,1000,250.0,5,E10RD,334,test
577.1400928497314,3,4,0,5,1,2,E+,1,1,4,0,1000,250.0,1,E10RD,335,test
529.0920734405518,3,4,0,5,1,2,E+,1,1,4,0,1000,250.0,1,E10RD,336,test
737.1089458465576,3,4,0,5,1,2,E+,1,5,3,0,1000,250.0,5,E10RD,337,test
769.111156463623,3,4,0,5,1,2,E+,1,0,2,0,1000,250.0,0,E10RD,338,test
785.0520610809326,3,4,0,5,1,2,E+,1,3,0,0,1000,250.0,3,E10RD,339,test
753.1270980834961,3,4,0,5,1,2,E+,1,1,4,0,1000,250.0,1,E10RD,340,test
577.1169662475586,3,4,0,5,1,2,E+,0,4,1,0,1000,250.0,5,E10RD,341,test
865.0038242340088,3,4,0,5,1,2,E+,1,3,0,0,1000,250.0,3,E10RD,342,test
641.0598754882812,3,4,0,5,1,2,E+,1,1,4,0,1000,250.0,1,E10RD,343,test
641.1228179931641,3,4,0,5,1,2,E+,1,0,2,0,1000,250.0,0,E10RD,344,test
545.0730323791504,3,4,0,5,1,2,E+,0,2,5,0,1000,250.0,3,E10RD,345,test
705.064058303833,3,4,0,5,1,2,E+,0,0,2,0,1000,250.0,1,E10RD,346,test
1088.9198780059814,3,4,0,5,1,2,E+,1,2,5,0,1000,250.0,2,E10RD,347,test
705.111026763916,3,4,0,5,1,2,E+,1,1,4,0,1000,250.0,1,E10RD,348,test
753.0510425567627,3,4,0,5,1,2,E+,1,0,2,0,1000,250.0,0,E10RD,349,test
657.1199893951416,3,4,0,5,1,2,E+,1,3,0,0,1000,250.0,3,E10RD,350,test
513.1030082702637,3,4,0,5,1,2,E+,1,2,5,0,1000,250.0,2,E10RD,351,test
705.0061225891113,3,4,0,5,1,2,E+,1,3,0,0,1000,250.0,3,E10RD,352,test
657.0320129394531,3,4,0,5,1,2,E+,1,1,4,0,1000,250.0,1,E10RD,353,test
609.0171337127686,3,4,0,5,1,2,E+,1,5,3,0,1000,250.0,5,E10RD,354,test
785.0861549377441,3,4,0,5,1,2,E+,1,1,4,0,1000,250.0,1,E10RD,355,test
481.0659885406494,3,4,0,5,1,2,E+,1,0,2,0,1000,250.0,0,E10RD,356,test
577.0609378814697,3,4,0,5,1,2,E+,1,1,4,0,1000,250.0,1,E10RD,357,test
561.1169338226318,3,4,0,5,1,2,E+,0,4,1,0,1000,250.0,5,E10RD,358,test
688.9729499816895,3,4,0,5,1,2,E+,1,1,4,0,1000,250.0,1,E10RD,359,test
769.0410614013672,3,4,0,5,1,2,E+,1,2,5,0,1000,250.0,2,E10RD,360,test
528.9959907531738,3,4,0,5,1,2,E+,1,2,5,0,1000,250.0,2,E10RD,361,test
497.0381259918213,3,4,0,5,1,2,E+,1,3,0,0,1000,250.0,3,E10RD,362,test
657.0909023284912,3,4,0,5,1,2,E+,1,2,5,0,1000,250.0,2,E10RD,363,test
656.9728851318359,3,4,0,5,1,2,E+,1,0,2,0,1000,250.0,0,E10RD,364,test
577.1629810333252,3,4,0,5,1,2,E+,1,5,3,0,1000,250.0,5,E10RD,365,test
689.0048980712891,3,4,0,5,1,2,E+,1,0,2,0,1000,250.0,0,E10RD,366,test
577.0158767700195,3,4,0,5,1,2,E+,1,1,4,0,1000,250.0,1,E10RD,367,test
689.0878677368164,3,4,0,5,1,2,E+,1,0,2,0,1000,250.0,0,E10RD,368,test
593.0459499359131,3,4,0,5,1,2,E+,1,1,4,0,1000,250.0,1,E10RD,369,test
641.136884689331,3,4,0,5,1,2,E+,0,2,5,0,1000,250.0,5,E10RD,370,test
705.0330638885498,3,4,0,5,1,2,E+,1,3,0,0,1000,250.0,3,E10RD,371,test
465.0740623474121,3,4,0,5,1,2,E+,1,2,5,0,1000,250.0,2,E10RD,372,test
577.0947933197021,3,4,0,5,1,2,E+,1,0,2,0,1000,250.0,0,E10RD,373,test
817.1250820159912,3,4,0,5,1,2,E+,1,1,4,0,1000,250.0,1,E10RD,374,test
561.0618591308594,3,4,0,5,1,2,E+,0,0,2,0,1000,250.0,1,E10RD,375,test
784.9950790405273,3,4,0,5,1,2,E+,1,2,5,0,1000,250.0,2,E10RD,376,test
752.9909610748291,3,4,0,5,1,2,E+,1,1,4,0,1000,250.0,1,E10RD,377,test
689.1019344329834,3,4,0,5,1,2,E+,1,1,4,0,1000,250.0,1,E10RD,378,test
817.0220851898193,3,4,0,5,1,2,E+,1,4,1,0,1000,250.0,4,E10RD,379,test
576.7848491668701,3,4,0,5,1,2,E+,1,5,3,0,1000,250.0,5,E10RD,380,test
913.092851638794,3,4,0,5,1,2,E+,1,2,5,0,1000,250.0,2,E10RD,381,test
561.0630512237549,3,4,0,5,1,2,E+,1,1,4,0,1000,250.0,1,E10RD,382,test
625.1201629638672,3,4,0,5,1,2,E+,1,5,3,0,1000,250.0,5,E10RD,383,test
704.9820423126221,3,4,0,5,1,2,E+,1,3,0,0,1000,250.0,3,E10RD,384,test
529.0570259094238,3,4,0,5,1,2,E+,1,0,2,0,1000,250.0,0,E10RD,385,test
865.1349544525146,3,4,0,5,1,2,E+,1,3,0,0,1000,250.0,3,E10RD,386,test
593.0788516998291,3,4,0,5,1,2,E+,1,5,3,0,1000,250.0,5,E10RD,387,test
785.1190567016602,3,4,0,5,1,2,E+,1,3,0,0,1000,250.0,3,E10RD,388,test
576.9810676574707,3,4,0,5,1,2,E+,1,5,3,0,1000,250.0,5,E10RD,389,test
705.129861831665,3,4,0,5,1,2,E+,1,1,4,0,1000,250.0,1,E10RD,390,test
737.1230125427246,3,4,0,5,1,2,E+,1,3,0,0,1000,250.0,3,E10RD,391,test
689.0628337860107,3,4,0,5,1,2,E+,1,2,5,0,1000,250.0,2,E10RD,392,test
593.0609703063965,3,4,0,5,1,2,E+,1,4,1,0,1000,250.0,4,E10RD,393,test
593.0390357971191,3,4,0,5,1,2,E+,0,2,5,0,1000,250.0,3,E10RD,394,test
624.9580383300781,3,4,0,5,1,2,E+,1,5,3,0,1000,250.0,5,E10RD,395,test
689.0408992767334,3,4,0,5,1,2,E+,1,5,3,0,1000,250.0,5,E10RD,396,test
672.996997833252,3,4,0,5,1,2,E+,1,2,5,0,1000,250.0,2,E10RD,397,test
465.0580883026123,3,4,0,5,1,2,E+,1,3,0,0,1000,250.0,3,E10RD,398,test
881.0391426086426,3,4,0,5,1,2,E+,1,0,2,0,1000,250.0,0,E10RD,399,test
608.9022159576416,3,4,0,5,1,2,E+,0,4,1,0,1000,250.0,5,E10RD,400,test
689.0029907226562,3,4,0,5,1,2,E+,1,3,0,0,1000,250.0,3,E10RD,401,test
689.1508102416992,3,4,0,5,1,2,E+,1,2,5,0,1000,250.0,2,E10RD,402,test
640.9950256347656,3,4,0,5,1,2,E+,1,5,3,0,1000,250.0,5,E10RD,403,test
928.9770126342773,3,4,0,5,1,2,E+,1,1,4,0,1000,250.0,1,E10RD,404,test
512.991189956665,3,4,0,5,1,2,E+,1,1,4,0,1000,250.0,1,E10RD,405,test
577.0299434661865,3,4,0,5,1,2,E+,1,4,1,0,1000,250.0,4,E10RD,406,test
576.9438743591309,3,4,0,5,1,2,E+,1,5,3,0,1000,250.0,5,E10RD,407,test
528.8019180297852,3,4,0,5,1,2,E+,1,1,4,0,1000,250.0,1,E10RD,408,test
577.0459175109863,3,4,0,5,1,2,E+,1,0,2,0,1000,250.0,0,E10RD,409,test
496.89793586730957,3,4,0,5,1,2,E+,1,0,2,0,1000,250.0,0,E10RD,410,test
784.7788333892822,3,4,0,5,1,2,E+,1,2,5,0,1000,250.0,2,E10RD,411,test
640.8450603485107,3,4,0,5,1,2,E+,1,0,2,0,1000,250.0,0,E10RD,412,test
513.0548477172852,3,4,0,5,1,2,E+,1,0,2,0,1000,250.0,0,E10RD,413,test
704.9179077148438,3,4,0,5,1,2,E+,1,1,4,0,1000,250.0,1,E10RD,414,test
577.0628452301025,3,4,0,5,1,2,E+,1,3,0,0,1000,250.0,3,E10RD,415,test
609.0118885040283,3,4,0,5,1,2,E+,1,2,5,0,1000,250.0,2,E10RD,416,test
528.9981365203857,3,4,0,5,1,2,E+,1,4,1,0,1000,250.0,4,E10RD,417,test
496.98400497436523,3,4,0,5,1,2,E+,1,5,3,0,1000,250.0,5,E10RD,418,test
560.9719753265381,3,4,0,5,1,2,E+,1,5,3,0,1000,250.0,5,E10RD,419,test
641.1449909210205,3,4,0,5,1,2,E+,1,0,2,0,1000,250.0,0,E10RD,420,test
465.00492095947266,3,4,0,5,1,2,E+,1,1,4,0,1000,250.0,1,E10RD,421,test
561.1391067504883,3,4,0,5,1,2,E+,0,1,4,0,1000,250.0,0,E10RD,422,test
944.9911117553711,3,4,0,5,1,2,E+,1,2,5,0,1000,250.0,2,E10RD,423,test
512.9618644714355,3,4,0,5,1,2,E+,1,2,5,0,1000,250.0,2,E10RD,424,test
593.1320190429688,3,4,0,5,1,2,E+,1,3,0,0,1000,250.0,3,E10RD,425,test
561.1000061035156,3,4,0,5,1,2,E+,1,0,2,0,1000,250.0,0,E10RD,426,test
529.0741920471191,3,4,0,5,1,2,E+,1,0,2,0,1000,250.0,0,E10RD,427,test
753.087043762207,3,4,0,5,1,2,E+,1,4,1,0,1000,250.0,4,E10RD,428,test
433.0270290374756,3,4,0,5,1,2,E+,1,4,1,0,1000,250.0,4,E10RD,429,test
577.0630836486816,3,4,0,5,1,2,E+,1,1,4,0,1000,250.0,1,E10RD,430,test
705.0919532775879,3,4,0,5,1,2,E+,1,2,5,0,1000,250.0,2,E10RD,431,test
705.1100730895996,3,4,0,5,1,2,E+,1,1,4,0,1000,250.0,1,E10RD,432,test
833.122968673706,3,4,0,5,1,2,E+,1,4,1,0,1000,250.0,4,E10RD,433,test
752.9668807983398,3,4,0,5,1,2,E+,1,3,0,0,1000,250.0,3,E10RD,434,test
688.5659694671631,3,4,0,5,1,2,E+,1,1,4,0,1000,250.0,1,E10RD,435,test
576.5321254730225,3,4,0,5,1,2,E+,1,5,3,0,1000,250.0,5,E10RD,436,test
528.5768508911133,3,4,0,5,1,2,E+,0,0,2,0,1000,250.0,1,E10RD,437,test
832.5421810150146,3,4,0,5,1,2,E+,1,2,5,0,1000,250.0,2,E10RD,438,test
704.524040222168,3,4,0,5,1,2,E+,1,1,4,0,1000,250.0,1,E10RD,439,test
496.5488910675049,3,4,0,5,1,2,E+,1,1,4,0,1000,250.0,1,E10RD,440,test
976.5720367431641,3,4,0,5,1,2,E+,0,3,0,0,1000,250.0,2,E10RD,441,test
496.37913703918457,3,4,0,5,1,2,E+,1,3,0,0,1000,250.0,3,E10RD,442,test
656.4390659332275,3,4,0,5,1,2,E+,1,2,5,0,1000,250.0,2,E10RD,443,test
656.5461158752441,3,4,0,5,1,2,E+,1,5,3,0,1000,250.0,5,E10RD,444,test
704.5440673828125,3,4,0,5,1,2,E+,1,4,1,0,1000,250.0,4,E10RD,445,test
592.5350189208984,3,4,0,5,1,2,E+,1,0,2,0,1000,250.0,0,E10RD,446,test
480.5440902709961,3,4,0,5,1,2,E+,1,0,2,0,1000,250.0,0,E10RD,447,test
528.4409523010254,3,4,0,5,1,2,E+,1,0,2,0,1000,250.0,0,E10RD,448,test
656.5289497375488,3,4,0,5,1,2,E+,1,4,1,0,1000,250.0,4,E10RD,449,test
464.5428657531738,3,4,0,5,1,2,E+,1,4,1,0,1000,250.0,4,E10RD,450,test
720.5309867858887,3,4,0,5,1,2,E+,1,2,5,0,1000,250.0,2,E10RD,451,test
576.6100883483887,3,4,0,5,1,2,E+,1,0,2,0,1000,250.0,0,E10RD,452,test
608.5259914398193,3,4,0,5,1,2,E+,1,3,0,0,1000,250.0,3,E10RD,453,test
512.4781131744385,3,4,0,5,1,2,E+,1,1,4,0,1000,250.0,1,E10RD,454,test
528.5820960998535,3,4,0,5,1,2,E+,1,1,4,0,1000,250.0,1,E10RD,455,test
608.5381507873535,3,4,0,5,1,2,E+,1,5,3,0,1000,250.0,5,E10RD,456,test
432.5389862060547,3,4,0,5,1,2,E+,1,5,3,0,1000,250.0,5,E10RD,457,test
752.2010803222656,3,4,0,5,1,2,E+,1,2,5,0,1000,250.0,2,E10RD,458,test
704.5760154724121,3,4,0,5,1,2,E+,0,4,1,0,1000,250.0,3,E10RD,459,test
656.8808555603027,3,4,0,5,1,2,E+,1,0,2,0,1000,250.0,0,E10RD,460,test
544.5840358734131,3,4,0,5,1,2,E+,1,5,3,0,1000,250.0,5,E10RD,461,test
784.82985496521,3,4,0,5,1,2,E+,1,3,0,0,1000,250.0,3,E10RD,462,test
688.5898113250732,3,4,0,5,1,2,E+,1,1,4,0,1000,250.0,1,E10RD,463,test
672.976016998291,3,4,0,5,1,2,E+,0,2,5,0,1000,250.0,5,E10RD,464,test
592.7340984344482,3,4,0,5,1,2,E+,1,0,2,0,1000,250.0,0,E10RD,465,test
560.5030059814453,3,4,0,5,1,2,E+,1,5,3,0,1000,250.0,5,E10RD,466,test
720.9219932556152,3,4,0,5,1,2,E+,1,2,5,0,1000,250.0,2,E10RD,467,test
464.52999114990234,3,4,0,5,1,2,E+,1,2,5,0,1000,250.0,2,E10RD,468,test
608.4511280059814,3,4,0,5,1,2,E+,1,0,2,0,1000,250.0,0,E10RD,469,test
720.6790447235107,3,4,0,5,1,2,E+,1,4,1,0,1000,250.0,4,E10RD,470,test
896.5749740600586,3,4,0,5,1,2,E+,1,2,5,0,1000,250.0,2,E10RD,471,test
1088.8350009918213,3,4,0,5,1,2,E+,1,5,3,0,1000,250.0,5,E10RD,472,test
576.5559673309326,3,4,0,5,1,2,E+,1,0,2,0,1000,250.0,0,E10RD,473,test
688.6110305786133,3,4,0,5,1,2,E+,1,4,1,0,1000,250.0,4,E10RD,474,test
704.5769691467285,3,4,0,5,1,2,E+,1,3,0,0,1000,250.0,3,E10RD,475,test
560.5101585388184,3,4,0,5,1,2,E+,1,3,0,0,1000,250.0,3,E10RD,476,test
816.6038990020752,3,4,0,5,1,2,E+,1,1,4,0,1000,250.0,1,E10RD,477,test
560.5819225311279,3,4,0,5,1,2,E+,1,5,3,0,1000,250.0,5,E10RD,478,test
704.4830322265625,3,4,0,5,1,2,E+,1,0,2,0,1000,250.0,0,E10RD,479,test
528.548002243042,3,4,0,5,1,2,E+,1,0,2,0,1000,250.0,0,E10RD,480,test
640.5909061431885,3,4,0,5,1,2,E+,1,5,3,0,1000,250.0,5,E10RD,481,test
720.6230163574219,3,4,0,5,1,2,E+,1,1,4,0,1000,250.0,1,E10RD,482,test
736.522912979126,3,4,0,5,1,2,E+,1,3,0,0,1000,250.0,3,E10RD,483,test
672.5871562957764,3,4,0,5,1,2,E+,1,5,3,0,1000,250.0,5,E10RD,484,test
624.5729923248291,3,4,0,5,1,2,E+,1,3,0,0,1000,250.0,3,E10RD,485,test
576.5500068664551,3,4,0,5,1,2,E+,1,0,2,0,1000,250.0,0,E10RD,486,test
640.4612064361572,3,4,0,5,1,2,E+,1,1,4,0,1000,250.0,1,E10RD,487,test
752.4919509887695,3,4,0,5,1,2,E+,1,4,1,0,1000,250.0,4,E10RD,488,test
576.6057968139648,3,4,0,5,1,2,E+,1,3,0,0,1000,250.0,3,E10RD,489,test
656.0850143432617,3,4,0,5,1,2,E+,1,4,1,0,1000,250.0,4,E10RD,490,test
560.56809425354,3,4,0,5,1,2,E+,0,1,4,0,1000,250.0,0,E10RD,491,test
560.5230331420898,3,4,0,5,1,2,E+,1,4,1,0,1000,250.0,4,E10RD,492,test
560.5530738830566,3,4,0,5,1,2,E+,1,4,1,0,1000,250.0,4,E10RD,493,test
768.5799598693848,3,4,0,5,1,2,E+,1,2,5,0,1000,250.0,2,E10RD,494,test
464.66708183288574,3,4,0,5,1,2,E+,1,3,0,0,1000,250.0,3,E10RD,495,test
561.0129833221436,3,4,0,5,1,2,E+,1,4,1,0,1000,250.0,4,E10RD,496,test
608.5858345031738,3,4,0,5,1,2,E+,1,0,2,0,1000,250.0,0,E10RD,497,test
465.09814262390137,3,4,0,5,1,2,E+,1,1,4,0,1000,250.0,1,E10RD,498,test
657.1190357208252,3,4,0,5,1,2,E+,0,3,0,0,1000,250.0,1,E10RD,499,test
