RT,SRmap_0,SRmap_1,SRmap_2,SRmap_3,SRmap_4,SRmap_5,condition,correct,correct_response,curstim,ms-precue,ms-prestimblank,ntrials,response,subject,trial,type
6208.629131317139,2,0,5,4,1,3,M,0,3,5,0,1000,250.0,2,D32KT,0,train
1024.9881744384766,2,0,5,4,1,3,M,1,2,0,0,1000,250.0,2,D32KT,1,train
704.9949169158936,2,0,5,4,1,3,M,0,5,2,0,1000,250.0,4,D32KT,2,train
1153.0499458312988,2,0,5,4,1,3,M,0,5,2,0,1000,250.0,3,D32KT,3,train
737.0638847351074,2,0,5,4,1,3,M,1,1,4,0,1000,250.0,1,D32KT,4,train
1009.084939956665,2,0,5,4,1,3,M,1,2,0,0,1000,250.0,2,D32KT,5,train
529.1221141815186,2,0,5,4,1,3,M,1,1,4,0,1000,250.0,1,D32KT,6,train
561.2850189208984,2,0,5,4,1,3,M,0,3,5,0,1000,250.0,4,D32KT,7,train
513.110876083374,2,0,5,4,1,3,M,1,3,5,0,1000,250.0,3,D32KT,8,train
641.1001682281494,2,0,5,4,1,3,M,1,4,3,0,1000,250.0,4,D32KT,9,train
529.0431976318359,2,0,5,4,1,3,M,1,2,0,0,1000,250.0,2,D32KT,10,train
529.0617942810059,2,0,5,4,1,3,M,1,5,2,0,1000,250.0,5,D32KT,11,train
465.0859832763672,2,0,5,4,1,3,M,1,1,4,0,1000,250.0,1,D32KT,12,train
385.0431442260742,2,0,5,4,1,3,M,1,0,1,0,1000,250.0,0,D32KT,13,train
321.2409019470215,2,0,5,4,1,3,M,0,0,1,0,1000,250.0,1,D32KT,14,train
449.0368366241455,2,0,5,4,1,3,M,1,0,1,0,1000,250.0,0,D32KT,15,train
497.1301555633545,2,0,5,4,1,3,M,1,2,0,0,1000,250.0,2,D32KT,16,train
1137.3569965362549,2,0,5,4,1,3,M,1,4,3,0,1000,250.0,4,D32KT,17,train
433.1080913543701,2,0,5,4,1,3,M,1,0,1,0,1000,250.0,0,D32KT,18,train
529.2069911956787,2,0,5,4,1,3,M,0,2,0,0,1000,250.0,1,D32KT,19,train
1009.1879367828369,2,0,5,4,1,3,M,1,4,3,0,1000,250.0,4,D32KT,20,train
784.9760055541992,2,0,5,4,1,3,M,0,3,5,0,1000,250.0,2,D32KT,21,train
497.07698822021484,2,0,5,4,1,3,M,1,0,1,0,1000,250.0,0,D32KT,22,train
608.8290214538574,2,0,5,4,1,3,M,1,5,2,0,1000,250.0,5,D32KT,23,train
784.8749160766602,2,0,5,4,1,3,M,1,4,3,0,1000,250.0,4,D32KT,24,train
544.7931289672852,2,0,5,4,1,3,M,1,5,2,0,1000,250.0,5,D32KT,25,train
432.819128036499,2,0,5,4,1,3,M,1,0,1,0,1000,250.0,0,D32KT,26,train
800.5709648132324,2,0,5,4,1,3,M,0,3,5,0,1000,250.0,4,D32KT,27,train
400.6478786468506,2,0,5,4,1,3,M,1,2,0,0,1000,250.0,2,D32KT,28,train
528.7590026855469,2,0,5,4,1,3,M,1,1,4,0,1000,250.0,1,D32KT,29,train
656.8701267242432,2,0,5,4,1,3,M,1,4,3,0,1000,250.0,4,D32KT,30,train
608.8590621948242,2,0,5,4,1,3,M,1,5,2,0,1000,250.0,5,D32KT,31,train
576.930046081543,2,0,5,4,1,3,M,1,2,0,0,1000,250.0,2,D32KT,32,train
624.6130466461182,2,0,5,4,1,3,M,1,3,5,0,1000,250.0,3,D32KT,33,train
496.91009521484375,2,0,5,4,1,3,M,1,0,1,0,1000,250.0,0,D32KT,34,train
432.7380657196045,2,0,5,4,1,3,M,1,0,1,0,1000,250.0,0,D32KT,35,train
416.8858528137207,2,0,5,4,1,3,M,1,0,1,0,1000,250.0,0,D32KT,36,train
561.0151290893555,2,0,5,4,1,3,M,1,5,2,0,1000,250.0,5,D32KT,37,train
528.9919376373291,2,0,5,4,1,3,M,1,1,4,0,1000,250.0,1,D32KT,38,train
432.8899383544922,2,0,5,4,1,3,M,1,0,1,0,1000,250.0,0,D32KT,39,train
640.8839225769043,2,0,5,4,1,3,M,1,3,5,0,1000,250.0,3,D32KT,40,train
544.9390411376953,2,0,5,4,1,3,M,1,5,2,0,1000,250.0,5,D32KT,41,train
480.8340072631836,2,0,5,4,1,3,M,1,5,2,0,1000,250.0,5,D32KT,42,train
560.2619647979736,2,0,5,4,1,3,M,1,4,3,0,1000,250.0,4,D32KT,43,train
384.8891258239746,2,0,5,4,1,3,M,1,0,1,0,1000,250.0,0,D32KT,44,train
496.89388275146484,2,0,5,4,1,3,M,1,5,2,0,1000,250.0,5,D32KT,45,train
512.8231048583984,2,0,5,4,1,3,M,1,2,0,0,1000,250.0,2,D32KT,46,train
512.8750801086426,2,0,5,4,1,3,M,0,3,5,0,1000,250.0,4,D32KT,47,train
576.8930912017822,2,0,5,4,1,3,M,1,2,0,0,1000,250.0,2,D32KT,48,train
464.918851852417,2,0,5,4,1,3,M,1,2,0,0,1000,250.0,2,D32KT,49,train
432.81102180480957,2,0,5,4,1,3,M,1,3,5,0,1000,250.0,3,D32KT,50,train
416.90683364868164,2,0,5,4,1,3,M,1,4,3,0,1000,250.0,4,D32KT,51,train
432.85512924194336,2,0,5,4,1,3,M,1,2,0,0,1000,250.0,2,D32KT,52,train
433.00414085388184,2,0,5,4,1,3,M,1,2,0,0,1000,250.0,2,D32KT,53,train
864.9680614471436,2,0,5,4,1,3,M,1,4,3,0,1000,250.0,4,D32KT,54,train
577.0039558410645,2,0,5,4,1,3,M,1,1,4,0,1000,250.0,1,D32KT,55,train
448.8189220428467,2,0,5,4,1,3,M,1,0,1,0,1000,250.0,0,D32KT,56,train
432.94811248779297,2,0,5,4,1,3,M,1,0,1,0,1000,250.0,0,D32KT,57,train
448.8179683685303,2,0,5,4,1,3,M,1,1,4,0,1000,250.0,1,D32KT,58,train
656.8500995635986,2,0,5,4,1,3,M,1,4,3,0,1000,250.0,4,D32KT,59,train
657.027006149292,2,0,5,4,1,3,M,1,5,2,0,1000,250.0,5,D32KT,60,train
368.93582344055176,2,0,5,4,1,3,M,1,0,1,0,1000,250.0,0,D32KT,61,train
400.9671211242676,2,0,5,4,1,3,M,1,0,1,0,1000,250.0,0,D32KT,62,train
497.0121383666992,2,0,5,4,1,3,M,1,1,4,0,1000,250.0,1,D32KT,63,train
480.8220863342285,2,0,5,4,1,3,M,1,5,2,0,1000,250.0,5,D32KT,64,train
608.5720062255859,2,0,5,4,1,3,M,1,4,3,0,1000,250.0,4,D32KT,65,train
417.08898544311523,2,0,5,4,1,3,M,1,0,1,0,1000,250.0,0,D32KT,66,train
480.93485832214355,2,0,5,4,1,3,M,1,2,0,0,1000,250.0,2,D32KT,67,train
400.9289741516113,2,0,5,4,1,3,M,1,1,4,0,1000,250.0,1,D32KT,68,train
656.9068431854248,2,0,5,4,1,3,M,1,4,3,0,1000,250.0,4,D32KT,69,train
544.9020862579346,2,0,5,4,1,3,M,1,2,0,0,1000,250.0,2,D32KT,70,train
464.92505073547363,2,0,5,4,1,3,M,1,2,0,0,1000,250.0,2,D32KT,71,train
512.8591060638428,2,0,5,4,1,3,M,1,3,5,0,1000,250.0,3,D32KT,72,train
464.738130569458,2,0,5,4,1,3,M,1,0,1,0,1000,250.0,0,D32KT,73,train
400.88701248168945,2,0,5,4,1,3,M,1,2,0,0,1000,250.0,2,D32KT,74,train
432.9240322113037,2,0,5,4,1,3,M,1,1,4,0,1000,250.0,1,D32KT,75,train
384.97090339660645,2,0,5,4,1,3,M,1,2,0,0,1000,250.0,2,D32KT,76,train
384.915828704834,2,0,5,4,1,3,M,1,0,1,0,1000,250.0,0,D32KT,77,train
400.7539749145508,2,0,5,4,1,3,M,1,0,1,0,1000,250.0,0,D32KT,78,train
544.7590351104736,2,0,5,4,1,3,M,0,4,3,0,1000,250.0,5,D32KT,79,train
544.9569225311279,2,0,5,4,1,3,M,1,4,3,0,1000,250.0,4,D32KT,80,train
448.850154876709,2,0,5,4,1,3,M,1,4,3,0,1000,250.0,4,D32KT,81,train
480.72290420532227,2,0,5,4,1,3,M,1,4,3,0,1000,250.0,4,D32KT,82,train
576.0481357574463,2,0,5,4,1,3,M,1,3,5,0,1000,250.0,3,D32KT,83,train
512.0038986206055,2,0,5,4,1,3,M,1,2,0,0,1000,250.0,2,D32KT,84,train
448.3659267425537,2,0,5,4,1,3,M,1,3,5,0,1000,250.0,3,D32KT,85,train
432.9640865325928,2,0,5,4,1,3,M,1,4,3,0,1000,250.0,4,D32KT,86,train
480.62992095947266,2,0,5,4,1,3,M,1,4,3,0,1000,250.0,4,D32KT,87,train
432.905912399292,2,0,5,4,1,3,M,1,0,1,0,1000,250.0,0,D32KT,88,train
704.8859596252441,2,0,5,4,1,3,M,1,2,0,0,1000,250.0,2,D32KT,89,train
592.7910804748535,2,0,5,4,1,3,M,1,4,3,0,1000,250.0,4,D32KT,90,train
640.7070159912109,2,0,5,4,1,3,M,0,3,5,0,1000,250.0,2,D32KT,91,train
432.91306495666504,2,0,5,4,1,3,M,1,0,1,0,1000,250.0,0,D32KT,92,train
384.9790096282959,2,0,5,4,1,3,M,1,0,1,0,1000,250.0,0,D32KT,93,train
656.9640636444092,2,0,5,4,1,3,M,1,5,2,0,1000,250.0,5,D32KT,94,train
384.9189281463623,2,0,5,4,1,3,M,1,0,1,0,1000,250.0,0,D32KT,95,train
512.7449035644531,2,0,5,4,1,3,M,1,2,0,0,1000,250.0,2,D32KT,96,train
544.9678897857666,2,0,5,4,1,3,M,1,5,2,0,1000,250.0,5,D32KT,97,train
720.7469940185547,2,0,5,4,1,3,M,1,3,5,0,1000,250.0,3,D32KT,98,train
496.83403968811035,2,0,5,4,1,3,M,1,3,5,0,1000,250.0,3,D32KT,99,train
512.9070281982422,2,0,5,4,1,3,M,1,5,2,0,1000,250.0,5,D32KT,100,train
560.7500076293945,2,0,5,4,1,3,M,0,3,5,0,1000,250.0,4,D32KT,101,train
560.9738826751709,2,0,5,4,1,3,M,1,4,3,0,1000,250.0,4,D32KT,102,train
592.8308963775635,2,0,5,4,1,3,M,1,5,2,0,1000,250.0,5,D32KT,103,train
576.94411277771,2,0,5,4,1,3,M,1,4,3,0,1000,250.0,4,D32KT,104,train
560.791015625,2,0,5,4,1,3,M,1,2,0,0,1000,250.0,2,D32KT,105,train
448.78697395324707,2,0,5,4,1,3,M,1,0,1,0,1000,250.0,0,D32KT,106,train
945.0690746307373,2,0,5,4,1,3,M,1,4,3,0,1000,250.0,4,D32KT,107,train
496.97089195251465,2,0,5,4,1,3,M,1,1,4,0,1000,250.0,1,D32KT,108,train
736.9589805603027,2,0,5,4,1,3,M,1,3,5,0,1000,250.0,3,D32KT,109,train
528.9590358734131,2,0,5,4,1,3,M,1,4,3,0,1000,250.0,4,D32KT,110,train
496.9298839569092,2,0,5,4,1,3,M,1,2,0,0,1000,250.0,2,D32KT,111,train
432.91401863098145,2,0,5,4,1,3,M,1,0,1,0,1000,250.0,0,D32KT,112,train
432.8310489654541,2,0,5,4,1,3,M,1,0,1,0,1000,250.0,0,D32KT,113,train
432.90209770202637,2,0,5,4,1,3,M,1,0,1,0,1000,250.0,0,D32KT,114,train
512.9711627960205,2,0,5,4,1,3,M,1,2,0,0,1000,250.0,2,D32KT,115,train
529.0241241455078,2,0,5,4,1,3,M,1,5,2,0,1000,250.0,5,D32KT,116,train
400.911808013916,2,0,5,4,1,3,M,1,4,3,0,1000,250.0,4,D32KT,117,train
352.94198989868164,2,0,5,4,1,3,M,1,0,1,0,1000,250.0,0,D32KT,118,train
608.9129447937012,2,0,5,4,1,3,M,1,4,3,0,1000,250.0,4,D32KT,119,train
560.7619285583496,2,0,5,4,1,3,M,1,5,2,0,1000,250.0,5,D32KT,120,train
449.08690452575684,2,0,5,4,1,3,M,1,5,2,0,1000,250.0,5,D32KT,121,train
401.21006965637207,2,0,5,4,1,3,M,1,2,0,0,1000,250.0,2,D32KT,122,train
449.27215576171875,2,0,5,4,1,3,M,1,1,4,0,1000,250.0,1,D32KT,123,train
529.2510986328125,2,0,5,4,1,3,M,0,3,5,0,1000,250.0,4,D32KT,124,train
625.2539157867432,2,0,5,4,1,3,M,1,4,3,0,1000,250.0,4,D32KT,125,train
609.3389987945557,2,0,5,4,1,3,M,1,1,4,0,1000,250.0,1,D32KT,126,train
785.2878570556641,2,0,5,4,1,3,M,1,5,2,0,1000,250.0,5,D32KT,127,train
497.1041679382324,2,0,5,4,1,3,M,1,4,3,0,1000,250.0,4,D32KT,128,train
577.2860050201416,2,0,5,4,1,3,M,1,5,2,0,1000,250.0,5,D32KT,129,train
513.0510330200195,2,0,5,4,1,3,M,1,4,3,0,1000,250.0,4,D32KT,130,train
417.12284088134766,2,0,5,4,1,3,M,1,2,0,0,1000,250.0,2,D32KT,131,train
641.2310600280762,2,0,5,4,1,3,M,1,3,5,0,1000,250.0,3,D32KT,132,train
433.1529140472412,2,0,5,4,1,3,M,1,3,5,0,1000,250.0,3,D32KT,133,train
433.1681728363037,2,0,5,4,1,3,M,1,0,1,0,1000,250.0,0,D32KT,134,train
593.0111408233643,2,0,5,4,1,3,M,1,3,5,0,1000,250.0,3,D32KT,135,train
497.1749782562256,2,0,5,4,1,3,M,1,4,3,0,1000,250.0,4,D32KT,136,train
465.34204483032227,2,0,5,4,1,3,M,1,5,2,0,1000,250.0,5,D32KT,137,train
449.0628242492676,2,0,5,4,1,3,M,1,0,1,0,1000,250.0,0,D32KT,138,train
609.2610359191895,2,0,5,4,1,3,M,1,5,2,0,1000,250.0,5,D32KT,139,train
433.24804306030273,2,0,5,4,1,3,M,1,1,4,0,1000,250.0,1,D32KT,140,train
529.2689800262451,2,0,5,4,1,3,M,1,3,5,0,1000,250.0,3,D32KT,141,train
641.2889957427979,2,0,5,4,1,3,M,1,2,0,0,1000,250.0,2,D32KT,142,train
465.1751518249512,2,0,5,4,1,3,M,1,3,5,0,1000,250.0,3,D32KT,143,train
481.2741279602051,2,0,5,4,1,3,M,1,5,2,0,1000,250.0,5,D32KT,144,train
353.2679080963135,2,0,5,4,1,3,M,1,4,3,0,1000,250.0,4,D32KT,145,train
641.3300037384033,2,0,5,4,1,3,M,1,4,3,0,1000,250.0,4,D32KT,146,train
481.3039302825928,2,0,5,4,1,3,M,1,2,0,0,1000,250.0,2,D32KT,147,train
417.2070026397705,2,0,5,4,1,3,M,0,1,4,0,1000,250.0,0,D32KT,148,train
673.1750965118408,2,0,5,4,1,3,M,1,3,5,0,1000,250.0,3,D32KT,149,train
432.80506134033203,2,0,5,4,1,3,M,1,2,0,0,1000,250.0,2,D32KT,150,train
464.74504470825195,2,0,5,4,1,3,M,1,1,4,0,1000,250.0,1,D32KT,151,train
592.9489135742188,2,0,5,4,1,3,M,1,5,2,0,1000,250.0,5,D32KT,152,train
528.9618968963623,2,0,5,4,1,3,M,0,3,5,0,1000,250.0,2,D32KT,153,train
544.8939800262451,2,0,5,4,1,3,M,1,1,4,0,1000,250.0,1,D32KT,154,train
464.8151397705078,2,0,5,4,1,3,M,1,2,0,0,1000,250.0,2,D32KT,155,train
544.8460578918457,2,0,5,4,1,3,M,1,1,4,0,1000,250.0,1,D32KT,156,train
672.5971698760986,2,0,5,4,1,3,M,1,4,3,0,1000,250.0,4,D32KT,157,train
529.0999412536621,2,0,5,4,1,3,M,1,4,3,0,1000,250.0,4,D32KT,158,train
433.06899070739746,2,0,5,4,1,3,M,1,4,3,0,1000,250.0,4,D32KT,159,train
417.0489311218262,2,0,5,4,1,3,M,1,4,3,0,1000,250.0,4,D32KT,160,train
481.27007484436035,2,0,5,4,1,3,M,1,5,2,0,1000,250.0,5,D32KT,161,train
529.1671752929688,2,0,5,4,1,3,M,1,0,1,0,1000,250.0,0,D32KT,162,train
784.9860191345215,2,0,5,4,1,3,M,1,3,5,0,1000,250.0,3,D32KT,163,train
433.06422233581543,2,0,5,4,1,3,M,1,0,1,0,1000,250.0,0,D32KT,164,train
448.8990306854248,2,0,5,4,1,3,M,0,2,0,0,1000,250.0,1,D32KT,165,train
448.822021484375,2,0,5,4,1,3,M,1,0,1,0,1000,250.0,0,D32KT,166,train
560.9869956970215,2,0,5,4,1,3,M,1,5,2,0,1000,250.0,5,D32KT,167,train
544.8789596557617,2,0,5,4,1,3,M,1,1,4,0,1000,250.0,1,D32KT,168,train
496.95801734924316,2,0,5,4,1,3,M,1,5,2,0,1000,250.0,5,D32KT,169,train
400.9358882904053,2,0,5,4,1,3,M,1,2,0,0,1000,250.0,2,D32KT,170,train
481.0359477996826,2,0,5,4,1,3,M,1,5,2,0,1000,250.0,5,D32KT,171,train
433.05206298828125,2,0,5,4,1,3,M,1,5,2,0,1000,250.0,5,D32KT,172,train
544.9178218841553,2,0,5,4,1,3,M,1,4,3,0,1000,250.0,4,D32KT,173,train
448.9130973815918,2,0,5,4,1,3,M,0,1,4,0,1000,250.0,2,D32KT,174,train
544.8651313781738,2,0,5,4,1,3,M,1,2,0,0,1000,250.0,2,D32KT,175,train
1184.9100589752197,2,0,5,4,1,3,M,1,4,3,0,1000,250.0,4,D32KT,176,train
512.8428936004639,2,0,5,4,1,3,M,1,3,5,0,1000,250.0,3,D32KT,177,train
704.9298286437988,2,0,5,4,1,3,M,1,4,3,0,1000,250.0,4,D32KT,178,train
480.8480739593506,2,0,5,4,1,3,M,1,0,1,0,1000,250.0,0,D32KT,179,train
480.9000492095947,2,0,5,4,1,3,M,1,0,1,0,1000,250.0,0,D32KT,180,train
448.76813888549805,2,0,5,4,1,3,M,1,1,4,0,1000,250.0,1,D32KT,181,train
352.7510166168213,2,0,5,4,1,3,M,1,2,0,0,1000,250.0,2,D32KT,182,train
480.8919429779053,2,0,5,4,1,3,M,1,1,4,0,1000,250.0,1,D32KT,183,train
481.02807998657227,2,0,5,4,1,3,M,1,1,4,0,1000,250.0,1,D32KT,184,train
384.9968910217285,2,0,5,4,1,3,M,1,1,4,0,1000,250.0,1,D32KT,185,train
544.9929237365723,2,0,5,4,1,3,M,1,4,3,0,1000,250.0,4,D32KT,186,train
449.09000396728516,2,0,5,4,1,3,M,1,4,3,0,1000,250.0,4,D32KT,187,train
448.976993560791,2,0,5,4,1,3,M,0,3,5,0,1000,250.0,4,D32KT,188,train
512.9508972167969,2,0,5,4,1,3,M,1,4,3,0,1000,250.0,4,D32KT,189,train
464.7700786590576,2,0,5,4,1,3,M,1,4,3,0,1000,250.0,4,D32KT,190,train
432.7859878540039,2,0,5,4,1,3,M,1,4,3,0,1000,250.0,4,D32KT,191,train
576.8008232116699,2,0,5,4,1,3,M,1,2,0,0,1000,250.0,2,D32KT,192,train
576.7769813537598,2,0,5,4,1,3,M,1,3,5,0,1000,250.0,3,D32KT,193,train
433.05301666259766,2,0,5,4,1,3,M,0,3,5,0,1000,250.0,2,D32KT,194,train
544.9888706207275,2,0,5,4,1,3,M,1,1,4,0,1000,250.0,1,D32KT,195,train
512.7789974212646,2,0,5,4,1,3,M,1,1,4,0,1000,250.0,1,D32KT,196,train
608.9949607849121,2,0,5,4,1,3,M,1,3,5,0,1000,250.0,3,D32KT,197,train
464.7951126098633,2,0,5,4,1,3,M,1,0,1,0,1000,250.0,0,D32KT,198,train
704.9510478973389,2,0,5,4,1,3,M,1,4,3,0,1000,250.0,4,D32KT,199,train
528.9759635925293,2,0,5,4,1,3,M,1,3,5,0,1000,250.0,3,D32KT,200,train
417.0677661895752,2,0,5,4,1,3,M,1,0,1,0,1000,250.0,0,D32KT,201,train
561.0020160675049,2,0,5,4,1,3,M,1,2,0,0,1000,250.0,2,D32KT,202,train
608.9560985565186,2,0,5,4,1,3,M,1,3,5,0,1000,250.0,3,D32KT,203,train
512.9458904266357,2,0,5,4,1,3,M,0,2,0,0,1000,250.0,1,D32KT,204,train
432.8148365020752,2,0,5,4,1,3,M,1,1,4,0,1000,250.0,1,D32KT,205,train
448.9109516143799,2,0,5,4,1,3,M,1,1,4,0,1000,250.0,1,D32KT,206,train
640.7690048217773,2,0,5,4,1,3,M,1,3,5,0,1000,250.0,3,D32KT,207,train
528.7661552429199,2,0,5,4,1,3,M,1,4,3,0,1000,250.0,4,D32KT,208,train
480.8650016784668,2,0,5,4,1,3,M,1,1,4,0,1000,250.0,1,D32KT,209,train
480.9379577636719,2,0,5,4,1,3,M,1,3,5,0,1000,250.0,3,D32KT,210,train
576.9340991973877,2,0,5,4,1,3,M,1,5,2,0,1000,250.0,5,D32KT,211,train
449.01514053344727,2,0,5,4,1,3,M,1,0,1,0,1000,250.0,0,D32KT,212,train
384.9599361419678,2,0,5,4,1,3,M,1,1,4,0,1000,250.0,1,D32KT,213,train
768.8651084899902,2,0,5,4,1,3,M,1,3,5,0,1000,250.0,3,D32KT,214,train
448.9760398864746,2,0,5,4,1,3,M,1,0,1,0,1000,250.0,0,D32KT,215,train
640.812873840332,2,0,5,4,1,3,M,1,3,5,0,1000,250.0,3,D32KT,216,train
496.8690872192383,2,0,5,4,1,3,M,1,1,4,0,1000,250.0,1,D32KT,217,train
704.9670219421387,2,0,5,4,1,3,M,1,4,3,0,1000,250.0,4,D32KT,218,train
624.8929500579834,2,0,5,4,1,3,M,1,2,0,0,1000,250.0,2,D32KT,219,train
432.6510429382324,2,0,5,4,1,3,M,1,0,1,0,1000,250.0,0,D32KT,220,train
480.863094329834,2,0,5,4,1,3,M,1,5,2,0,1000,250.0,5,D32KT,221,train
528.9490222930908,2,0,5,4,1,3,M,1,3,5,0,1000,250.0,3,D32KT,222,train
481.1100959777832,2,0,5,4,1,3,M,1,3,5,0,1000,250.0,3,D32KT,223,train
432.4009418487549,2,0,5,4,1,3,M,1,0,1,0,1000,250.0,0,D32KT,224,train
496.7691898345947,2,0,5,4,1,3,M,1,2,0,0,1000,250.0,2,D32KT,225,train
528.864860534668,2,0,5,4,1,3,M,1,3,5,0,1000,250.0,3,D32KT,226,train
512.908935546875,2,0,5,4,1,3,M,1,2,0,0,1000,250.0,2,D32KT,227,train
576.7679214477539,2,0,5,4,1,3,M,1,5,2,0,1000,250.0,5,D32KT,228,train
752.9699802398682,2,0,5,4,1,3,M,0,4,3,0,1000,250.0,3,D32KT,229,train
544.929027557373,2,0,5,4,1,3,M,1,5,2,0,1000,250.0,5,D32KT,230,train
480.96609115600586,2,0,5,4,1,3,M,1,4,3,0,1000,250.0,4,D32KT,231,train
465.01684188842773,2,0,5,4,1,3,M,1,2,0,0,1000,250.0,2,D32KT,232,train
544.9450016021729,2,0,5,4,1,3,M,1,3,5,0,1000,250.0,3,D32KT,233,train
449.016809463501,2,0,5,4,1,3,M,1,3,5,0,1000,250.0,3,D32KT,234,train
400.9358882904053,2,0,5,4,1,3,M,0,1,4,0,1000,250.0,2,D32KT,235,train
416.71204566955566,2,0,5,4,1,3,M,1,1,4,0,1000,250.0,1,D32KT,236,train
385.03408432006836,2,0,5,4,1,3,M,1,0,1,0,1000,250.0,0,D32KT,237,train
576.7450332641602,2,0,5,4,1,3,M,1,3,5,0,1000,250.0,3,D32KT,238,train
528.8410186767578,2,0,5,4,1,3,M,1,3,5,0,1000,250.0,3,D32KT,239,train
384.95683670043945,2,0,5,4,1,3,M,1,3,5,0,1000,250.0,3,D32KT,240,train
400.88391304016113,2,0,5,4,1,3,M,1,3,5,0,1000,250.0,3,D32KT,241,train
544.9790954589844,2,0,5,4,1,3,M,1,4,3,0,1000,250.0,4,D32KT,242,train
432.8949451446533,2,0,5,4,1,3,M,1,0,1,0,1000,250.0,0,D32KT,243,train
416.7978763580322,2,0,5,4,1,3,M,1,2,0,0,1000,250.0,2,D32KT,244,train
496.8729019165039,2,0,5,4,1,3,M,1,5,2,0,1000,250.0,5,D32KT,245,train
368.94989013671875,2,0,5,4,1,3,M,1,4,3,0,1000,250.0,4,D32KT,246,train
480.90600967407227,2,0,5,4,1,3,M,1,1,4,0,1000,250.0,1,D32KT,247,train
752.8669834136963,2,0,5,4,1,3,M,1,4,3,0,1000,250.0,4,D32KT,248,train
512.7642154693604,2,0,5,4,1,3,M,1,5,2,0,1000,250.0,5,D32KT,249,train
5520.663022994995,2,0,5,4,1,3,M,1,5,2,0,1000,250.0,5,D32KT,250,test
1120.823860168457,2,0,5,4,1,3,M,1,5,2,0,1000,250.0,5,D32KT,251,test
944.7898864746094,2,0,5,4,1,3,M,1,0,1,0,1000,250.0,0,D32KT,252,test
1376.48606300354,2,0,5,4,1,3,M,1,3,5,0,1000,250.0,3,D32KT,253,test
704.8640251159668,2,0,5,4,1,3,M,1,3,5,0,1000,250.0,3,D32KT,254,test
736.8659973144531,2,0,5,4,1,3,M,1,5,2,0,1000,250.0,5,D32KT,255,test
864.8998737335205,2,0,5,4,1,3,M,1,3,5,0,1000,250.0,3,D32KT,256,test
720.7009792327881,2,0,5,4,1,3,M,1,1,4,0,1000,250.0,1,D32KT,257,test
576.8599510192871,2,0,5,4,1,3,M,0,3,5,0,1000,250.0,4,D32KT,258,test
624.8650550842285,2,0,5,4,1,3,M,1,0,1,0,1000,250.0,0,D32KT,259,test
784.7731113433838,2,0,5,4,1,3,M,1,4,3,0,1000,250.0,4,D32KT,260,test
640.7589912414551,2,0,5,4,1,3,M,0,3,5,0,1000,250.0,4,D32KT,261,test
800.9870052337646,2,0,5,4,1,3,M,1,4,3,0,1000,250.0,4,D32KT,262,test
928.7950992584229,2,0,5,4,1,3,M,0,1,4,0,1000,250.0,2,D32KT,263,test
624.9728202819824,2,0,5,4,1,3,M,1,0,1,0,1000,250.0,0,D32KT,264,test
688.9450550079346,2,0,5,4,1,3,M,1,4,3,0,1000,250.0,4,D32KT,265,test
624.7348785400391,2,0,5,4,1,3,M,1,5,2,0,1000,250.0,5,D32KT,266,test
752.8629302978516,2,0,5,4,1,3,M,1,4,3,0,1000,250.0,4,D32KT,267,test
448.70901107788086,2,0,5,4,1,3,M,1,4,3,0,1000,250.0,4,D32KT,268,test
608.8049411773682,2,0,5,4,1,3,M,1,1,4,0,1000,250.0,1,D32KT,269,test
576.9269466400146,2,0,5,4,1,3,M,1,4,3,0,1000,250.0,4,D32KT,270,test
672.8818416595459,2,0,5,4,1,3,M,1,0,1,0,1000,250.0,0,D32KT,271,test
560.6799125671387,2,0,5,4,1,3,M,1,0,1,0,1000,250.0,0,D32KT,272,test
784.8820686340332,2,0,5,4,1,3,M,0,3,5,0,1000,250.0,4,D32KT,273,test
544.7938442230225,2,0,5,4,1,3,M,1,0,1,0,1000,250.0,0,D32KT,274,test
528.9249420166016,2,0,5,4,1,3,M,1,5,2,0,1000,250.0,5,D32KT,275,test
592.9038524627686,2,0,5,4,1,3,M,1,3,5,0,1000,250.0,3,D32KT,276,test
464.88499641418457,2,0,5,4,1,3,M,1,2,0,0,1000,250.0,2,D32KT,277,test
528.9180278778076,2,0,5,4,1,3,M,1,0,1,0,1000,250.0,0,D32KT,278,test
544.8629856109619,2,0,5,4,1,3,M,1,1,4,0,1000,250.0,1,D32KT,279,test
464.8010730743408,2,0,5,4,1,3,M,0,4,3,0,1000,250.0,5,D32KT,280,test
576.5810012817383,2,0,5,4,1,3,M,1,4,3,0,1000,250.0,4,D32KT,281,test
512.8729343414307,2,0,5,4,1,3,M,1,0,1,0,1000,250.0,0,D32KT,282,test
576.9650936126709,2,0,5,4,1,3,M,1,1,4,0,1000,250.0,1,D32KT,283,test
560.8808994293213,2,0,5,4,1,3,M,1,1,4,0,1000,250.0,1,D32KT,284,test
400.8669853210449,2,0,5,4,1,3,M,1,1,4,0,1000,250.0,1,D32KT,285,test
480.97991943359375,2,0,5,4,1,3,M,1,1,4,0,1000,250.0,1,D32KT,286,test
640.8798694610596,2,0,5,4,1,3,M,1,4,3,0,1000,250.0,4,D32KT,287,test
384.86313819885254,2,0,5,4,1,3,M,1,4,3,0,1000,250.0,4,D32KT,288,test
736.7079257965088,2,0,5,4,1,3,M,1,2,0,0,1000,250.0,2,D32KT,289,test
592.7250385284424,2,0,5,4,1,3,M,1,4,3,0,1000,250.0,4,D32KT,290,test
528.8519859313965,2,0,5,4,1,3,M,1,0,1,0,1000,250.0,0,D32KT,291,test
592.8869247436523,2,0,5,4,1,3,M,1,1,4,0,1000,250.0,1,D32KT,292,test
592.8800106048584,2,0,5,4,1,3,M,1,5,2,0,1000,250.0,5,D32KT,293,test
576.909065246582,2,0,5,4,1,3,M,1,1,4,0,1000,250.0,1,D32KT,294,test
560.9309673309326,2,0,5,4,1,3,M,1,3,5,0,1000,250.0,3,D32KT,295,test
576.8771171569824,2,0,5,4,1,3,M,1,5,2,0,1000,250.0,5,D32KT,296,test
592.9808616638184,2,0,5,4,1,3,M,1,4,3,0,1000,250.0,4,D32KT,297,test
576.7560005187988,2,0,5,4,1,3,M,1,0,1,0,1000,250.0,0,D32KT,298,test
464.68400955200195,2,0,5,4,1,3,M,1,0,1,0,1000,250.0,0,D32KT,299,test
560.8220100402832,2,0,5,4,1,3,M,1,5,2,0,1000,250.0,5,D32KT,300,test
528.9740562438965,2,0,5,4,1,3,M,1,4,3,0,1000,250.0,4,D32KT,301,test
512.8450393676758,2,0,5,4,1,3,M,0,0,1,0,1000,250.0,1,D32KT,302,test
560.8630180358887,2,0,5,4,1,3,M,1,5,2,0,1000,250.0,5,D32KT,303,test
1184.9009990692139,2,0,5,4,1,3,M,1,2,0,0,1000,250.0,2,D32KT,304,test
544.853925704956,2,0,5,4,1,3,M,1,0,1,0,1000,250.0,0,D32KT,305,test
624.6471405029297,2,0,5,4,1,3,M,1,4,3,0,1000,250.0,4,D32KT,306,test
624.8691082000732,2,0,5,4,1,3,M,1,1,4,0,1000,250.0,1,D32KT,307,test
576.8458843231201,2,0,5,4,1,3,M,1,0,1,0,1000,250.0,0,D32KT,308,test
496.9370365142822,2,0,5,4,1,3,M,1,1,4,0,1000,250.0,1,D32KT,309,test
544.9059009552002,2,0,5,4,1,3,M,1,4,3,0,1000,250.0,4,D32KT,310,test
624.885082244873,2,0,5,4,1,3,M,1,2,0,0,1000,250.0,2,D32KT,311,test
496.92296981811523,2,0,5,4,1,3,M,1,2,0,0,1000,250.0,2,D32KT,312,test
592.8349494934082,2,0,5,4,1,3,M,1,1,4,0,1000,250.0,1,D32KT,313,test
432.79004096984863,2,0,5,4,1,3,M,1,0,1,0,1000,250.0,0,D32KT,314,test
432.94286727905273,2,0,5,4,1,3,M,1,0,1,0,1000,250.0,0,D32KT,315,test
496.6871738433838,2,0,5,4,1,3,M,1,1,4,0,1000,250.0,1,D32KT,316,test
448.76813888549805,2,0,5,4,1,3,M,1,4,3,0,1000,250.0,4,D32KT,317,test
528.8360118865967,2,0,5,4,1,3,M,1,0,1,0,1000,250.0,0,D32KT,318,test
849.0660190582275,2,0,5,4,1,3,M,1,2,0,0,1000,250.0,2,D32KT,319,test
592.7720069885254,2,0,5,4,1,3,M,1,4,3,0,1000,250.0,4,D32KT,320,test
624.9520778656006,2,0,5,4,1,3,M,1,3,5,0,1000,250.0,3,D32KT,321,test
608.9389324188232,2,0,5,4,1,3,M,1,2,0,0,1000,250.0,2,D32KT,322,test
432.9540729522705,2,0,5,4,1,3,M,0,1,4,0,1000,250.0,2,D32KT,323,test
416.8210029602051,2,0,5,4,1,3,M,0,3,5,0,1000,250.0,0,D32KT,324,test
640.9130096435547,2,0,5,4,1,3,M,1,1,4,0,1000,250.0,1,D32KT,325,test
608.6950302124023,2,0,5,4,1,3,M,1,4,3,0,1000,250.0,4,D32KT,326,test
544.9559688568115,2,0,5,4,1,3,M,1,4,3,0,1000,250.0,4,D32KT,327,test
528.9509296417236,2,0,5,4,1,3,M,0,2,0,0,1000,250.0,1,D32KT,328,test
640.5770778656006,2,0,5,4,1,3,M,1,1,4,0,1000,250.0,1,D32KT,329,test
480.96585273742676,2,0,5,4,1,3,M,1,1,4,0,1000,250.0,1,D32KT,330,test
544.9309349060059,2,0,5,4,1,3,M,1,0,1,0,1000,250.0,0,D32KT,331,test
816.8690204620361,2,0,5,4,1,3,M,0,2,0,0,1000,250.0,3,D32KT,332,test
592.8101539611816,2,0,5,4,1,3,M,1,0,1,0,1000,250.0,0,D32KT,333,test
768.8720226287842,2,0,5,4,1,3,M,1,3,5,0,1000,250.0,3,D32KT,334,test
608.7851524353027,2,0,5,4,1,3,M,1,2,0,0,1000,250.0,2,D32KT,335,test
592.9610729217529,2,0,5,4,1,3,M,1,3,5,0,1000,250.0,3,D32KT,336,test
657.0122241973877,2,0,5,4,1,3,M,1,5,2,0,1000,250.0,5,D32KT,337,test
640.9280300140381,2,0,5,4,1,3,M,1,2,0,0,1000,250.0,2,D32KT,338,test
544.9438095092773,2,0,5,4,1,3,M,1,4,3,0,1000,250.0,4,D32KT,339,test
608.9448928833008,2,0,5,4,1,3,M,1,4,3,0,1000,250.0,4,D32KT,340,test
544.9421405792236,2,0,5,4,1,3,M,1,5,2,0,1000,250.0,5,D32KT,341,test
624.9120235443115,2,0,5,4,1,3,M,1,1,4,0,1000,250.0,1,D32KT,342,test
496.8140125274658,2,0,5,4,1,3,M,1,5,2,0,1000,250.0,5,D32KT,343,test
896.8799114227295,2,0,5,4,1,3,M,1,2,0,0,1000,250.0,2,D32KT,344,test
592.8490161895752,2,0,5,4,1,3,M,1,0,1,0,1000,250.0,0,D32KT,345,test
816.8919086456299,2,0,5,4,1,3,M,1,3,5,0,1000,250.0,3,D32KT,346,test
561.2661838531494,2,0,5,4,1,3,M,1,0,1,0,1000,250.0,0,D32KT,347,test
721.1780548095703,2,0,5,4,1,3,M,1,2,0,0,1000,250.0,2,D32KT,348,test
496.89412117004395,2,0,5,4,1,3,M,1,0,1,0,1000,250.0,0,D32KT,349,test
560.9791278839111,2,0,5,4,1,3,M,1,4,3,0,1000,250.0,4,D32KT,350,test
576.8089294433594,2,0,5,4,1,3,M,1,2,0,0,1000,250.0,2,D32KT,351,test
544.8141098022461,2,0,5,4,1,3,M,1,1,4,0,1000,250.0,1,D32KT,352,test
512.861967086792,2,0,5,4,1,3,M,1,4,3,0,1000,250.0,4,D32KT,353,test
576.8799781799316,2,0,5,4,1,3,M,1,4,3,0,1000,250.0,4,D32KT,354,test
560.9478950500488,2,0,5,4,1,3,M,0,3,5,0,1000,250.0,4,D32KT,355,test
512.8939151763916,2,0,5,4,1,3,M,1,0,1,0,1000,250.0,0,D32KT,356,test
480.8690547943115,2,0,5,4,1,3,M,1,1,4,0,1000,250.0,1,D32KT,357,test
528.9499759674072,2,0,5,4,1,3,M,1,4,3,0,1000,250.0,4,D32KT,358,test
528.7320613861084,2,0,5,4,1,3,M,1,1,4,0,1000,250.0,1,D32KT,359,test
528.825044631958,2,0,5,4,1,3,M,1,0,1,0,1000,250.0,0,D32KT,360,test
912.9071235656738,2,0,5,4,1,3,M,1,3,5,0,1000,250.0,3,D32KT,361,test
529.059886932373,2,0,5,4,1,3,M,1,3,5,0,1000,250.0,3,D32KT,362,test
592.9470062255859,2,0,5,4,1,3,M,1,2,0,0,1000,250.0,2,D32KT,363,test
608.957052230835,2,0,5,4,1,3,M,1,4,3,0,1000,250.0,4,D32KT,364,test
512.692928314209,2,0,5,4,1,3,M,1,0,1,0,1000,250.0,0,D32KT,365,test
592.8330421447754,2,0,5,4,1,3,M,1,0,1,0,1000,250.0,0,D32KT,366,test
560.8320236206055,2,0,5,4,1,3,M,1,4,3,0,1000,250.0,4,D32KT,367,test
592.9019451141357,2,0,5,4,1,3,M,0,2,0,0,1000,250.0,1,D32KT,368,test
704.7510147094727,2,0,5,4,1,3,M,1,5,2,0,1000,250.0,5,D32KT,369,test
496.7610836029053,2,0,5,4,1,3,M,1,5,2,0,1000,250.0,5,D32KT,370,test
464.7338390350342,2,0,5,4,1,3,M,1,5,2,0,1000,250.0,5,D32KT,371,test
496.8559741973877,2,0,5,4,1,3,M,1,0,1,0,1000,250.0,0,D32KT,372,test
480.85594177246094,2,0,5,4,1,3,M,1,0,1,0,1000,250.0,0,D32KT,373,test
561.0129833221436,2,0,5,4,1,3,M,1,1,4,0,1000,250.0,1,D32KT,374,test
592.8950309753418,2,0,5,4,1,3,M,1,1,4,0,1000,250.0,1,D32KT,375,test
560.8868598937988,2,0,5,4,1,3,M,1,0,1,0,1000,250.0,0,D32KT,376,test
560.8949661254883,2,0,5,4,1,3,M,1,4,3,0,1000,250.0,4,D32KT,377,test
416.9011116027832,2,0,5,4,1,3,M,1,2,0,0,1000,250.0,2,D32KT,378,test
512.8219127655029,2,0,5,4,1,3,M,1,5,2,0,1000,250.0,5,D32KT,379,test
624.9239444732666,2,0,5,4,1,3,M,1,3,5,0,1000,250.0,3,D32KT,380,test
448.84490966796875,2,0,5,4,1,3,M,1,3,5,0,1000,250.0,3,D32KT,381,test
576.4620304107666,2,0,5,4,1,3,M,1,5,2,0,1000,250.0,5,D32KT,382,test
480.93605041503906,2,0,5,4,1,3,M,1,0,1,0,1000,250.0,0,D32KT,383,test
608.8879108428955,2,0,5,4,1,3,M,0,3,5,0,1000,250.0,4,D32KT,384,test
480.8349609375,2,0,5,4,1,3,M,1,4,3,0,1000,250.0,4,D32KT,385,test
496.7949390411377,2,0,5,4,1,3,M,1,0,1,0,1000,250.0,0,D32KT,386,test
544.8729991912842,2,0,5,4,1,3,M,1,1,4,0,1000,250.0,1,D32KT,387,test
528.857946395874,2,0,5,4,1,3,M,1,2,0,0,1000,250.0,2,D32KT,388,test
592.7739143371582,2,0,5,4,1,3,M,1,1,4,0,1000,250.0,1,D32KT,389,test
464.9381637573242,2,0,5,4,1,3,M,1,1,4,0,1000,250.0,1,D32KT,390,test
544.6798801422119,2,0,5,4,1,3,M,1,4,3,0,1000,250.0,4,D32KT,391,test
448.7171173095703,2,0,5,4,1,3,M,1,3,5,0,1000,250.0,3,D32KT,392,test
480.7729721069336,2,0,5,4,1,3,M,1,0,1,0,1000,250.0,0,D32KT,393,test
512.6287937164307,2,0,5,4,1,3,M,1,5,2,0,1000,250.0,5,D32KT,394,test
560.9509944915771,2,0,5,4,1,3,M,1,1,4,0,1000,250.0,1,D32KT,395,test
544.921875,2,0,5,4,1,3,M,1,3,5,0,1000,250.0,3,D32KT,396,test
480.5488586425781,2,0,5,4,1,3,M,1,0,1,0,1000,250.0,0,D32KT,397,test
512.9830837249756,2,0,5,4,1,3,M,1,5,2,0,1000,250.0,5,D32KT,398,test
480.9141159057617,2,0,5,4,1,3,M,1,0,1,0,1000,250.0,0,D32KT,399,test
624.669075012207,2,0,5,4,1,3,M,1,2,0,0,1000,250.0,2,D32KT,400,test
512.9799842834473,2,0,5,4,1,3,M,1,5,2,0,1000,250.0,5,D32KT,401,test
528.8379192352295,2,0,5,4,1,3,M,1,2,0,0,1000,250.0,2,D32KT,402,test
497.0710277557373,2,0,5,4,1,3,M,1,5,2,0,1000,250.0,5,D32KT,403,test
512.5718116760254,2,0,5,4,1,3,M,1,0,1,0,1000,250.0,0,D32KT,404,test
368.81494522094727,2,0,5,4,1,3,M,1,1,4,0,1000,250.0,1,D32KT,405,test
528.9509296417236,2,0,5,4,1,3,M,1,5,2,0,1000,250.0,5,D32KT,406,test
544.9528694152832,2,0,5,4,1,3,M,1,4,3,0,1000,250.0,4,D32KT,407,test
464.8709297180176,2,0,5,4,1,3,M,1,0,1,0,1000,250.0,0,D32KT,408,test
528.8739204406738,2,0,5,4,1,3,M,1,0,1,0,1000,250.0,0,D32KT,409,test
544.9790954589844,2,0,5,4,1,3,M,1,5,2,0,1000,250.0,5,D32KT,410,test
496.8278408050537,2,0,5,4,1,3,M,1,4,3,0,1000,250.0,4,D32KT,411,test
656.9609642028809,2,0,5,4,1,3,M,1,1,4,0,1000,250.0,1,D32KT,412,test
448.82798194885254,2,0,5,4,1,3,M,1,2,0,0,1000,250.0,2,D32KT,413,test
368.8528537750244,2,0,5,4,1,3,M,1,3,5,0,1000,250.0,3,D32KT,414,test
464.85304832458496,2,0,5,4,1,3,M,1,3,5,0,1000,250.0,3,D32KT,415,test
400.94709396362305,2,0,5,4,1,3,M,1,3,5,0,1000,250.0,3,D32KT,416,test
496.9351291656494,2,0,5,4,1,3,M,0,1,4,0,1000,250.0,2,D32KT,417,test
560.9180927276611,2,0,5,4,1,3,M,1,2,0,0,1000,250.0,2,D32KT,418,test
576.7159461975098,2,0,5,4,1,3,M,1,0,1,0,1000,250.0,0,D32KT,419,test
608.9229583740234,2,0,5,4,1,3,M,1,3,5,0,1000,250.0,3,D32KT,420,test
512.829065322876,2,0,5,4,1,3,M,1,0,1,0,1000,250.0,0,D32KT,421,test
656.8598747253418,2,0,5,4,1,3,M,1,4,3,0,1000,250.0,4,D32KT,422,test
464.85090255737305,2,0,5,4,1,3,M,0,3,5,0,1000,250.0,4,D32KT,423,test
624.9239444732666,2,0,5,4,1,3,M,1,2,0,0,1000,250.0,2,D32KT,424,test
496.95515632629395,2,0,5,4,1,3,M,1,0,1,0,1000,250.0,0,D32KT,425,test
560.920000076294,2,0,5,4,1,3,M,1,4,3,0,1000,250.0,4,D32KT,426,test
560.7998371124268,2,0,5,4,1,3,M,1,2,0,0,1000,250.0,2,D32KT,427,test
641.0222053527832,2,0,5,4,1,3,M,1,3,5,0,1000,250.0,3,D32KT,428,test
512.9251480102539,2,0,5,4,1,3,M,1,1,4,0,1000,250.0,1,D32KT,429,test
608.8130474090576,2,0,5,4,1,3,M,1,3,5,0,1000,250.0,3,D32KT,430,test
608.9539527893066,2,0,5,4,1,3,M,1,4,3,0,1000,250.0,4,D32KT,431,test
544.9421405792236,2,0,5,4,1,3,M,1,3,5,0,1000,250.0,3,D32KT,432,test
480.94797134399414,2,0,5,4,1,3,M,1,1,4,0,1000,250.0,1,D32KT,433,test
576.956033706665,2,0,5,4,1,3,M,1,2,0,0,1000,250.0,2,D32KT,434,test
416.9471263885498,2,0,5,4,1,3,M,1,2,0,0,1000,250.0,2,D32KT,435,test
496.8390464782715,2,0,5,4,1,3,M,1,1,4,0,1000,250.0,1,D32KT,436,test
544.9469089508057,2,0,5,4,1,3,M,0,0,1,0,1000,250.0,1,D32KT,437,test
592.7700996398926,2,0,5,4,1,3,M,1,4,3,0,1000,250.0,4,D32KT,438,test
544.9550151824951,2,0,5,4,1,3,M,1,1,4,0,1000,250.0,1,D32KT,439,test
720.9429740905762,2,0,5,4,1,3,M,1,0,1,0,1000,250.0,0,D32KT,440,test
496.8230724334717,2,0,5,4,1,3,M,1,0,1,0,1000,250.0,0,D32KT,441,test
496.8700408935547,2,0,5,4,1,3,M,1,1,4,0,1000,250.0,1,D32KT,442,test
576.6880512237549,2,0,5,4,1,3,M,1,4,3,0,1000,250.0,4,D32KT,443,test
576.8930912017822,2,0,5,4,1,3,M,1,0,1,0,1000,250.0,0,D32KT,444,test
512.9039287567139,2,0,5,4,1,3,M,1,4,3,0,1000,250.0,4,D32KT,445,test
560.8320236206055,2,0,5,4,1,3,M,1,5,2,0,1000,250.0,5,D32KT,446,test
321.0430145263672,2,0,5,4,1,3,M,1,1,4,0,1000,250.0,1,D32KT,447,test
512.8209590911865,2,0,5,4,1,3,M,1,1,4,0,1000,250.0,1,D32KT,448,test
576.7900943756104,2,0,5,4,1,3,M,1,3,5,0,1000,250.0,3,D32KT,449,test
544.8260307312012,2,0,5,4,1,3,M,1,5,2,0,1000,250.0,5,D32KT,450,test
560.8799457550049,2,0,5,4,1,3,M,0,2,0,0,1000,250.0,1,D32KT,451,test
512.8219127655029,2,0,5,4,1,3,M,1,2,0,0,1000,250.0,2,D32KT,452,test
544.8150634765625,2,0,5,4,1,3,M,1,5,2,0,1000,250.0,5,D32KT,453,test
544.8122024536133,2,0,5,4,1,3,M,1,4,3,0,1000,250.0,4,D32KT,454,test
576.9259929656982,2,0,5,4,1,3,M,1,0,1,0,1000,250.0,0,D32KT,455,test
576.9360065460205,2,0,5,4,1,3,M,1,3,5,0,1000,250.0,3,D32KT,456,test
513.0341053009033,2,0,5,4,1,3,M,1,0,1,0,1000,250.0,0,D32KT,457,test
720.893144607544,2,0,5,4,1,3,M,0,4,3,0,1000,250.0,3,D32KT,458,test
384.904146194458,2,0,5,4,1,3,M,1,3,5,0,1000,250.0,3,D32KT,459,test
528.8081169128418,2,0,5,4,1,3,M,1,3,5,0,1000,250.0,3,D32KT,460,test
464.8449420928955,2,0,5,4,1,3,M,1,0,1,0,1000,250.0,0,D32KT,461,test
416.9490337371826,2,0,5,4,1,3,M,1,0,1,0,1000,250.0,0,D32KT,462,test
672.9271411895752,2,0,5,4,1,3,M,1,3,5,0,1000,250.0,3,D32KT,463,test
544.9180603027344,2,0,5,4,1,3,M,1,1,4,0,1000,250.0,1,D32KT,464,test
656.6550731658936,2,0,5,4,1,3,M,1,1,4,0,1000,250.0,1,D32KT,465,test
592.4880504608154,2,0,5,4,1,3,M,1,5,2,0,1000,250.0,5,D32KT,466,test
513.0448341369629,2,0,5,4,1,3,M,1,0,1,0,1000,250.0,0,D32KT,467,test
416.87989234924316,2,0,5,4,1,3,M,1,1,4,0,1000,250.0,1,D32KT,468,test
560.6920719146729,2,0,5,4,1,3,M,1,0,1,0,1000,250.0,0,D32KT,469,test
608.9301109313965,2,0,5,4,1,3,M,1,5,2,0,1000,250.0,5,D32KT,470,test
608.832836151123,2,0,5,4,1,3,M,1,4,3,0,1000,250.0,4,D32KT,471,test
592.8909778594971,2,0,5,4,1,3,M,1,5,2,0,1000,250.0,5,D32KT,472,test
689.02587890625,2,0,5,4,1,3,M,1,2,0,0,1000,250.0,2,D32KT,473,test
560.9710216522217,2,0,5,4,1,3,M,1,4,3,0,1000,250.0,4,D32KT,474,test
480.85594177246094,2,0,5,4,1,3,M,1,0,1,0,1000,250.0,0,D32KT,475,test
496.88005447387695,2,0,5,4,1,3,M,1,1,4,0,1000,250.0,1,D32KT,476,test
496.8569278717041,2,0,5,4,1,3,M,1,0,1,0,1000,250.0,0,D32KT,477,test
560.8570575714111,2,0,5,4,1,3,M,1,5,2,0,1000,250.0,5,D32KT,478,test
608.7179183959961,2,0,5,4,1,3,M,1,4,3,0,1000,250.0,4,D32KT,479,test
384.97018814086914,2,0,5,4,1,3,M,1,3,5,0,1000,250.0,3,D32KT,480,test
464.9031162261963,2,0,5,4,1,3,M,1,1,4,0,1000,250.0,1,D32KT,481,test
496.8760013580322,2,0,5,4,1,3,M,1,1,4,0,1000,250.0,1,D32KT,482,test
560.9109401702881,2,0,5,4,1,3,M,0,4,3,0,1000,250.0,3,D32KT,483,test
560.884952545166,2,0,5,4,1,3,M,1,3,5,0,1000,250.0,3,D32KT,484,test
432.6519966125488,2,0,5,4,1,3,M,1,3,5,0,1000,250.0,3,D32KT,485,test
416.7969226837158,2,0,5,4,1,3,M,1,3,5,0,1000,250.0,3,D32KT,486,test
416.76998138427734,2,0,5,4,1,3,M,0,2,0,0,1000,250.0,1,D32KT,487,test
512.8428936004639,2,0,5,4,1,3,M,1,1,4,0,1000,250.0,1,D32KT,488,test
800.8990287780762,2,0,5,4,1,3,M,1,4,3,0,1000,250.0,4,D32KT,489,test
544.8658466339111,2,0,5,4,1,3,M,1,1,4,0,1000,250.0,1,D32KT,490,test
528.839111328125,2,0,5,4,1,3,M,1,0,1,0,1000,250.0,0,D32KT,491,test
528.933048248291,2,0,5,4,1,3,M,0,2,0,0,1000,250.0,1,D32KT,492,test
704.7810554504395,2,0,5,4,1,3,M,1,5,2,0,1000,250.0,5,D32KT,493,test
560.8060359954834,2,0,5,4,1,3,M,1,5,2,0,1000,250.0,5,D32KT,494,test
560.6598854064941,2,0,5,4,1,3,M,1,4,3,0,1000,250.0,4,D32KT,495,test
544.8229312896729,2,0,5,4,1,3,M,1,2,0,0,1000,250.0,2,D32KT,496,test
640.6829357147217,2,0,5,4,1,3,M,1,3,5,0,1000,250.0,3,D32KT,497,test
512.8388404846191,2,0,5,4,1,3,M,1,2,0,0,1000,250.0,2,D32KT,498,test
512.8250122070312,2,0,5,4,1,3,M,1,0,1,0,1000,250.0,0,D32KT,499,test
