RT,SRmap_0,SRmap_1,SRmap_2,SRmap_3,SRmap_4,SRmap_5,condition,correct,correct_response,curstim,ms-precue,ms-prestimblank,ntrials,response,subject,trial,type
13839.640855789185,5,3,1,0,4,2,H+,1,5,0,0,1000,250.0,5,e08no,0,train
3776.397943496704,5,3,1,0,4,2,H+,1,1,2,0,1000,250.0,1,e08no,1,train
4144.762992858887,5,3,1,0,4,2,H+,1,2,5,0,1000,250.0,2,e08no,2,train
4240.432024002075,5,3,1,0,4,2,H+,1,5,0,0,1000,250.0,5,e08no,3,train
2048.4330654144287,5,3,1,0,4,2,H+,1,0,3,0,1000,250.0,0,e08no,4,train
1920.5141067504883,5,3,1,0,4,2,H+,1,1,2,0,1000,250.0,1,e08no,5,train
2384.411096572876,5,3,1,0,4,2,H+,1,2,5,0,1000,250.0,2,e08no,6,train
4000.4379749298096,5,3,1,0,4,2,H+,1,4,4,0,1000,250.0,4,e08no,7,train
1488.7781143188477,5,3,1,0,4,2,H+,1,1,2,0,1000,250.0,1,e08no,8,train
3360.3880405426025,5,3,1,0,4,2,H+,1,3,1,0,1000,250.0,3,e08no,9,train
1840.6579494476318,5,3,1,0,4,2,H+,1,1,2,0,1000,250.0,1,e08no,10,train
2256.5691471099854,5,3,1,0,4,2,H+,1,4,4,0,1000,250.0,4,e08no,11,train
3552.4439811706543,5,3,1,0,4,2,H+,1,2,5,0,1000,250.0,2,e08no,12,train
1472.5031852722168,5,3,1,0,4,2,H+,1,1,2,0,1000,250.0,1,e08no,13,train
3152.5540351867676,5,3,1,0,4,2,H+,1,4,4,0,1000,250.0,4,e08no,14,train
1456.4809799194336,5,3,1,0,4,2,H+,1,0,3,0,1000,250.0,0,e08no,15,train
2000.3540515899658,5,3,1,0,4,2,H+,1,3,1,0,1000,250.0,3,e08no,16,train
2432.0449829101562,5,3,1,0,4,2,H+,1,4,4,0,1000,250.0,4,e08no,17,train
1728.459119796753,5,3,1,0,4,2,H+,1,1,2,0,1000,250.0,1,e08no,18,train
1280.4279327392578,5,3,1,0,4,2,H+,1,1,2,0,1000,250.0,1,e08no,19,train
736.5009784698486,5,3,1,0,4,2,H+,1,1,2,0,1000,250.0,1,e08no,20,train
2048.5241413116455,5,3,1,0,4,2,H+,1,5,0,0,1000,250.0,5,e08no,21,train
1168.7419414520264,5,3,1,0,4,2,H+,1,5,0,0,1000,250.0,5,e08no,22,train
1136.2957954406738,5,3,1,0,4,2,H+,1,0,3,0,1000,250.0,0,e08no,23,train
1600.7909774780273,5,3,1,0,4,2,H+,1,5,0,0,1000,250.0,5,e08no,24,train
1056.792974472046,5,3,1,0,4,2,H+,1,0,3,0,1000,250.0,0,e08no,25,train
3840.437889099121,5,3,1,0,4,2,H+,1,1,2,0,1000,250.0,1,e08no,26,train
3280.47513961792,5,3,1,0,4,2,H+,1,2,5,0,1000,250.0,2,e08no,27,train
848.4280109405518,5,3,1,0,4,2,H+,1,0,3,0,1000,250.0,0,e08no,28,train
1440.5100345611572,5,3,1,0,4,2,H+,1,1,2,0,1000,250.0,1,e08no,29,train
720.4799652099609,5,3,1,0,4,2,H+,1,1,2,0,1000,250.0,1,e08no,30,train
2576.2431621551514,5,3,1,0,4,2,H+,1,5,0,0,1000,250.0,5,e08no,31,train
1296.396017074585,5,3,1,0,4,2,H+,1,5,0,0,1000,250.0,5,e08no,32,train
2096.518039703369,5,3,1,0,4,2,H+,1,4,4,0,1000,250.0,4,e08no,33,train
672.497034072876,5,3,1,0,4,2,H+,1,0,3,0,1000,250.0,0,e08no,34,train
1408.5659980773926,5,3,1,0,4,2,H+,1,5,0,0,1000,250.0,5,e08no,35,train
832.503080368042,5,3,1,0,4,2,H+,1,0,3,0,1000,250.0,0,e08no,36,train
704.48899269104,5,3,1,0,4,2,H+,0,4,4,0,1000,250.0,5,e08no,37,train
1232.5530052185059,5,3,1,0,4,2,H+,1,1,2,0,1000,250.0,1,e08no,38,train
2144.534111022949,5,3,1,0,4,2,H+,1,2,5,0,1000,250.0,2,e08no,39,train
1024.5599746704102,5,3,1,0,4,2,H+,1,2,5,0,1000,250.0,2,e08no,40,train
1792.4978733062744,5,3,1,0,4,2,H+,1,4,4,0,1000,250.0,4,e08no,41,train
2336.459159851074,5,3,1,0,4,2,H+,1,2,5,0,1000,250.0,2,e08no,42,train
912.545919418335,5,3,1,0,4,2,H+,1,0,3,0,1000,250.0,0,e08no,43,train
1344.4559574127197,5,3,1,0,4,2,H+,1,3,1,0,1000,250.0,3,e08no,44,train
1152.4949073791504,5,3,1,0,4,2,H+,1,5,0,0,1000,250.0,5,e08no,45,train
592.4439430236816,5,3,1,0,4,2,H+,1,5,0,0,1000,250.0,5,e08no,46,train
1008.5330009460449,5,3,1,0,4,2,H+,1,1,2,0,1000,250.0,1,e08no,47,train
1040.4651165008545,5,3,1,0,4,2,H+,1,3,1,0,1000,250.0,3,e08no,48,train
849.1401672363281,5,3,1,0,4,2,H+,1,1,2,0,1000,250.0,1,e08no,49,train
864.8209571838379,5,3,1,0,4,2,H+,1,5,0,0,1000,250.0,5,e08no,50,train
1744.5640563964844,5,3,1,0,4,2,H+,1,2,5,0,1000,250.0,2,e08no,51,train
720.4680442810059,5,3,1,0,4,2,H+,1,0,3,0,1000,250.0,0,e08no,52,train
896.5210914611816,5,3,1,0,4,2,H+,1,1,2,0,1000,250.0,1,e08no,53,train
816.5130615234375,5,3,1,0,4,2,H+,1,1,2,0,1000,250.0,1,e08no,54,train
1024.8019695281982,5,3,1,0,4,2,H+,1,5,0,0,1000,250.0,5,e08no,55,train
768.5379981994629,5,3,1,0,4,2,H+,1,4,4,0,1000,250.0,4,e08no,56,train
1024.5029926300049,5,3,1,0,4,2,H+,1,5,0,0,1000,250.0,5,e08no,57,train
752.8419494628906,5,3,1,0,4,2,H+,1,0,3,0,1000,250.0,0,e08no,58,train
1872.7710247039795,5,3,1,0,4,2,H+,1,4,4,0,1000,250.0,4,e08no,59,train
1472.580909729004,5,3,1,0,4,2,H+,1,3,1,0,1000,250.0,3,e08no,60,train
1504.7290325164795,5,3,1,0,4,2,H+,1,3,1,0,1000,250.0,3,e08no,61,train
800.8298873901367,5,3,1,0,4,2,H+,1,0,3,0,1000,250.0,0,e08no,62,train
656.4888954162598,5,3,1,0,4,2,H+,1,0,3,0,1000,250.0,0,e08no,63,train
720.4759120941162,5,3,1,0,4,2,H+,1,1,2,0,1000,250.0,1,e08no,64,train
704.4658660888672,5,3,1,0,4,2,H+,1,1,2,0,1000,250.0,1,e08no,65,train
992.560863494873,5,3,1,0,4,2,H+,1,3,1,0,1000,250.0,3,e08no,66,train
816.6589736938477,5,3,1,0,4,2,H+,1,5,0,0,1000,250.0,5,e08no,67,train
688.4701251983643,5,3,1,0,4,2,H+,1,1,2,0,1000,250.0,1,e08no,68,train
944.4799423217773,5,3,1,0,4,2,H+,1,4,4,0,1000,250.0,4,e08no,69,train
1616.4488792419434,5,3,1,0,4,2,H+,1,2,5,0,1000,250.0,2,e08no,70,train
384.4430446624756,5,3,1,0,4,2,H+,1,2,5,0,1000,250.0,2,e08no,71,train
736.5469932556152,5,3,1,0,4,2,H+,1,0,3,0,1000,250.0,0,e08no,72,train
784.4398021697998,5,3,1,0,4,2,H+,1,0,3,0,1000,250.0,0,e08no,73,train
608.4351539611816,5,3,1,0,4,2,H+,1,4,4,0,1000,250.0,4,e08no,74,train
640.5379772186279,5,3,1,0,4,2,H+,0,2,5,0,1000,250.0,0,e08no,75,train
624.6328353881836,5,3,1,0,4,2,H+,1,0,3,0,1000,250.0,0,e08no,76,train
768.4690952301025,5,3,1,0,4,2,H+,1,4,4,0,1000,250.0,4,e08no,77,train
800.5437850952148,5,3,1,0,4,2,H+,1,4,4,0,1000,250.0,4,e08no,78,train
1024.4629383087158,5,3,1,0,4,2,H+,1,1,2,0,1000,250.0,1,e08no,79,train
1088.72389793396,5,3,1,0,4,2,H+,1,0,3,0,1000,250.0,0,e08no,80,train
928.8158416748047,5,3,1,0,4,2,H+,1,5,0,0,1000,250.0,5,e08no,81,train
1632.512092590332,5,3,1,0,4,2,H+,0,2,5,0,1000,250.0,1,e08no,82,train
1488.4681701660156,5,3,1,0,4,2,H+,1,3,1,0,1000,250.0,3,e08no,83,train
1776.5350341796875,5,3,1,0,4,2,H+,1,3,1,0,1000,250.0,3,e08no,84,train
784.268856048584,5,3,1,0,4,2,H+,1,3,1,0,1000,250.0,3,e08no,85,train
944.525957107544,5,3,1,0,4,2,H+,1,4,4,0,1000,250.0,4,e08no,86,train
640.4709815979004,5,3,1,0,4,2,H+,1,4,4,0,1000,250.0,4,e08no,87,train
832.3960304260254,5,3,1,0,4,2,H+,1,0,3,0,1000,250.0,0,e08no,88,train
1872.5528717041016,5,3,1,0,4,2,H+,1,2,5,0,1000,250.0,2,e08no,89,train
1248.425006866455,5,3,1,0,4,2,H+,1,1,2,0,1000,250.0,1,e08no,90,train
960.5369567871094,5,3,1,0,4,2,H+,1,5,0,0,1000,250.0,5,e08no,91,train
736.4568710327148,5,3,1,0,4,2,H+,1,0,3,0,1000,250.0,0,e08no,92,train
928.5159111022949,5,3,1,0,4,2,H+,1,3,1,0,1000,250.0,3,e08no,93,train
2176.4490604400635,5,3,1,0,4,2,H+,1,2,5,0,1000,250.0,2,e08no,94,train
704.538106918335,5,3,1,0,4,2,H+,1,1,2,0,1000,250.0,1,e08no,95,train
672.5189685821533,5,3,1,0,4,2,H+,1,3,1,0,1000,250.0,3,e08no,96,train
752.471923828125,5,3,1,0,4,2,H+,1,3,1,0,1000,250.0,3,e08no,97,train
816.6029453277588,5,3,1,0,4,2,H+,1,3,1,0,1000,250.0,3,e08no,98,train
592.2329425811768,5,3,1,0,4,2,H+,1,3,1,0,1000,250.0,3,e08no,99,train
464.4460678100586,5,3,1,0,4,2,H+,1,3,1,0,1000,250.0,3,e08no,100,train
336.4830017089844,5,3,1,0,4,2,H+,1,3,1,0,1000,250.0,3,e08no,101,train
320.55187225341797,5,3,1,0,4,2,H+,0,0,3,0,1000,250.0,3,e08no,102,train
656.5649509429932,5,3,1,0,4,2,H+,1,0,3,0,1000,250.0,0,e08no,103,train
752.4771690368652,5,3,1,0,4,2,H+,1,4,4,0,1000,250.0,4,e08no,104,train
1087.9650115966797,5,3,1,0,4,2,H+,1,2,5,0,1000,250.0,2,e08no,105,train
656.9440364837646,5,3,1,0,4,2,H+,1,2,5,0,1000,250.0,2,e08no,106,train
400.96092224121094,5,3,1,0,4,2,H+,1,2,5,0,1000,250.0,2,e08no,107,train
432.96003341674805,5,3,1,0,4,2,H+,1,2,5,0,1000,250.0,2,e08no,108,train
673.0620861053467,5,3,1,0,4,2,H+,1,3,1,0,1000,250.0,3,e08no,109,train
656.9631099700928,5,3,1,0,4,2,H+,1,4,4,0,1000,250.0,4,e08no,110,train
704.9868106842041,5,3,1,0,4,2,H+,0,4,4,0,1000,250.0,3,e08no,111,train
1520.9760665893555,5,3,1,0,4,2,H+,1,2,5,0,1000,250.0,2,e08no,112,train
704.8239707946777,5,3,1,0,4,2,H+,0,3,1,0,1000,250.0,4,e08no,113,train
1216.4831161499023,5,3,1,0,4,2,H+,1,1,2,0,1000,250.0,1,e08no,114,train
1328.859806060791,5,3,1,0,4,2,H+,0,3,1,0,1000,250.0,4,e08no,115,train
1504.8930644989014,5,3,1,0,4,2,H+,1,4,4,0,1000,250.0,4,e08no,116,train
1280.493974685669,5,3,1,0,4,2,H+,1,2,5,0,1000,250.0,2,e08no,117,train
752.6071071624756,5,3,1,0,4,2,H+,1,5,0,0,1000,250.0,5,e08no,118,train
2096.8499183654785,5,3,1,0,4,2,H+,1,2,5,0,1000,250.0,2,e08no,119,train
880.4450035095215,5,3,1,0,4,2,H+,1,4,4,0,1000,250.0,4,e08no,120,train
832.8139781951904,5,3,1,0,4,2,H+,1,0,3,0,1000,250.0,0,e08no,121,train
720.6430435180664,5,3,1,0,4,2,H+,0,2,5,0,1000,250.0,0,e08no,122,train
1312.5150203704834,5,3,1,0,4,2,H+,1,3,1,0,1000,250.0,3,e08no,123,train
1040.3790473937988,5,3,1,0,4,2,H+,1,1,2,0,1000,250.0,1,e08no,124,train
1072.5979804992676,5,3,1,0,4,2,H+,1,2,5,0,1000,250.0,2,e08no,125,train
784.4719886779785,5,3,1,0,4,2,H+,1,1,2,0,1000,250.0,1,e08no,126,train
768.4769630432129,5,3,1,0,4,2,H+,1,4,4,0,1000,250.0,4,e08no,127,train
1136.5289688110352,5,3,1,0,4,2,H+,1,1,2,0,1000,250.0,1,e08no,128,train
1360.610008239746,5,3,1,0,4,2,H+,0,3,1,0,1000,250.0,4,e08no,129,train
1072.5359916687012,5,3,1,0,4,2,H+,1,1,2,0,1000,250.0,1,e08no,130,train
1088.6170864105225,5,3,1,0,4,2,H+,1,5,0,0,1000,250.0,5,e08no,131,train
784.492015838623,5,3,1,0,4,2,H+,1,1,2,0,1000,250.0,1,e08no,132,train
1424.4680404663086,5,3,1,0,4,2,H+,1,2,5,0,1000,250.0,2,e08no,133,train
1040.5969619750977,5,3,1,0,4,2,H+,1,2,5,0,1000,250.0,2,e08no,134,train
1040.5521392822266,5,3,1,0,4,2,H+,1,4,4,0,1000,250.0,4,e08no,135,train
624.4568824768066,5,3,1,0,4,2,H+,1,3,1,0,1000,250.0,3,e08no,136,train
880.4638385772705,5,3,1,0,4,2,H+,1,4,4,0,1000,250.0,4,e08no,137,train
848.4289646148682,5,3,1,0,4,2,H+,1,2,5,0,1000,250.0,2,e08no,138,train
896.5511322021484,5,3,1,0,4,2,H+,1,0,3,0,1000,250.0,0,e08no,139,train
2048.5098361968994,5,3,1,0,4,2,H+,1,3,1,0,1000,250.0,3,e08no,140,train
1056.410789489746,5,3,1,0,4,2,H+,1,2,5,0,1000,250.0,2,e08no,141,train
864.5880222320557,5,3,1,0,4,2,H+,1,1,2,0,1000,250.0,1,e08no,142,train
752.5241374969482,5,3,1,0,4,2,H+,1,4,4,0,1000,250.0,4,e08no,143,train
768.4590816497803,5,3,1,0,4,2,H+,1,5,0,0,1000,250.0,5,e08no,144,train
928.6501407623291,5,3,1,0,4,2,H+,1,2,5,0,1000,250.0,2,e08no,145,train
1552.4709224700928,5,3,1,0,4,2,H+,1,3,1,0,1000,250.0,3,e08no,146,train
848.4938144683838,5,3,1,0,4,2,H+,1,2,5,0,1000,250.0,2,e08no,147,train
1296.12398147583,5,3,1,0,4,2,H+,1,0,3,0,1000,250.0,0,e08no,148,train
896.6109752655029,5,3,1,0,4,2,H+,1,4,4,0,1000,250.0,4,e08no,149,train
1248.9171028137207,5,3,1,0,4,2,H+,1,3,1,0,1000,250.0,3,e08no,150,train
736.9399070739746,5,3,1,0,4,2,H+,1,4,4,0,1000,250.0,4,e08no,151,train
544.6109771728516,5,3,1,0,4,2,H+,1,3,1,0,1000,250.0,3,e08no,152,train
593.005895614624,5,3,1,0,4,2,H+,1,3,1,0,1000,250.0,3,e08no,153,train
368.95108222961426,5,3,1,0,4,2,H+,1,3,1,0,1000,250.0,3,e08no,154,train
736.6049289703369,5,3,1,0,4,2,H+,1,5,0,0,1000,250.0,5,e08no,155,train
816.9078826904297,5,3,1,0,4,2,H+,1,1,2,0,1000,250.0,1,e08no,156,train
544.968843460083,5,3,1,0,4,2,H+,1,1,2,0,1000,250.0,1,e08no,157,train
1216.886043548584,5,3,1,0,4,2,H+,1,3,1,0,1000,250.0,3,e08no,158,train
864.6481037139893,5,3,1,0,4,2,H+,1,1,2,0,1000,250.0,1,e08no,159,train
736.9339466094971,5,3,1,0,4,2,H+,1,3,1,0,1000,250.0,3,e08no,160,train
673.0251312255859,5,3,1,0,4,2,H+,1,0,3,0,1000,250.0,0,e08no,161,train
736.9410991668701,5,3,1,0,4,2,H+,1,4,4,0,1000,250.0,4,e08no,162,train
944.9021816253662,5,3,1,0,4,2,H+,1,2,5,0,1000,250.0,2,e08no,163,train
1833.3611488342285,5,3,1,0,4,2,H+,1,3,1,0,1000,250.0,3,e08no,164,train
848.9971160888672,5,3,1,0,4,2,H+,1,5,0,0,1000,250.0,5,e08no,165,train
1616.9028282165527,5,3,1,0,4,2,H+,1,3,1,0,1000,250.0,3,e08no,166,train
1136.5578174591064,5,3,1,0,4,2,H+,1,1,2,0,1000,250.0,1,e08no,167,train
720.9830284118652,5,3,1,0,4,2,H+,1,4,4,0,1000,250.0,4,e08no,168,train
768.9898014068604,5,3,1,0,4,2,H+,1,0,3,0,1000,250.0,0,e08no,169,train
656.9089889526367,5,3,1,0,4,2,H+,1,0,3,0,1000,250.0,0,e08no,170,train
688.9231204986572,5,3,1,0,4,2,H+,1,5,0,0,1000,250.0,5,e08no,171,train
1520.918846130371,5,3,1,0,4,2,H+,1,1,2,0,1000,250.0,1,e08no,172,train
576.8640041351318,5,3,1,0,4,2,H+,1,1,2,0,1000,250.0,1,e08no,173,train
688.9820098876953,5,3,1,0,4,2,H+,1,0,3,0,1000,250.0,0,e08no,174,train
769.0258026123047,5,3,1,0,4,2,H+,1,4,4,0,1000,250.0,4,e08no,175,train
720.6358909606934,5,3,1,0,4,2,H+,1,0,3,0,1000,250.0,0,e08no,176,train
544.8551177978516,5,3,1,0,4,2,H+,1,0,3,0,1000,250.0,0,e08no,177,train
704.6570777893066,5,3,1,0,4,2,H+,1,1,2,0,1000,250.0,1,e08no,178,train
2176.8929958343506,5,3,1,0,4,2,H+,1,3,1,0,1000,250.0,3,e08no,179,train
736.8650436401367,5,3,1,0,4,2,H+,1,0,3,0,1000,250.0,0,e08no,180,train
896.9419002532959,5,3,1,0,4,2,H+,1,4,4,0,1000,250.0,4,e08no,181,train
625.06103515625,5,3,1,0,4,2,H+,1,4,4,0,1000,250.0,4,e08no,182,train
1617.0380115509033,5,3,1,0,4,2,H+,1,2,5,0,1000,250.0,2,e08no,183,train
608.9150905609131,5,3,1,0,4,2,H+,1,2,5,0,1000,250.0,2,e08no,184,train
705.0669193267822,5,3,1,0,4,2,H+,1,5,0,0,1000,250.0,5,e08no,185,train
944.9610710144043,5,3,1,0,4,2,H+,1,2,5,0,1000,250.0,2,e08no,186,train
704.8940658569336,5,3,1,0,4,2,H+,1,4,4,0,1000,250.0,4,e08no,187,train
576.9269466400146,5,3,1,0,4,2,H+,1,4,4,0,1000,250.0,4,e08no,188,train
833.0581188201904,5,3,1,0,4,2,H+,0,3,1,0,1000,250.0,2,e08no,189,train
1216.8829441070557,5,3,1,0,4,2,H+,1,1,2,0,1000,250.0,1,e08no,190,train
1696.9029903411865,5,3,1,0,4,2,H+,1,5,0,0,1000,250.0,5,e08no,191,train
2384.9470615386963,5,3,1,0,4,2,H+,1,5,0,0,1000,250.0,5,e08no,192,train
816.8830871582031,5,3,1,0,4,2,H+,0,2,5,0,1000,250.0,0,e08no,193,train
960.9971046447754,5,3,1,0,4,2,H+,1,1,2,0,1000,250.0,1,e08no,194,train
705.0058841705322,5,3,1,0,4,2,H+,1,1,2,0,1000,250.0,1,e08no,195,train
848.9720821380615,5,3,1,0,4,2,H+,1,2,5,0,1000,250.0,2,e08no,196,train
673.0189323425293,5,3,1,0,4,2,H+,1,5,0,0,1000,250.0,5,e08no,197,train
865.0100231170654,5,3,1,0,4,2,H+,1,2,5,0,1000,250.0,2,e08no,198,train
848.8998413085938,5,3,1,0,4,2,H+,1,1,2,0,1000,250.0,1,e08no,199,train
817.0351982116699,5,3,1,0,4,2,H+,0,0,3,0,1000,250.0,2,e08no,200,train
881.0858726501465,5,3,1,0,4,2,H+,1,4,4,0,1000,250.0,4,e08no,201,train
1185.067892074585,5,3,1,0,4,2,H+,1,3,1,0,1000,250.0,3,e08no,202,train
592.9200649261475,5,3,1,0,4,2,H+,1,4,4,0,1000,250.0,4,e08no,203,train
1153.0020236968994,5,3,1,0,4,2,H+,1,2,5,0,1000,250.0,2,e08no,204,train
849.0259647369385,5,3,1,0,4,2,H+,1,0,3,0,1000,250.0,0,e08no,205,train
1105.086088180542,5,3,1,0,4,2,H+,1,3,1,0,1000,250.0,3,e08no,206,train
688.9610290527344,5,3,1,0,4,2,H+,1,4,4,0,1000,250.0,4,e08no,207,train
673.058032989502,5,3,1,0,4,2,H+,1,0,3,0,1000,250.0,0,e08no,208,train
1169.037103652954,5,3,1,0,4,2,H+,1,4,4,0,1000,250.0,4,e08no,209,train
929.0728569030762,5,3,1,0,4,2,H+,1,3,1,0,1000,250.0,3,e08no,210,train
1105.1089763641357,5,3,1,0,4,2,H+,1,1,2,0,1000,250.0,1,e08no,211,train
1153.0659198760986,5,3,1,0,4,2,H+,1,2,5,0,1000,250.0,2,e08no,212,train
608.9179515838623,5,3,1,0,4,2,H+,1,2,5,0,1000,250.0,2,e08no,213,train
801.0790348052979,5,3,1,0,4,2,H+,1,1,2,0,1000,250.0,1,e08no,214,train
656.6331386566162,5,3,1,0,4,2,H+,1,0,3,0,1000,250.0,0,e08no,215,train
897.036075592041,5,3,1,0,4,2,H+,1,2,5,0,1000,250.0,2,e08no,216,train
592.9038524627686,5,3,1,0,4,2,H+,1,2,5,0,1000,250.0,2,e08no,217,train
1072.484016418457,5,3,1,0,4,2,H+,1,3,1,0,1000,250.0,3,e08no,218,train
656.5420627593994,5,3,1,0,4,2,H+,1,5,0,0,1000,250.0,5,e08no,219,train
704.5328617095947,5,3,1,0,4,2,H+,1,3,1,0,1000,250.0,3,e08no,220,train
608.1840991973877,5,3,1,0,4,2,H+,1,5,0,0,1000,250.0,5,e08no,221,train
832.6170444488525,5,3,1,0,4,2,H+,1,3,1,0,1000,250.0,3,e08no,222,train
816.4618015289307,5,3,1,0,4,2,H+,1,2,5,0,1000,250.0,2,e08no,223,train
656.4669609069824,5,3,1,0,4,2,H+,1,2,5,0,1000,250.0,2,e08no,224,train
672.5420951843262,5,3,1,0,4,2,H+,1,1,2,0,1000,250.0,1,e08no,225,train
1024.465799331665,5,3,1,0,4,2,H+,1,2,5,0,1000,250.0,2,e08no,226,train
752.6059150695801,5,3,1,0,4,2,H+,1,5,0,0,1000,250.0,5,e08no,227,train
800.5948066711426,5,3,1,0,4,2,H+,1,4,4,0,1000,250.0,4,e08no,228,train
625.0741481781006,5,3,1,0,4,2,H+,1,1,2,0,1000,250.0,1,e08no,229,train
1584.5720767974854,5,3,1,0,4,2,H+,1,0,3,0,1000,250.0,0,e08no,230,train
736.4609241485596,5,3,1,0,4,2,H+,1,4,4,0,1000,250.0,4,e08no,231,train
1376.5687942504883,5,3,1,0,4,2,H+,1,2,5,0,1000,250.0,2,e08no,232,train
992.5742149353027,5,3,1,0,4,2,H+,1,3,1,0,1000,250.0,3,e08no,233,train
688.6410713195801,5,3,1,0,4,2,H+,1,4,4,0,1000,250.0,4,e08no,234,train
720.5290794372559,5,3,1,0,4,2,H+,1,3,1,0,1000,250.0,3,e08no,235,train
592.4069881439209,5,3,1,0,4,2,H+,1,4,4,0,1000,250.0,4,e08no,236,train
816.5218830108643,5,3,1,0,4,2,H+,1,3,1,0,1000,250.0,3,e08no,237,train
624.4480609893799,5,3,1,0,4,2,H+,1,4,4,0,1000,250.0,4,e08no,238,train
992.5520420074463,5,3,1,0,4,2,H+,1,4,4,0,1000,250.0,4,e08no,239,train
784.538984298706,5,3,1,0,4,2,H+,1,4,4,0,1000,250.0,4,e08no,240,train
1008.6119174957275,5,3,1,0,4,2,H+,1,0,3,0,1000,250.0,0,e08no,241,train
704.3838500976562,5,3,1,0,4,2,H+,1,0,3,0,1000,250.0,0,e08no,242,train
512.4011039733887,5,3,1,0,4,2,H+,1,0,3,0,1000,250.0,0,e08no,243,train
768.5959339141846,5,3,1,0,4,2,H+,1,5,0,0,1000,250.0,5,e08no,244,train
896.571159362793,5,3,1,0,4,2,H+,1,2,5,0,1000,250.0,2,e08no,245,train
560.4679584503174,5,3,1,0,4,2,H+,1,4,4,0,1000,250.0,4,e08no,246,train
784.5518589019775,5,3,1,0,4,2,H+,1,2,5,0,1000,250.0,2,e08no,247,train
560.4510307312012,5,3,1,0,4,2,H+,1,1,2,0,1000,250.0,1,e08no,248,train
592.5779342651367,5,3,1,0,4,2,H+,1,3,1,0,1000,250.0,3,e08no,249,train
2432.435989379883,5,3,1,0,4,2,H+,1,5,0,0,1000,250.0,5,e08no,250,test
1008.6758136749268,5,3,1,0,4,2,H+,1,3,1,0,1000,250.0,3,e08no,251,test
720.5250263214111,5,3,1,0,4,2,H+,1,4,4,0,1000,250.0,4,e08no,252,test
848.585844039917,5,3,1,0,4,2,H+,1,3,1,0,1000,250.0,3,e08no,253,test
768.5739994049072,5,3,1,0,4,2,H+,1,5,0,0,1000,250.0,5,e08no,254,test
752.6199817657471,5,3,1,0,4,2,H+,0,2,5,0,1000,250.0,0,e08no,255,test
656.5530300140381,5,3,1,0,4,2,H+,1,0,3,0,1000,250.0,0,e08no,256,test
752.5150775909424,5,3,1,0,4,2,H+,1,0,3,0,1000,250.0,0,e08no,257,test
592.4279689788818,5,3,1,0,4,2,H+,1,0,3,0,1000,250.0,0,e08no,258,test
736.6149425506592,5,3,1,0,4,2,H+,1,1,2,0,1000,250.0,1,e08no,259,test
1072.5250244140625,5,3,1,0,4,2,H+,1,2,5,0,1000,250.0,2,e08no,260,test
976.4881134033203,5,3,1,0,4,2,H+,1,3,1,0,1000,250.0,3,e08no,261,test
800.4038333892822,5,3,1,0,4,2,H+,1,0,3,0,1000,250.0,0,e08no,262,test
736.8559837341309,5,3,1,0,4,2,H+,1,5,0,0,1000,250.0,5,e08no,263,test
672.6119518280029,5,3,1,0,4,2,H+,1,0,3,0,1000,250.0,0,e08no,264,test
640.6641006469727,5,3,1,0,4,2,H+,1,4,4,0,1000,250.0,4,e08no,265,test
592.5741195678711,5,3,1,0,4,2,H+,1,4,4,0,1000,250.0,4,e08no,266,test
864.6500110626221,5,3,1,0,4,2,H+,0,2,5,0,1000,250.0,0,e08no,267,test
1248.8620281219482,5,3,1,0,4,2,H+,1,1,2,0,1000,250.0,1,e08no,268,test
1216.4561748504639,5,3,1,0,4,2,H+,1,3,1,0,1000,250.0,3,e08no,269,test
1248.4629154205322,5,3,1,0,4,2,H+,1,2,5,0,1000,250.0,2,e08no,270,test
656.2411785125732,5,3,1,0,4,2,H+,1,5,0,0,1000,250.0,5,e08no,271,test
528.6080837249756,5,3,1,0,4,2,H+,1,5,0,0,1000,250.0,5,e08no,272,test
608.4730625152588,5,3,1,0,4,2,H+,1,4,4,0,1000,250.0,4,e08no,273,test
720.4608917236328,5,3,1,0,4,2,H+,1,3,1,0,1000,250.0,3,e08no,274,test
784.553050994873,5,3,1,0,4,2,H+,1,3,1,0,1000,250.0,3,e08no,275,test
880.7408809661865,5,3,1,0,4,2,H+,1,0,3,0,1000,250.0,0,e08no,276,test
672.5549697875977,5,3,1,0,4,2,H+,1,5,0,0,1000,250.0,5,e08no,277,test
624.5667934417725,5,3,1,0,4,2,H+,1,5,0,0,1000,250.0,5,e08no,278,test
928.5891056060791,5,3,1,0,4,2,H+,1,0,3,0,1000,250.0,0,e08no,279,test
704.4310569763184,5,3,1,0,4,2,H+,1,1,2,0,1000,250.0,1,e08no,280,test
560.2798461914062,5,3,1,0,4,2,H+,1,4,4,0,1000,250.0,4,e08no,281,test
944.5970058441162,5,3,1,0,4,2,H+,1,2,5,0,1000,250.0,2,e08no,282,test
656.8820476531982,5,3,1,0,4,2,H+,1,0,3,0,1000,250.0,0,e08no,283,test
928.6091327667236,5,3,1,0,4,2,H+,1,0,3,0,1000,250.0,0,e08no,284,test
592.5750732421875,5,3,1,0,4,2,H+,1,4,4,0,1000,250.0,4,e08no,285,test
1072.6089477539062,5,3,1,0,4,2,H+,0,2,5,0,1000,250.0,0,e08no,286,test
1152.8868675231934,5,3,1,0,4,2,H+,1,5,0,0,1000,250.0,5,e08no,287,test
736.483097076416,5,3,1,0,4,2,H+,1,0,3,0,1000,250.0,0,e08no,288,test
656.4550399780273,5,3,1,0,4,2,H+,1,4,4,0,1000,250.0,4,e08no,289,test
816.4308071136475,5,3,1,0,4,2,H+,1,2,5,0,1000,250.0,2,e08no,290,test
480.62610626220703,5,3,1,0,4,2,H+,1,2,5,0,1000,250.0,2,e08no,291,test
560.4510307312012,5,3,1,0,4,2,H+,1,5,0,0,1000,250.0,5,e08no,292,test
656.4109325408936,5,3,1,0,4,2,H+,1,0,3,0,1000,250.0,0,e08no,293,test
624.6070861816406,5,3,1,0,4,2,H+,1,5,0,0,1000,250.0,5,e08no,294,test
688.4031295776367,5,3,1,0,4,2,H+,1,2,5,0,1000,250.0,2,e08no,295,test
864.4669055938721,5,3,1,0,4,2,H+,1,0,3,0,1000,250.0,0,e08no,296,test
656.5589904785156,5,3,1,0,4,2,H+,1,4,4,0,1000,250.0,4,e08no,297,test
832.6060771942139,5,3,1,0,4,2,H+,1,2,5,0,1000,250.0,2,e08no,298,test
1264.4381523132324,5,3,1,0,4,2,H+,1,2,5,0,1000,250.0,2,e08no,299,test
560.4219436645508,5,3,1,0,4,2,H+,1,2,5,0,1000,250.0,2,e08no,300,test
624.5729923248291,5,3,1,0,4,2,H+,1,4,4,0,1000,250.0,4,e08no,301,test
720.6230163574219,5,3,1,0,4,2,H+,1,1,2,0,1000,250.0,1,e08no,302,test
656.5320491790771,5,3,1,0,4,2,H+,1,0,3,0,1000,250.0,0,e08no,303,test
928.4830093383789,5,3,1,0,4,2,H+,1,2,5,0,1000,250.0,2,e08no,304,test
656.5380096435547,5,3,1,0,4,2,H+,1,4,4,0,1000,250.0,4,e08no,305,test
640.592098236084,5,3,1,0,4,2,H+,1,1,2,0,1000,250.0,1,e08no,306,test
656.5999984741211,5,3,1,0,4,2,H+,1,0,3,0,1000,250.0,0,e08no,307,test
1568.328857421875,5,3,1,0,4,2,H+,1,2,5,0,1000,250.0,2,e08no,308,test
768.4290409088135,5,3,1,0,4,2,H+,1,5,0,0,1000,250.0,5,e08no,309,test
608.4380149841309,5,3,1,0,4,2,H+,1,4,4,0,1000,250.0,4,e08no,310,test
625.0560283660889,5,3,1,0,4,2,H+,1,1,2,0,1000,250.0,1,e08no,311,test
992.7279949188232,5,3,1,0,4,2,H+,1,5,0,0,1000,250.0,5,e08no,312,test
1424.51810836792,5,3,1,0,4,2,H+,1,1,2,0,1000,250.0,1,e08no,313,test
496.5488910675049,5,3,1,0,4,2,H+,1,1,2,0,1000,250.0,1,e08no,314,test
768.3219909667969,5,3,1,0,4,2,H+,1,0,3,0,1000,250.0,0,e08no,315,test
1504.5762062072754,5,3,1,0,4,2,H+,0,3,1,0,1000,250.0,4,e08no,316,test
736.6189956665039,5,3,1,0,4,2,H+,1,0,3,0,1000,250.0,0,e08no,317,test
816.5249824523926,5,3,1,0,4,2,H+,1,2,5,0,1000,250.0,2,e08no,318,test
720.4129695892334,5,3,1,0,4,2,H+,1,0,3,0,1000,250.0,0,e08no,319,test
608.5240840911865,5,3,1,0,4,2,H+,1,0,3,0,1000,250.0,0,e08no,320,test
864.5291328430176,5,3,1,0,4,2,H+,1,5,0,0,1000,250.0,5,e08no,321,test
720.5650806427002,5,3,1,0,4,2,H+,1,3,1,0,1000,250.0,3,e08no,322,test
640.4809951782227,5,3,1,0,4,2,H+,1,5,0,0,1000,250.0,5,e08no,323,test
1344.411849975586,5,3,1,0,4,2,H+,1,2,5,0,1000,250.0,2,e08no,324,test
624.5038509368896,5,3,1,0,4,2,H+,1,1,2,0,1000,250.0,1,e08no,325,test
608.7818145751953,5,3,1,0,4,2,H+,1,2,5,0,1000,250.0,2,e08no,326,test
800.5740642547607,5,3,1,0,4,2,H+,1,4,4,0,1000,250.0,4,e08no,327,test
768.4309482574463,5,3,1,0,4,2,H+,1,2,5,0,1000,250.0,2,e08no,328,test
1360.5120182037354,5,3,1,0,4,2,H+,1,3,1,0,1000,250.0,3,e08no,329,test
880.6040287017822,5,3,1,0,4,2,H+,1,5,0,0,1000,250.0,5,e08no,330,test
816.335916519165,5,3,1,0,4,2,H+,1,4,4,0,1000,250.0,4,e08no,331,test
544.5609092712402,5,3,1,0,4,2,H+,1,4,4,0,1000,250.0,4,e08no,332,test
720.9699153900146,5,3,1,0,4,2,H+,1,2,5,0,1000,250.0,2,e08no,333,test
736.640214920044,5,3,1,0,4,2,H+,1,4,4,0,1000,250.0,4,e08no,334,test
640.5940055847168,5,3,1,0,4,2,H+,1,4,4,0,1000,250.0,4,e08no,335,test
640.610933303833,5,3,1,0,4,2,H+,1,5,0,0,1000,250.0,5,e08no,336,test
640.5420303344727,5,3,1,0,4,2,H+,1,5,0,0,1000,250.0,5,e08no,337,test
544.741153717041,5,3,1,0,4,2,H+,1,5,0,0,1000,250.0,5,e08no,338,test
2128.6511421203613,5,3,1,0,4,2,H+,1,3,1,0,1000,250.0,3,e08no,339,test
1024.5840549468994,5,3,1,0,4,2,H+,1,1,2,0,1000,250.0,1,e08no,340,test
1040.8689975738525,5,3,1,0,4,2,H+,1,3,1,0,1000,250.0,3,e08no,341,test
1184.683084487915,5,3,1,0,4,2,H+,1,5,0,0,1000,250.0,5,e08no,342,test
1264.4410133361816,5,3,1,0,4,2,H+,1,3,1,0,1000,250.0,3,e08no,343,test
704.4990062713623,5,3,1,0,4,2,H+,0,2,5,0,1000,250.0,1,e08no,344,test
1408.5800647735596,5,3,1,0,4,2,H+,1,1,2,0,1000,250.0,1,e08no,345,test
720.3841209411621,5,3,1,0,4,2,H+,1,1,2,0,1000,250.0,1,e08no,346,test
1152.6060104370117,5,3,1,0,4,2,H+,1,0,3,0,1000,250.0,0,e08no,347,test
816.4401054382324,5,3,1,0,4,2,H+,1,5,0,0,1000,250.0,5,e08no,348,test
560.248851776123,5,3,1,0,4,2,H+,1,5,0,0,1000,250.0,5,e08no,349,test
2016.6292190551758,5,3,1,0,4,2,H+,1,3,1,0,1000,250.0,3,e08no,350,test
672.4400520324707,5,3,1,0,4,2,H+,1,0,3,0,1000,250.0,0,e08no,351,test
1216.3968086242676,5,3,1,0,4,2,H+,1,3,1,0,1000,250.0,3,e08no,352,test
672.4720001220703,5,3,1,0,4,2,H+,1,4,4,0,1000,250.0,4,e08no,353,test
768.7089443206787,5,3,1,0,4,2,H+,1,2,5,0,1000,250.0,2,e08no,354,test
928.6561012268066,5,3,1,0,4,2,H+,1,4,4,0,1000,250.0,4,e08no,355,test
752.4349689483643,5,3,1,0,4,2,H+,1,0,3,0,1000,250.0,0,e08no,356,test
688.4589195251465,5,3,1,0,4,2,H+,1,4,4,0,1000,250.0,4,e08no,357,test
1408.8079929351807,5,3,1,0,4,2,H+,1,1,2,0,1000,250.0,1,e08no,358,test
1392.4000263214111,5,3,1,0,4,2,H+,1,2,5,0,1000,250.0,2,e08no,359,test
640.3989791870117,5,3,1,0,4,2,H+,1,4,4,0,1000,250.0,4,e08no,360,test
912.1789932250977,5,3,1,0,4,2,H+,1,4,4,0,1000,250.0,4,e08no,361,test
688.6332035064697,5,3,1,0,4,2,H+,1,4,4,0,1000,250.0,4,e08no,362,test
1200.5679607391357,5,3,1,0,4,2,H+,1,3,1,0,1000,250.0,3,e08no,363,test
736.515998840332,5,3,1,0,4,2,H+,1,2,5,0,1000,250.0,2,e08no,364,test
640.5448913574219,5,3,1,0,4,2,H+,1,1,2,0,1000,250.0,1,e08no,365,test
688.5280609130859,5,3,1,0,4,2,H+,1,4,4,0,1000,250.0,4,e08no,366,test
2672.7240085601807,5,3,1,0,4,2,H+,1,2,5,0,1000,250.0,2,e08no,367,test
592.6048755645752,5,3,1,0,4,2,H+,1,4,4,0,1000,250.0,4,e08no,368,test
1104.6380996704102,5,3,1,0,4,2,H+,1,1,2,0,1000,250.0,1,e08no,369,test
768.7740325927734,5,3,1,0,4,2,H+,1,3,1,0,1000,250.0,3,e08no,370,test
624.6020793914795,5,3,1,0,4,2,H+,1,1,2,0,1000,250.0,1,e08no,371,test
800.6281852722168,5,3,1,0,4,2,H+,1,3,1,0,1000,250.0,3,e08no,372,test
752.6671886444092,5,3,1,0,4,2,H+,1,4,4,0,1000,250.0,4,e08no,373,test
1377.027988433838,5,3,1,0,4,2,H+,1,1,2,0,1000,250.0,1,e08no,374,test
833.0390453338623,5,3,1,0,4,2,H+,1,5,0,0,1000,250.0,5,e08no,375,test
577.056884765625,5,3,1,0,4,2,H+,1,4,4,0,1000,250.0,4,e08no,376,test
785.1381301879883,5,3,1,0,4,2,H+,1,3,1,0,1000,250.0,3,e08no,377,test
833.0099582672119,5,3,1,0,4,2,H+,1,3,1,0,1000,250.0,3,e08no,378,test
656.9697856903076,5,3,1,0,4,2,H+,1,3,1,0,1000,250.0,3,e08no,379,test
609.0400218963623,5,3,1,0,4,2,H+,1,0,3,0,1000,250.0,0,e08no,380,test
1201.158046722412,5,3,1,0,4,2,H+,1,2,5,0,1000,250.0,2,e08no,381,test
609.0099811553955,5,3,1,0,4,2,H+,1,1,2,0,1000,250.0,1,e08no,382,test
800.9710311889648,5,3,1,0,4,2,H+,1,3,1,0,1000,250.0,3,e08no,383,test
1681.0460090637207,5,3,1,0,4,2,H+,1,1,2,0,1000,250.0,1,e08no,384,test
656.973123550415,5,3,1,0,4,2,H+,1,4,4,0,1000,250.0,4,e08no,385,test
833.0719470977783,5,3,1,0,4,2,H+,1,5,0,0,1000,250.0,5,e08no,386,test
689.0749931335449,5,3,1,0,4,2,H+,1,1,2,0,1000,250.0,1,e08no,387,test
1408.987045288086,5,3,1,0,4,2,H+,1,3,1,0,1000,250.0,3,e08no,388,test
832.2920799255371,5,3,1,0,4,2,H+,1,0,3,0,1000,250.0,0,e08no,389,test
672.5552082061768,5,3,1,0,4,2,H+,1,4,4,0,1000,250.0,4,e08no,390,test
592.5619602203369,5,3,1,0,4,2,H+,1,4,4,0,1000,250.0,4,e08no,391,test
1168.5481071472168,5,3,1,0,4,2,H+,1,2,5,0,1000,250.0,2,e08no,392,test
624.4909763336182,5,3,1,0,4,2,H+,1,1,2,0,1000,250.0,1,e08no,393,test
624.6118545532227,5,3,1,0,4,2,H+,1,4,4,0,1000,250.0,4,e08no,394,test
688.5101795196533,5,3,1,0,4,2,H+,1,3,1,0,1000,250.0,3,e08no,395,test
656.8338871002197,5,3,1,0,4,2,H+,1,4,4,0,1000,250.0,4,e08no,396,test
1089.015007019043,5,3,1,0,4,2,H+,1,5,0,0,1000,250.0,5,e08no,397,test
1072.9451179504395,5,3,1,0,4,2,H+,1,3,1,0,1000,250.0,3,e08no,398,test
1264.8499011993408,5,3,1,0,4,2,H+,1,2,5,0,1000,250.0,2,e08no,399,test
657.0191383361816,5,3,1,0,4,2,H+,1,5,0,0,1000,250.0,5,e08no,400,test
2545.08900642395,5,3,1,0,4,2,H+,1,0,3,0,1000,250.0,0,e08no,401,test
832.9570293426514,5,3,1,0,4,2,H+,1,2,5,0,1000,250.0,2,e08no,402,test
801.069974899292,5,3,1,0,4,2,H+,1,4,4,0,1000,250.0,4,e08no,403,test
624.9959468841553,5,3,1,0,4,2,H+,1,4,4,0,1000,250.0,4,e08no,404,test
849.0810394287109,5,3,1,0,4,2,H+,1,3,1,0,1000,250.0,3,e08no,405,test
641.0038471221924,5,3,1,0,4,2,H+,1,3,1,0,1000,250.0,3,e08no,406,test
833.1480026245117,5,3,1,0,4,2,H+,1,1,2,0,1000,250.0,1,e08no,407,test
657.0620536804199,5,3,1,0,4,2,H+,1,5,0,0,1000,250.0,5,e08no,408,test
609.0679168701172,5,3,1,0,4,2,H+,1,5,0,0,1000,250.0,5,e08no,409,test
721.0991382598877,5,3,1,0,4,2,H+,1,0,3,0,1000,250.0,0,e08no,410,test
817.0070648193359,5,3,1,0,4,2,H+,1,0,3,0,1000,250.0,0,e08no,411,test
672.6088523864746,5,3,1,0,4,2,H+,1,5,0,0,1000,250.0,5,e08no,412,test
928.8191795349121,5,3,1,0,4,2,H+,1,3,1,0,1000,250.0,3,e08no,413,test
1744.4801330566406,5,3,1,0,4,2,H+,1,2,5,0,1000,250.0,2,e08no,414,test
464.3821716308594,5,3,1,0,4,2,H+,1,2,5,0,1000,250.0,2,e08no,415,test
1040.5731201171875,5,3,1,0,4,2,H+,1,3,1,0,1000,250.0,3,e08no,416,test
560.6250762939453,5,3,1,0,4,2,H+,0,4,4,0,1000,250.0,5,e08no,417,test
1856.4741611480713,5,3,1,0,4,2,H+,1,2,5,0,1000,250.0,2,e08no,418,test
784.538984298706,5,3,1,0,4,2,H+,1,4,4,0,1000,250.0,4,e08no,419,test
672.4560260772705,5,3,1,0,4,2,H+,1,2,5,0,1000,250.0,2,e08no,420,test
896.6109752655029,5,3,1,0,4,2,H+,1,3,1,0,1000,250.0,3,e08no,421,test
944.6079730987549,5,3,1,0,4,2,H+,1,4,4,0,1000,250.0,4,e08no,422,test
1040.5988693237305,5,3,1,0,4,2,H+,1,3,1,0,1000,250.0,3,e08no,423,test
961.1260890960693,5,3,1,0,4,2,H+,1,4,4,0,1000,250.0,4,e08no,424,test
864.5689487457275,5,3,1,0,4,2,H+,1,1,2,0,1000,250.0,1,e08no,425,test
640.923023223877,5,3,1,0,4,2,H+,1,4,4,0,1000,250.0,4,e08no,426,test
768.9080238342285,5,3,1,0,4,2,H+,1,2,5,0,1000,250.0,2,e08no,427,test
608.9668273925781,5,3,1,0,4,2,H+,1,2,5,0,1000,250.0,2,e08no,428,test
752.9361248016357,5,3,1,0,4,2,H+,0,3,1,0,1000,250.0,4,e08no,429,test
817.0499801635742,5,3,1,0,4,2,H+,1,4,4,0,1000,250.0,4,e08no,430,test
672.9240417480469,5,3,1,0,4,2,H+,1,2,5,0,1000,250.0,2,e08no,431,test
673.0918884277344,5,3,1,0,4,2,H+,1,0,3,0,1000,250.0,0,e08no,432,test
704.6568393707275,5,3,1,0,4,2,H+,1,5,0,0,1000,250.0,5,e08no,433,test
752.9079914093018,5,3,1,0,4,2,H+,1,0,3,0,1000,250.0,0,e08no,434,test
624.9010562896729,5,3,1,0,4,2,H+,1,1,2,0,1000,250.0,1,e08no,435,test
848.5958576202393,5,3,1,0,4,2,H+,1,0,3,0,1000,250.0,0,e08no,436,test
816.9379234313965,5,3,1,0,4,2,H+,1,0,3,0,1000,250.0,0,e08no,437,test
592.8339958190918,5,3,1,0,4,2,H+,1,0,3,0,1000,250.0,0,e08no,438,test
800.915002822876,5,3,1,0,4,2,H+,1,3,1,0,1000,250.0,3,e08no,439,test
657.0761203765869,5,3,1,0,4,2,H+,1,0,3,0,1000,250.0,0,e08no,440,test
577.0602226257324,5,3,1,0,4,2,H+,1,0,3,0,1000,250.0,0,e08no,441,test
448.9130973815918,5,3,1,0,4,2,H+,1,0,3,0,1000,250.0,0,e08no,442,test
1072.972059249878,5,3,1,0,4,2,H+,1,3,1,0,1000,250.0,3,e08no,443,test
593.019962310791,5,3,1,0,4,2,H+,1,5,0,0,1000,250.0,5,e08no,444,test
977.0810604095459,5,3,1,0,4,2,H+,1,2,5,0,1000,250.0,2,e08no,445,test
752.8929710388184,5,3,1,0,4,2,H+,1,4,4,0,1000,250.0,4,e08no,446,test
1712.9287719726562,5,3,1,0,4,2,H+,1,4,4,0,1000,250.0,4,e08no,447,test
640.9170627593994,5,3,1,0,4,2,H+,1,5,0,0,1000,250.0,5,e08no,448,test
1024.9650478363037,5,3,1,0,4,2,H+,1,2,5,0,1000,250.0,2,e08no,449,test
593.0159091949463,5,3,1,0,4,2,H+,1,0,3,0,1000,250.0,0,e08no,450,test
641.0760879516602,5,3,1,0,4,2,H+,1,1,2,0,1000,250.0,1,e08no,451,test
688.9750957489014,5,3,1,0,4,2,H+,1,4,4,0,1000,250.0,4,e08no,452,test
913.092851638794,5,3,1,0,4,2,H+,1,3,1,0,1000,250.0,3,e08no,453,test
1121.1249828338623,5,3,1,0,4,2,H+,1,2,5,0,1000,250.0,2,e08no,454,test
577.0289897918701,5,3,1,0,4,2,H+,1,4,4,0,1000,250.0,4,e08no,455,test
641.0689353942871,5,3,1,0,4,2,H+,1,0,3,0,1000,250.0,0,e08no,456,test
1839.6711349487305,5,3,1,0,4,2,H+,1,2,5,0,1000,250.0,2,e08no,457,test
657.088041305542,5,3,1,0,4,2,H+,1,4,4,0,1000,250.0,4,e08no,458,test
880.6700706481934,5,3,1,0,4,2,H+,1,2,5,0,1000,250.0,2,e08no,459,test
752.918004989624,5,3,1,0,4,2,H+,1,2,5,0,1000,250.0,2,e08no,460,test
929.110050201416,5,3,1,0,4,2,H+,1,3,1,0,1000,250.0,3,e08no,461,test
897.0170021057129,5,3,1,0,4,2,H+,1,1,2,0,1000,250.0,1,e08no,462,test
993.0050373077393,5,3,1,0,4,2,H+,1,2,5,0,1000,250.0,2,e08no,463,test
848.9470481872559,5,3,1,0,4,2,H+,1,0,3,0,1000,250.0,0,e08no,464,test
1072.9038715362549,5,3,1,0,4,2,H+,1,1,2,0,1000,250.0,1,e08no,465,test
1361.0601425170898,5,3,1,0,4,2,H+,1,5,0,0,1000,250.0,5,e08no,466,test
704.8900127410889,5,3,1,0,4,2,H+,1,0,3,0,1000,250.0,0,e08no,467,test
816.964864730835,5,3,1,0,4,2,H+,1,5,0,0,1000,250.0,5,e08no,468,test
608.8299751281738,5,3,1,0,4,2,H+,1,1,2,0,1000,250.0,1,e08no,469,test
769.0670490264893,5,3,1,0,4,2,H+,1,5,0,0,1000,250.0,5,e08no,470,test
657.0980548858643,5,3,1,0,4,2,H+,1,1,2,0,1000,250.0,1,e08no,471,test
641.0198211669922,5,3,1,0,4,2,H+,1,5,0,0,1000,250.0,5,e08no,472,test
464.9960994720459,5,3,1,0,4,2,H+,1,5,0,0,1000,250.0,5,e08no,473,test
512.8920078277588,5,3,1,0,4,2,H+,1,5,0,0,1000,250.0,5,e08no,474,test
608.8778972625732,5,3,1,0,4,2,H+,1,4,4,0,1000,250.0,4,e08no,475,test
593.0569171905518,5,3,1,0,4,2,H+,1,5,0,0,1000,250.0,5,e08no,476,test
1024.9061584472656,5,3,1,0,4,2,H+,1,3,1,0,1000,250.0,3,e08no,477,test
528.9092063903809,5,3,1,0,4,2,H+,1,3,1,0,1000,250.0,3,e08no,478,test
1024.8479843139648,5,3,1,0,4,2,H+,1,0,3,0,1000,250.0,0,e08no,479,test
624.9549388885498,5,3,1,0,4,2,H+,1,4,4,0,1000,250.0,4,e08no,480,test
816.9639110565186,5,3,1,0,4,2,H+,1,3,1,0,1000,250.0,3,e08no,481,test
1152.9498100280762,5,3,1,0,4,2,H+,1,5,0,0,1000,250.0,5,e08no,482,test
1504.8668384552002,5,3,1,0,4,2,H+,1,3,1,0,1000,250.0,3,e08no,483,test
1184.9720478057861,5,3,1,0,4,2,H+,1,2,5,0,1000,250.0,2,e08no,484,test
1201.0211944580078,5,3,1,0,4,2,H+,1,1,2,0,1000,250.0,1,e08no,485,test
1921.0240840911865,5,3,1,0,4,2,H+,1,0,3,0,1000,250.0,0,e08no,486,test
960.9770774841309,5,3,1,0,4,2,H+,1,2,5,0,1000,250.0,2,e08no,487,test
785.0368022918701,5,3,1,0,4,2,H+,1,5,0,0,1000,250.0,5,e08no,488,test
833.0130577087402,5,3,1,0,4,2,H+,1,1,2,0,1000,250.0,1,e08no,489,test
2352.9319763183594,5,3,1,0,4,2,H+,1,4,4,0,1000,250.0,4,e08no,490,test
640.8779621124268,5,3,1,0,4,2,H+,1,1,2,0,1000,250.0,1,e08no,491,test
960.9189033508301,5,3,1,0,4,2,H+,0,2,5,0,1000,250.0,1,e08no,492,test
656.6751003265381,5,3,1,0,4,2,H+,1,4,4,0,1000,250.0,4,e08no,493,test
656.8939685821533,5,3,1,0,4,2,H+,1,1,2,0,1000,250.0,1,e08no,494,test
641.0081386566162,5,3,1,0,4,2,H+,1,5,0,0,1000,250.0,5,e08no,495,test
1089.000940322876,5,3,1,0,4,2,H+,1,2,5,0,1000,250.0,2,e08no,496,test
944.7410106658936,5,3,1,0,4,2,H+,1,1,2,0,1000,250.0,1,e08no,497,test
704.8609256744385,5,3,1,0,4,2,H+,1,3,1,0,1000,250.0,3,e08no,498,test
673.0690002441406,5,3,1,0,4,2,H+,1,4,4,0,1000,250.0,4,e08no,499,test
