RT,SRmap_0,SRmap_1,SRmap_2,SRmap_3,SRmap_4,SRmap_5,condition,correct,correct_response,curstim,ms-precue,ms-prestimblank,ntrials,response,subject,trial,type
5520.676136016846,5,3,0,2,1,4,H+,0,5,0,0,1000,250.0,0,E04OM,0,train
2496.7498779296875,5,3,0,2,1,4,H+,0,5,0,0,1000,250.0,4,E04OM,1,train
2064.976930618286,5,3,0,2,1,4,H+,0,1,4,0,1000,250.0,0,E04OM,2,train
1889.035940170288,5,3,0,2,1,4,H+,1,4,5,0,1000,250.0,4,E04OM,3,train
1616.886854171753,5,3,0,2,1,4,H+,1,1,4,0,1000,250.0,1,E04OM,4,train
1856.9788932800293,5,3,0,2,1,4,H+,1,5,0,0,1000,250.0,5,E04OM,5,train
1552.9611110687256,5,3,0,2,1,4,H+,1,3,1,0,1000,250.0,3,E04OM,6,train
1200.9589672088623,5,3,0,2,1,4,H+,1,1,4,0,1000,250.0,1,E04OM,7,train
1072.901964187622,5,3,0,2,1,4,H+,1,0,2,0,1000,250.0,0,E04OM,8,train
880.9640407562256,5,3,0,2,1,4,H+,1,1,4,0,1000,250.0,1,E04OM,9,train
752.9408931732178,5,3,0,2,1,4,H+,1,0,2,0,1000,250.0,0,E04OM,10,train
1281.040906906128,5,3,0,2,1,4,H+,1,4,5,0,1000,250.0,4,E04OM,11,train
1217.0069217681885,5,3,0,2,1,4,H+,1,4,5,0,1000,250.0,4,E04OM,12,train
736.9110584259033,5,3,0,2,1,4,H+,1,4,5,0,1000,250.0,4,E04OM,13,train
1073.0688571929932,5,3,0,2,1,4,H+,0,2,3,0,1000,250.0,1,E04OM,14,train
2129.164934158325,5,3,0,2,1,4,H+,1,5,0,0,1000,250.0,5,E04OM,15,train
1680.9070110321045,5,3,0,2,1,4,H+,1,5,0,0,1000,250.0,5,E04OM,16,train
912.9781723022461,5,3,0,2,1,4,H+,1,0,2,0,1000,250.0,0,E04OM,17,train
753.0519962310791,5,3,0,2,1,4,H+,1,1,4,0,1000,250.0,1,E04OM,18,train
1488.91019821167,5,3,0,2,1,4,H+,1,3,1,0,1000,250.0,3,E04OM,19,train
1344.9878692626953,5,3,0,2,1,4,H+,1,5,0,0,1000,250.0,5,E04OM,20,train
1168.9610481262207,5,3,0,2,1,4,H+,1,4,5,0,1000,250.0,4,E04OM,21,train
768.9380645751953,5,3,0,2,1,4,H+,1,1,4,0,1000,250.0,1,E04OM,22,train
1153.0179977416992,5,3,0,2,1,4,H+,1,4,5,0,1000,250.0,4,E04OM,23,train
1488.9130592346191,5,3,0,2,1,4,H+,1,5,0,0,1000,250.0,5,E04OM,24,train
1264.9099826812744,5,3,0,2,1,4,H+,1,4,5,0,1000,250.0,4,E04OM,25,train
1137.0270252227783,5,3,0,2,1,4,H+,1,5,0,0,1000,250.0,5,E04OM,26,train
1121.0739612579346,5,3,0,2,1,4,H+,1,4,5,0,1000,250.0,4,E04OM,27,train
1360.8849048614502,5,3,0,2,1,4,H+,0,2,3,0,1000,250.0,1,E04OM,28,train
1905.0288200378418,5,3,0,2,1,4,H+,1,5,0,0,1000,250.0,5,E04OM,29,train
896.9941139221191,5,3,0,2,1,4,H+,1,5,0,0,1000,250.0,5,E04OM,30,train
816.8089389801025,5,3,0,2,1,4,H+,1,0,2,0,1000,250.0,0,E04OM,31,train
721.0738658905029,5,3,0,2,1,4,H+,1,0,2,0,1000,250.0,0,E04OM,32,train
1296.9138622283936,5,3,0,2,1,4,H+,1,3,1,0,1000,250.0,3,E04OM,33,train
880.936861038208,5,3,0,2,1,4,H+,1,4,5,0,1000,250.0,4,E04OM,34,train
1424.9389171600342,5,3,0,2,1,4,H+,1,5,0,0,1000,250.0,5,E04OM,35,train
705.01708984375,5,3,0,2,1,4,H+,0,2,3,0,1000,250.0,1,E04OM,36,train
1648.9531993865967,5,3,0,2,1,4,H+,1,1,4,0,1000,250.0,1,E04OM,37,train
1009.0148448944092,5,3,0,2,1,4,H+,1,2,3,0,1000,250.0,2,E04OM,38,train
673.0301380157471,5,3,0,2,1,4,H+,1,0,2,0,1000,250.0,0,E04OM,39,train
864.9430274963379,5,3,0,2,1,4,H+,1,2,3,0,1000,250.0,2,E04OM,40,train
1024.9381065368652,5,3,0,2,1,4,H+,1,1,4,0,1000,250.0,1,E04OM,41,train
1153.0749797821045,5,3,0,2,1,4,H+,1,5,0,0,1000,250.0,5,E04OM,42,train
672.8551387786865,5,3,0,2,1,4,H+,0,1,4,0,1000,250.0,5,E04OM,43,train
1248.9221096038818,5,3,0,2,1,4,H+,1,3,1,0,1000,250.0,3,E04OM,44,train
864.9990558624268,5,3,0,2,1,4,H+,1,5,0,0,1000,250.0,5,E04OM,45,train
881.072998046875,5,3,0,2,1,4,H+,1,5,0,0,1000,250.0,5,E04OM,46,train
608.9811325073242,5,3,0,2,1,4,H+,1,0,2,0,1000,250.0,0,E04OM,47,train
576.915979385376,5,3,0,2,1,4,H+,1,0,2,0,1000,250.0,0,E04OM,48,train
752.9339790344238,5,3,0,2,1,4,H+,1,4,5,0,1000,250.0,4,E04OM,49,train
865.0169372558594,5,3,0,2,1,4,H+,1,2,3,0,1000,250.0,2,E04OM,50,train
608.9198589324951,5,3,0,2,1,4,H+,1,2,3,0,1000,250.0,2,E04OM,51,train
993.0529594421387,5,3,0,2,1,4,H+,0,5,0,0,1000,250.0,4,E04OM,52,train
640.8119201660156,5,3,0,2,1,4,H+,1,1,4,0,1000,250.0,1,E04OM,53,train
752.9780864715576,5,3,0,2,1,4,H+,1,3,1,0,1000,250.0,3,E04OM,54,train
640.8839225769043,5,3,0,2,1,4,H+,1,1,4,0,1000,250.0,1,E04OM,55,train
1520.8771228790283,5,3,0,2,1,4,H+,1,2,3,0,1000,250.0,2,E04OM,56,train
592.954158782959,5,3,0,2,1,4,H+,1,0,2,0,1000,250.0,0,E04OM,57,train
528.918981552124,5,3,0,2,1,4,H+,1,0,2,0,1000,250.0,0,E04OM,58,train
672.976016998291,5,3,0,2,1,4,H+,1,0,2,0,1000,250.0,0,E04OM,59,train
464.92600440979004,5,3,0,2,1,4,H+,1,1,4,0,1000,250.0,1,E04OM,60,train
625.0748634338379,5,3,0,2,1,4,H+,1,2,3,0,1000,250.0,2,E04OM,61,train
737.0591163635254,5,3,0,2,1,4,H+,1,4,5,0,1000,250.0,4,E04OM,62,train
576.9190788269043,5,3,0,2,1,4,H+,1,5,0,0,1000,250.0,5,E04OM,63,train
545.0189113616943,5,3,0,2,1,4,H+,1,0,2,0,1000,250.0,0,E04OM,64,train
1088.9558792114258,5,3,0,2,1,4,H+,1,3,1,0,1000,250.0,3,E04OM,65,train
560.8639717102051,5,3,0,2,1,4,H+,1,2,3,0,1000,250.0,2,E04OM,66,train
672.8861331939697,5,3,0,2,1,4,H+,1,1,4,0,1000,250.0,1,E04OM,67,train
512.8428936004639,5,3,0,2,1,4,H+,1,1,4,0,1000,250.0,1,E04OM,68,train
608.8919639587402,5,3,0,2,1,4,H+,0,2,3,0,1000,250.0,3,E04OM,69,train
608.6099147796631,5,3,0,2,1,4,H+,1,0,2,0,1000,250.0,0,E04OM,70,train
544.8219776153564,5,3,0,2,1,4,H+,1,4,5,0,1000,250.0,4,E04OM,71,train
576.927900314331,5,3,0,2,1,4,H+,1,4,5,0,1000,250.0,4,E04OM,72,train
576.8551826477051,5,3,0,2,1,4,H+,1,1,4,0,1000,250.0,1,E04OM,73,train
672.9140281677246,5,3,0,2,1,4,H+,1,4,5,0,1000,250.0,4,E04OM,74,train
576.8358707427979,5,3,0,2,1,4,H+,1,0,2,0,1000,250.0,0,E04OM,75,train
704.8170566558838,5,3,0,2,1,4,H+,1,5,0,0,1000,250.0,5,E04OM,76,train
576.833963394165,5,3,0,2,1,4,H+,1,0,2,0,1000,250.0,0,E04OM,77,train
656.843900680542,5,3,0,2,1,4,H+,1,1,4,0,1000,250.0,1,E04OM,78,train
576.8439769744873,5,3,0,2,1,4,H+,1,3,1,0,1000,250.0,3,E04OM,79,train
720.8878993988037,5,3,0,2,1,4,H+,1,2,3,0,1000,250.0,2,E04OM,80,train
768.8949108123779,5,3,0,2,1,4,H+,1,4,5,0,1000,250.0,4,E04OM,81,train
1680.905818939209,5,3,0,2,1,4,H+,1,3,1,0,1000,250.0,3,E04OM,82,train
528.8472175598145,5,3,0,2,1,4,H+,1,3,1,0,1000,250.0,3,E04OM,83,train
704.8759460449219,5,3,0,2,1,4,H+,0,2,3,0,1000,250.0,4,E04OM,84,train
688.8241767883301,5,3,0,2,1,4,H+,1,3,1,0,1000,250.0,3,E04OM,85,train
752.863883972168,5,3,0,2,1,4,H+,1,2,3,0,1000,250.0,2,E04OM,86,train
592.9419994354248,5,3,0,2,1,4,H+,1,0,2,0,1000,250.0,0,E04OM,87,train
704.8981189727783,5,3,0,2,1,4,H+,1,2,3,0,1000,250.0,2,E04OM,88,train
945.091962814331,5,3,0,2,1,4,H+,1,3,1,0,1000,250.0,3,E04OM,89,train
657.0239067077637,5,3,0,2,1,4,H+,1,2,3,0,1000,250.0,2,E04OM,90,train
721.0118770599365,5,3,0,2,1,4,H+,0,2,3,0,1000,250.0,3,E04OM,91,train
688.9758110046387,5,3,0,2,1,4,H+,0,3,1,0,1000,250.0,0,E04OM,92,train
592.9160118103027,5,3,0,2,1,4,H+,1,1,4,0,1000,250.0,1,E04OM,93,train
720.8762168884277,5,3,0,2,1,4,H+,0,4,5,0,1000,250.0,5,E04OM,94,train
448.9250183105469,5,3,0,2,1,4,H+,1,4,5,0,1000,250.0,4,E04OM,95,train
480.9222221374512,5,3,0,2,1,4,H+,1,5,0,0,1000,250.0,5,E04OM,96,train
640.902042388916,5,3,0,2,1,4,H+,1,2,3,0,1000,250.0,2,E04OM,97,train
544.8589324951172,5,3,0,2,1,4,H+,0,1,4,0,1000,250.0,0,E04OM,98,train
592.919111251831,5,3,0,2,1,4,H+,1,0,2,0,1000,250.0,0,E04OM,99,train
897.0539569854736,5,3,0,2,1,4,H+,1,2,3,0,1000,250.0,2,E04OM,100,train
688.9770030975342,5,3,0,2,1,4,H+,1,2,3,0,1000,250.0,2,E04OM,101,train
640.9189701080322,5,3,0,2,1,4,H+,1,2,3,0,1000,250.0,2,E04OM,102,train
672.8479862213135,5,3,0,2,1,4,H+,1,4,5,0,1000,250.0,4,E04OM,103,train
433.0430030822754,5,3,0,2,1,4,H+,1,4,5,0,1000,250.0,4,E04OM,104,train
448.9550590515137,5,3,0,2,1,4,H+,1,4,5,0,1000,250.0,4,E04OM,105,train
432.999849319458,5,3,0,2,1,4,H+,1,5,0,0,1000,250.0,5,E04OM,106,train
784.9891185760498,5,3,0,2,1,4,H+,1,3,1,0,1000,250.0,3,E04OM,107,train
593.0109024047852,5,3,0,2,1,4,H+,1,5,0,0,1000,250.0,5,E04OM,108,train
641.1020755767822,5,3,0,2,1,4,H+,0,1,4,0,1000,250.0,0,E04OM,109,train
672.9569435119629,5,3,0,2,1,4,H+,0,2,3,0,1000,250.0,3,E04OM,110,train
560.9509944915771,5,3,0,2,1,4,H+,1,1,4,0,1000,250.0,1,E04OM,111,train
497.12491035461426,5,3,0,2,1,4,H+,1,1,4,0,1000,250.0,1,E04OM,112,train
464.92815017700195,5,3,0,2,1,4,H+,1,0,2,0,1000,250.0,0,E04OM,113,train
1088.9978408813477,5,3,0,2,1,4,H+,1,2,3,0,1000,250.0,2,E04OM,114,train
640.967845916748,5,3,0,2,1,4,H+,1,4,5,0,1000,250.0,4,E04OM,115,train
592.1180248260498,5,3,0,2,1,4,H+,0,2,3,0,1000,250.0,4,E04OM,116,train
433.11095237731934,5,3,0,2,1,4,H+,1,2,3,0,1000,250.0,2,E04OM,117,train
849.0538597106934,5,3,0,2,1,4,H+,1,5,0,0,1000,250.0,5,E04OM,118,train
1009.0219974517822,5,3,0,2,1,4,H+,1,2,3,0,1000,250.0,2,E04OM,119,train
577.0552158355713,5,3,0,2,1,4,H+,1,5,0,0,1000,250.0,5,E04OM,120,train
576.9062042236328,5,3,0,2,1,4,H+,1,3,1,0,1000,250.0,3,E04OM,121,train
576.927900314331,5,3,0,2,1,4,H+,1,0,2,0,1000,250.0,0,E04OM,122,train
432.98792839050293,5,3,0,2,1,4,H+,1,1,4,0,1000,250.0,1,E04OM,123,train
704.8859596252441,5,3,0,2,1,4,H+,1,0,2,0,1000,250.0,0,E04OM,124,train
720.911979675293,5,3,0,2,1,4,H+,1,2,3,0,1000,250.0,2,E04OM,125,train
624.9911785125732,5,3,0,2,1,4,H+,1,1,4,0,1000,250.0,1,E04OM,126,train
737.1280193328857,5,3,0,2,1,4,H+,1,2,3,0,1000,250.0,2,E04OM,127,train
704.9129009246826,5,3,0,2,1,4,H+,1,4,5,0,1000,250.0,4,E04OM,128,train
560.870885848999,5,3,0,2,1,4,H+,1,0,2,0,1000,250.0,0,E04OM,129,train
641.0090923309326,5,3,0,2,1,4,H+,1,4,5,0,1000,250.0,4,E04OM,130,train
417.06013679504395,5,3,0,2,1,4,H+,1,4,5,0,1000,250.0,4,E04OM,131,train
672.1251010894775,5,3,0,2,1,4,H+,1,3,1,0,1000,250.0,3,E04OM,132,train
609.0121269226074,5,3,0,2,1,4,H+,1,0,2,0,1000,250.0,0,E04OM,133,train
592.9369926452637,5,3,0,2,1,4,H+,1,3,1,0,1000,250.0,3,E04OM,134,train
672.9428768157959,5,3,0,2,1,4,H+,1,5,0,0,1000,250.0,5,E04OM,135,train
464.9767875671387,5,3,0,2,1,4,H+,1,4,5,0,1000,250.0,4,E04OM,136,train
561.0499382019043,5,3,0,2,1,4,H+,1,4,5,0,1000,250.0,4,E04OM,137,train
577.0912170410156,5,3,0,2,1,4,H+,1,4,5,0,1000,250.0,4,E04OM,138,train
737.0290756225586,5,3,0,2,1,4,H+,1,1,4,0,1000,250.0,1,E04OM,139,train
576.9069194793701,5,3,0,2,1,4,H+,1,3,1,0,1000,250.0,3,E04OM,140,train
1904.9489498138428,5,3,0,2,1,4,H+,1,2,3,0,1000,250.0,2,E04OM,141,train
529.0241241455078,5,3,0,2,1,4,H+,1,3,1,0,1000,250.0,3,E04OM,142,train
544.9728965759277,5,3,0,2,1,4,H+,1,1,4,0,1000,250.0,1,E04OM,143,train
656.9910049438477,5,3,0,2,1,4,H+,0,2,3,0,1000,250.0,3,E04OM,144,train
624.9370574951172,5,3,0,2,1,4,H+,1,5,0,0,1000,250.0,5,E04OM,145,train
672.9540824890137,5,3,0,2,1,4,H+,1,2,3,0,1000,250.0,2,E04OM,146,train
609.09104347229,5,3,0,2,1,4,H+,0,1,4,0,1000,250.0,0,E04OM,147,train
465.01803398132324,5,3,0,2,1,4,H+,1,1,4,0,1000,250.0,1,E04OM,148,train
656.951904296875,5,3,0,2,1,4,H+,1,3,1,0,1000,250.0,3,E04OM,149,train
577.1191120147705,5,3,0,2,1,4,H+,1,1,4,0,1000,250.0,1,E04OM,150,train
480.9308052062988,5,3,0,2,1,4,H+,1,0,2,0,1000,250.0,0,E04OM,151,train
865.0531768798828,5,3,0,2,1,4,H+,1,5,0,0,1000,250.0,5,E04OM,152,train
673.0749607086182,5,3,0,2,1,4,H+,1,3,1,0,1000,250.0,3,E04OM,153,train
513.0810737609863,5,3,0,2,1,4,H+,1,5,0,0,1000,250.0,5,E04OM,154,train
545.0019836425781,5,3,0,2,1,4,H+,1,0,2,0,1000,250.0,0,E04OM,155,train
545.0499057769775,5,3,0,2,1,4,H+,1,4,5,0,1000,250.0,4,E04OM,156,train
657.0899486541748,5,3,0,2,1,4,H+,1,5,0,0,1000,250.0,5,E04OM,157,train
529.0670394897461,5,3,0,2,1,4,H+,1,4,5,0,1000,250.0,4,E04OM,158,train
641.063928604126,5,3,0,2,1,4,H+,1,0,2,0,1000,250.0,0,E04OM,159,train
496.9749450683594,5,3,0,2,1,4,H+,1,3,1,0,1000,250.0,3,E04OM,160,train
496.98710441589355,5,3,0,2,1,4,H+,1,3,1,0,1000,250.0,3,E04OM,161,train
576.8589973449707,5,3,0,2,1,4,H+,1,5,0,0,1000,250.0,5,E04OM,162,train
545.0339317321777,5,3,0,2,1,4,H+,1,1,4,0,1000,250.0,1,E04OM,163,train
641.0529613494873,5,3,0,2,1,4,H+,1,0,2,0,1000,250.0,0,E04OM,164,train
545.0048446655273,5,3,0,2,1,4,H+,1,2,3,0,1000,250.0,2,E04OM,165,train
657.0429801940918,5,3,0,2,1,4,H+,0,1,4,0,1000,250.0,0,E04OM,166,train
417.01507568359375,5,3,0,2,1,4,H+,1,0,2,0,1000,250.0,0,E04OM,167,train
657.006025314331,5,3,0,2,1,4,H+,1,3,1,0,1000,250.0,3,E04OM,168,train
657.0777893066406,5,3,0,2,1,4,H+,1,5,0,0,1000,250.0,5,E04OM,169,train
576.8098831176758,5,3,0,2,1,4,H+,1,3,1,0,1000,250.0,3,E04OM,170,train
673.084020614624,5,3,0,2,1,4,H+,1,1,4,0,1000,250.0,1,E04OM,171,train
801.0890483856201,5,3,0,2,1,4,H+,1,2,3,0,1000,250.0,2,E04OM,172,train
1057.102918624878,5,3,0,2,1,4,H+,1,2,3,0,1000,250.0,2,E04OM,173,train
545.0780391693115,5,3,0,2,1,4,H+,1,3,1,0,1000,250.0,3,E04OM,174,train
496.97399139404297,5,3,0,2,1,4,H+,1,3,1,0,1000,250.0,3,E04OM,175,train
657.0878028869629,5,3,0,2,1,4,H+,1,0,2,0,1000,250.0,0,E04OM,176,train
705.0318717956543,5,3,0,2,1,4,H+,1,5,0,0,1000,250.0,5,E04OM,177,train
657.1030616760254,5,3,0,2,1,4,H+,1,4,5,0,1000,250.0,4,E04OM,178,train
881.0200691223145,5,3,0,2,1,4,H+,1,2,3,0,1000,250.0,2,E04OM,179,train
705.0089836120605,5,3,0,2,1,4,H+,1,4,5,0,1000,250.0,4,E04OM,180,train
449.10287857055664,5,3,0,2,1,4,H+,1,4,5,0,1000,250.0,4,E04OM,181,train
545.0549125671387,5,3,0,2,1,4,H+,1,4,5,0,1000,250.0,4,E04OM,182,train
656.8071842193604,5,3,0,2,1,4,H+,1,1,4,0,1000,250.0,1,E04OM,183,train
641.0219669342041,5,3,0,2,1,4,H+,1,4,5,0,1000,250.0,4,E04OM,184,train
705.0018310546875,5,3,0,2,1,4,H+,0,1,4,0,1000,250.0,0,E04OM,185,train
657.1030616760254,5,3,0,2,1,4,H+,1,3,1,0,1000,250.0,3,E04OM,186,train
577.0139694213867,5,3,0,2,1,4,H+,1,3,1,0,1000,250.0,3,E04OM,187,train
593.0790901184082,5,3,0,2,1,4,H+,1,0,2,0,1000,250.0,0,E04OM,188,train
497.0710277557373,5,3,0,2,1,4,H+,1,0,2,0,1000,250.0,0,E04OM,189,train
657.0549011230469,5,3,0,2,1,4,H+,1,2,3,0,1000,250.0,2,E04OM,190,train
576.9851207733154,5,3,0,2,1,4,H+,1,4,5,0,1000,250.0,4,E04OM,191,train
689.100980758667,5,3,0,2,1,4,H+,1,3,1,0,1000,250.0,3,E04OM,192,train
561.0930919647217,5,3,0,2,1,4,H+,1,3,1,0,1000,250.0,3,E04OM,193,train
641.016960144043,5,3,0,2,1,4,H+,1,5,0,0,1000,250.0,5,E04OM,194,train
657.1109294891357,5,3,0,2,1,4,H+,1,2,3,0,1000,250.0,2,E04OM,195,train
625.0030994415283,5,3,0,2,1,4,H+,1,4,5,0,1000,250.0,4,E04OM,196,train
641.1221027374268,5,3,0,2,1,4,H+,1,0,2,0,1000,250.0,0,E04OM,197,train
625.0638961791992,5,3,0,2,1,4,H+,0,4,5,0,1000,250.0,3,E04OM,198,train
672.9729175567627,5,3,0,2,1,4,H+,1,0,2,0,1000,250.0,0,E04OM,199,train
577.0859718322754,5,3,0,2,1,4,H+,1,4,5,0,1000,250.0,4,E04OM,200,train
545.0479984283447,5,3,0,2,1,4,H+,1,0,2,0,1000,250.0,0,E04OM,201,train
561.0530376434326,5,3,0,2,1,4,H+,1,1,4,0,1000,250.0,1,E04OM,202,train
657.0971012115479,5,3,0,2,1,4,H+,1,5,0,0,1000,250.0,5,E04OM,203,train
801.1159896850586,5,3,0,2,1,4,H+,1,2,3,0,1000,250.0,2,E04OM,204,train
529.0970802307129,5,3,0,2,1,4,H+,1,2,3,0,1000,250.0,2,E04OM,205,train
689.0897750854492,5,3,0,2,1,4,H+,1,1,4,0,1000,250.0,1,E04OM,206,train
801.1550903320312,5,3,0,2,1,4,H+,1,2,3,0,1000,250.0,2,E04OM,207,train
545.0389385223389,5,3,0,2,1,4,H+,1,3,1,0,1000,250.0,3,E04OM,208,train
816.9739246368408,5,3,0,2,1,4,H+,1,4,5,0,1000,250.0,4,E04OM,209,train
417.0668125152588,5,3,0,2,1,4,H+,1,4,5,0,1000,250.0,4,E04OM,210,train
545.0830459594727,5,3,0,2,1,4,H+,1,5,0,0,1000,250.0,5,E04OM,211,train
593.1351184844971,5,3,0,2,1,4,H+,0,3,1,0,1000,250.0,2,E04OM,212,train
657.0029258728027,5,3,0,2,1,4,H+,1,0,2,0,1000,250.0,0,E04OM,213,train
592.954158782959,5,3,0,2,1,4,H+,1,5,0,0,1000,250.0,5,E04OM,214,train
593.040943145752,5,3,0,2,1,4,H+,1,2,3,0,1000,250.0,2,E04OM,215,train
689.1999244689941,5,3,0,2,1,4,H+,1,1,4,0,1000,250.0,1,E04OM,216,train
577.1090984344482,5,3,0,2,1,4,H+,1,5,0,0,1000,250.0,5,E04OM,217,train
577.0740509033203,5,3,0,2,1,4,H+,0,2,3,0,1000,250.0,4,E04OM,218,train
609.1091632843018,5,3,0,2,1,4,H+,1,4,5,0,1000,250.0,4,E04OM,219,train
592.9601192474365,5,3,0,2,1,4,H+,1,2,3,0,1000,250.0,2,E04OM,220,train
545.072078704834,5,3,0,2,1,4,H+,1,4,5,0,1000,250.0,4,E04OM,221,train
513.0190849304199,5,3,0,2,1,4,H+,1,4,5,0,1000,250.0,4,E04OM,222,train
609.1349124908447,5,3,0,2,1,4,H+,0,1,4,0,1000,250.0,0,E04OM,223,train
497.1599578857422,5,3,0,2,1,4,H+,1,1,4,0,1000,250.0,1,E04OM,224,train
672.929048538208,5,3,0,2,1,4,H+,1,4,5,0,1000,250.0,4,E04OM,225,train
593.0180549621582,5,3,0,2,1,4,H+,1,0,2,0,1000,250.0,0,E04OM,226,train
609.0588569641113,5,3,0,2,1,4,H+,1,4,5,0,1000,250.0,4,E04OM,227,train
545.0987815856934,5,3,0,2,1,4,H+,1,4,5,0,1000,250.0,4,E04OM,228,train
849.1590023040771,5,3,0,2,1,4,H+,1,5,0,0,1000,250.0,5,E04OM,229,train
481.0619354248047,5,3,0,2,1,4,H+,1,5,0,0,1000,250.0,5,E04OM,230,train
640.995979309082,5,3,0,2,1,4,H+,1,0,2,0,1000,250.0,0,E04OM,231,train
721.1258411407471,5,3,0,2,1,4,H+,1,2,3,0,1000,250.0,2,E04OM,232,train
593.095064163208,5,3,0,2,1,4,H+,1,4,5,0,1000,250.0,4,E04OM,233,train
785.0220203399658,5,3,0,2,1,4,H+,1,3,1,0,1000,250.0,3,E04OM,234,train
785.0749492645264,5,3,0,2,1,4,H+,1,5,0,0,1000,250.0,5,E04OM,235,train
705.1570415496826,5,3,0,2,1,4,H+,1,2,3,0,1000,250.0,2,E04OM,236,train
656.9068431854248,5,3,0,2,1,4,H+,1,4,5,0,1000,250.0,4,E04OM,237,train
657.1540832519531,5,3,0,2,1,4,H+,1,1,4,0,1000,250.0,1,E04OM,238,train
625.0879764556885,5,3,0,2,1,4,H+,1,0,2,0,1000,250.0,0,E04OM,239,train
720.8869457244873,5,3,0,2,1,4,H+,1,3,1,0,1000,250.0,3,E04OM,240,train
641.03102684021,5,3,0,2,1,4,H+,1,3,1,0,1000,250.0,3,E04OM,241,train
641.049861907959,5,3,0,2,1,4,H+,1,0,2,0,1000,250.0,0,E04OM,242,train
769.0410614013672,5,3,0,2,1,4,H+,1,2,3,0,1000,250.0,2,E04OM,243,train
625.0479221343994,5,3,0,2,1,4,H+,1,0,2,0,1000,250.0,0,E04OM,244,train
481.0779094696045,5,3,0,2,1,4,H+,1,0,2,0,1000,250.0,0,E04OM,245,train
689.1090869903564,5,3,0,2,1,4,H+,1,2,3,0,1000,250.0,2,E04OM,246,train
657.0169925689697,5,3,0,2,1,4,H+,1,5,0,0,1000,250.0,5,E04OM,247,train
1105.1881313323975,5,3,0,2,1,4,H+,1,3,1,0,1000,250.0,3,E04OM,248,train
705.0747871398926,5,3,0,2,1,4,H+,1,1,4,0,1000,250.0,1,E04OM,249,train
1552.609920501709,5,3,0,2,1,4,H+,1,1,4,0,1000,250.0,1,E04OM,250,test
848.5348224639893,5,3,0,2,1,4,H+,1,1,4,0,1000,250.0,1,E04OM,251,test
1040.6370162963867,5,3,0,2,1,4,H+,1,5,0,0,1000,250.0,5,E04OM,252,test
576.6119956970215,5,3,0,2,1,4,H+,1,5,0,0,1000,250.0,5,E04OM,253,test
896.5270519256592,5,3,0,2,1,4,H+,1,2,3,0,1000,250.0,2,E04OM,254,test
656.7091941833496,5,3,0,2,1,4,H+,1,0,2,0,1000,250.0,0,E04OM,255,test
1408.6830615997314,5,3,0,2,1,4,H+,1,5,0,0,1000,250.0,5,E04OM,256,test
752.7198791503906,5,3,0,2,1,4,H+,1,3,1,0,1000,250.0,3,E04OM,257,test
624.6140003204346,5,3,0,2,1,4,H+,1,1,4,0,1000,250.0,1,E04OM,258,test
576.671838760376,5,3,0,2,1,4,H+,1,4,5,0,1000,250.0,4,E04OM,259,test
496.6599941253662,5,3,0,2,1,4,H+,1,4,5,0,1000,250.0,4,E04OM,260,test
688.6041164398193,5,3,0,2,1,4,H+,1,1,4,0,1000,250.0,1,E04OM,261,test
816.5948390960693,5,3,0,2,1,4,H+,0,2,3,0,1000,250.0,3,E04OM,262,test
560.5599880218506,5,3,0,2,1,4,H+,0,3,1,0,1000,250.0,4,E04OM,263,test
496.61993980407715,5,3,0,2,1,4,H+,1,3,1,0,1000,250.0,3,E04OM,264,test
608.5190773010254,5,3,0,2,1,4,H+,0,2,3,0,1000,250.0,1,E04OM,265,test
832.6561450958252,5,3,0,2,1,4,H+,1,3,1,0,1000,250.0,3,E04OM,266,test
496.51503562927246,5,3,0,2,1,4,H+,1,3,1,0,1000,250.0,3,E04OM,267,test
384.6468925476074,5,3,0,2,1,4,H+,1,3,1,0,1000,250.0,3,E04OM,268,test
1424.54195022583,5,3,0,2,1,4,H+,1,5,0,0,1000,250.0,5,E04OM,269,test
560.4538917541504,5,3,0,2,1,4,H+,1,5,0,0,1000,250.0,5,E04OM,270,test
768.5918807983398,5,3,0,2,1,4,H+,1,2,3,0,1000,250.0,2,E04OM,271,test
560.5709552764893,5,3,0,2,1,4,H+,1,3,1,0,1000,250.0,3,E04OM,272,test
384.5970630645752,5,3,0,2,1,4,H+,1,3,1,0,1000,250.0,3,E04OM,273,test
608.5929870605469,5,3,0,2,1,4,H+,1,1,4,0,1000,250.0,1,E04OM,274,test
656.5430164337158,5,3,0,2,1,4,H+,1,5,0,0,1000,250.0,5,E04OM,275,test
720.4399108886719,5,3,0,2,1,4,H+,1,1,4,0,1000,250.0,1,E04OM,276,test
640.6550407409668,5,3,0,2,1,4,H+,0,2,3,0,1000,250.0,3,E04OM,277,test
464.68114852905273,5,3,0,2,1,4,H+,1,3,1,0,1000,250.0,3,E04OM,278,test
608.6239814758301,5,3,0,2,1,4,H+,1,0,2,0,1000,250.0,0,E04OM,279,test
800.584077835083,5,3,0,2,1,4,H+,1,5,0,0,1000,250.0,5,E04OM,280,test
528.5360813140869,5,3,0,2,1,4,H+,1,0,2,0,1000,250.0,0,E04OM,281,test
672.6319789886475,5,3,0,2,1,4,H+,1,4,5,0,1000,250.0,4,E04OM,282,test
512.5770568847656,5,3,0,2,1,4,H+,1,0,2,0,1000,250.0,0,E04OM,283,test
560.4791641235352,5,3,0,2,1,4,H+,1,1,4,0,1000,250.0,1,E04OM,284,test
576.5390396118164,5,3,0,2,1,4,H+,1,3,1,0,1000,250.0,3,E04OM,285,test
656.6078662872314,5,3,0,2,1,4,H+,0,2,3,0,1000,250.0,1,E04OM,286,test
608.4737777709961,5,3,0,2,1,4,H+,1,0,2,0,1000,250.0,0,E04OM,287,test
640.484094619751,5,3,0,2,1,4,H+,1,4,5,0,1000,250.0,4,E04OM,288,test
576.4989852905273,5,3,0,2,1,4,H+,1,4,5,0,1000,250.0,4,E04OM,289,test
480.3290367126465,5,3,0,2,1,4,H+,1,4,5,0,1000,250.0,4,E04OM,290,test
640.5680179595947,5,3,0,2,1,4,H+,1,0,2,0,1000,250.0,0,E04OM,291,test
912.621021270752,5,3,0,2,1,4,H+,1,5,0,0,1000,250.0,5,E04OM,292,test
576.6069889068604,5,3,0,2,1,4,H+,1,2,3,0,1000,250.0,2,E04OM,293,test
656.512975692749,5,3,0,2,1,4,H+,1,1,4,0,1000,250.0,1,E04OM,294,test
640.5408382415771,5,3,0,2,1,4,H+,1,4,5,0,1000,250.0,4,E04OM,295,test
688.6639595031738,5,3,0,2,1,4,H+,1,3,1,0,1000,250.0,3,E04OM,296,test
608.687162399292,5,3,0,2,1,4,H+,1,1,4,0,1000,250.0,1,E04OM,297,test
576.6768455505371,5,3,0,2,1,4,H+,1,4,5,0,1000,250.0,4,E04OM,298,test
640.5279636383057,5,3,0,2,1,4,H+,1,4,5,0,1000,250.0,4,E04OM,299,test
528.6600589752197,5,3,0,2,1,4,H+,1,4,5,0,1000,250.0,4,E04OM,300,test
560.615062713623,5,3,0,2,1,4,H+,1,4,5,0,1000,250.0,4,E04OM,301,test
608.6180210113525,5,3,0,2,1,4,H+,1,5,0,0,1000,250.0,5,E04OM,302,test
624.5810985565186,5,3,0,2,1,4,H+,1,5,0,0,1000,250.0,5,E04OM,303,test
640.2668952941895,5,3,0,2,1,4,H+,1,1,4,0,1000,250.0,1,E04OM,304,test
960.5860710144043,5,3,0,2,1,4,H+,1,2,3,0,1000,250.0,2,E04OM,305,test
608.5798740386963,5,3,0,2,1,4,H+,1,1,4,0,1000,250.0,1,E04OM,306,test
640.5751705169678,5,3,0,2,1,4,H+,1,4,5,0,1000,250.0,4,E04OM,307,test
720.587968826294,5,3,0,2,1,4,H+,1,3,1,0,1000,250.0,3,E04OM,308,test
624.5090961456299,5,3,0,2,1,4,H+,1,0,2,0,1000,250.0,0,E04OM,309,test
592.5369262695312,5,3,0,2,1,4,H+,1,4,5,0,1000,250.0,4,E04OM,310,test
592.534065246582,5,3,0,2,1,4,H+,1,1,4,0,1000,250.0,1,E04OM,311,test
704.5609951019287,5,3,0,2,1,4,H+,1,2,3,0,1000,250.0,2,E04OM,312,test
496.5388774871826,5,3,0,2,1,4,H+,0,2,3,0,1000,250.0,1,E04OM,313,test
608.5939407348633,5,3,0,2,1,4,H+,1,1,4,0,1000,250.0,1,E04OM,314,test
736.598014831543,5,3,0,2,1,4,H+,1,2,3,0,1000,250.0,2,E04OM,315,test
576.2779712677002,5,3,0,2,1,4,H+,1,0,2,0,1000,250.0,0,E04OM,316,test
1248.5520839691162,5,3,0,2,1,4,H+,1,2,3,0,1000,250.0,2,E04OM,317,test
608.6111068725586,5,3,0,2,1,4,H+,1,0,2,0,1000,250.0,0,E04OM,318,test
880.6111812591553,5,3,0,2,1,4,H+,1,5,0,0,1000,250.0,5,E04OM,319,test
544.5849895477295,5,3,0,2,1,4,H+,1,5,0,0,1000,250.0,5,E04OM,320,test
992.5439357757568,5,3,0,2,1,4,H+,1,2,3,0,1000,250.0,2,E04OM,321,test
560.6629848480225,5,3,0,2,1,4,H+,1,2,3,0,1000,250.0,2,E04OM,322,test
448.3799934387207,5,3,0,2,1,4,H+,1,2,3,0,1000,250.0,2,E04OM,323,test
624.6209144592285,5,3,0,2,1,4,H+,1,4,5,0,1000,250.0,4,E04OM,324,test
592.642068862915,5,3,0,2,1,4,H+,1,0,2,0,1000,250.0,0,E04OM,325,test
512.5970840454102,5,3,0,2,1,4,H+,1,0,2,0,1000,250.0,0,E04OM,326,test
656.5759181976318,5,3,0,2,1,4,H+,1,3,1,0,1000,250.0,3,E04OM,327,test
624.6299743652344,5,3,0,2,1,4,H+,1,5,0,0,1000,250.0,5,E04OM,328,test
720.6017971038818,5,3,0,2,1,4,H+,1,0,2,0,1000,250.0,0,E04OM,329,test
784.6930027008057,5,3,0,2,1,4,H+,1,5,0,0,1000,250.0,5,E04OM,330,test
608.6280345916748,5,3,0,2,1,4,H+,1,2,3,0,1000,250.0,2,E04OM,331,test
528.6760330200195,5,3,0,2,1,4,H+,1,5,0,0,1000,250.0,5,E04OM,332,test
512.6359462738037,5,3,0,2,1,4,H+,1,5,0,0,1000,250.0,5,E04OM,333,test
656.6581726074219,5,3,0,2,1,4,H+,1,1,4,0,1000,250.0,1,E04OM,334,test
576.6658782958984,5,3,0,2,1,4,H+,1,2,3,0,1000,250.0,2,E04OM,335,test
528.6519527435303,5,3,0,2,1,4,H+,1,1,4,0,1000,250.0,1,E04OM,336,test
688.572883605957,5,3,0,2,1,4,H+,1,0,2,0,1000,250.0,0,E04OM,337,test
704.6549320220947,5,3,0,2,1,4,H+,1,3,1,0,1000,250.0,3,E04OM,338,test
512.5741958618164,5,3,0,2,1,4,H+,1,1,4,0,1000,250.0,1,E04OM,339,test
608.7000370025635,5,3,0,2,1,4,H+,1,3,1,0,1000,250.0,3,E04OM,340,test
432.589054107666,5,3,0,2,1,4,H+,1,4,5,0,1000,250.0,4,E04OM,341,test
528.6829471588135,5,3,0,2,1,4,H+,0,1,4,0,1000,250.0,2,E04OM,342,test
640.6519412994385,5,3,0,2,1,4,H+,1,2,3,0,1000,250.0,2,E04OM,343,test
624.6278285980225,5,3,0,2,1,4,H+,1,4,5,0,1000,250.0,4,E04OM,344,test
544.5051193237305,5,3,0,2,1,4,H+,1,0,2,0,1000,250.0,0,E04OM,345,test
640.5730247497559,5,3,0,2,1,4,H+,1,4,5,0,1000,250.0,4,E04OM,346,test
608.5538864135742,5,3,0,2,1,4,H+,1,3,1,0,1000,250.0,3,E04OM,347,test
640.4969692230225,5,3,0,2,1,4,H+,1,4,5,0,1000,250.0,4,E04OM,348,test
576.6448974609375,5,3,0,2,1,4,H+,1,0,2,0,1000,250.0,0,E04OM,349,test
576.545000076294,5,3,0,2,1,4,H+,1,4,5,0,1000,250.0,4,E04OM,350,test
640.4800415039062,5,3,0,2,1,4,H+,1,1,4,0,1000,250.0,1,E04OM,351,test
592.5610065460205,5,3,0,2,1,4,H+,1,3,1,0,1000,250.0,3,E04OM,352,test
544.5668697357178,5,3,0,2,1,4,H+,0,2,3,0,1000,250.0,1,E04OM,353,test
528.5599231719971,5,3,0,2,1,4,H+,1,2,3,0,1000,250.0,2,E04OM,354,test
592.4570560455322,5,3,0,2,1,4,H+,1,5,0,0,1000,250.0,5,E04OM,355,test
560.5449676513672,5,3,0,2,1,4,H+,1,1,4,0,1000,250.0,1,E04OM,356,test
560.5778694152832,5,3,0,2,1,4,H+,1,3,1,0,1000,250.0,3,E04OM,357,test
640.5391693115234,5,3,0,2,1,4,H+,1,1,4,0,1000,250.0,1,E04OM,358,test
672.2850799560547,5,3,0,2,1,4,H+,1,5,0,0,1000,250.0,5,E04OM,359,test
528.5820960998535,5,3,0,2,1,4,H+,1,3,1,0,1000,250.0,3,E04OM,360,test
496.9139099121094,5,3,0,2,1,4,H+,1,3,1,0,1000,250.0,3,E04OM,361,test
960.7248306274414,5,3,0,2,1,4,H+,1,5,0,0,1000,250.0,5,E04OM,362,test
528.7470817565918,5,3,0,2,1,4,H+,1,3,1,0,1000,250.0,3,E04OM,363,test
432.96313285827637,5,3,0,2,1,4,H+,1,3,1,0,1000,250.0,3,E04OM,364,test
656.9879055023193,5,3,0,2,1,4,H+,1,0,2,0,1000,250.0,0,E04OM,365,test
672.6009845733643,5,3,0,2,1,4,H+,1,2,3,0,1000,250.0,2,E04OM,366,test
641.0040855407715,5,3,0,2,1,4,H+,1,0,2,0,1000,250.0,0,E04OM,367,test
640.9239768981934,5,3,0,2,1,4,H+,1,5,0,0,1000,250.0,5,E04OM,368,test
768.8570022583008,5,3,0,2,1,4,H+,1,4,5,0,1000,250.0,4,E04OM,369,test
673.119068145752,5,3,0,2,1,4,H+,1,1,4,0,1000,250.0,1,E04OM,370,test
497.12681770324707,5,3,0,2,1,4,H+,1,1,4,0,1000,250.0,1,E04OM,371,test
497.0579147338867,5,3,0,2,1,4,H+,1,1,4,0,1000,250.0,1,E04OM,372,test
625.1258850097656,5,3,0,2,1,4,H+,1,0,2,0,1000,250.0,0,E04OM,373,test
545.0420379638672,5,3,0,2,1,4,H+,1,1,4,0,1000,250.0,1,E04OM,374,test
641.1170959472656,5,3,0,2,1,4,H+,1,0,2,0,1000,250.0,0,E04OM,375,test
913.0439758300781,5,3,0,2,1,4,H+,1,2,3,0,1000,250.0,2,E04OM,376,test
513.0388736724854,5,3,0,2,1,4,H+,1,1,4,0,1000,250.0,1,E04OM,377,test
481.0681343078613,5,3,0,2,1,4,H+,1,1,4,0,1000,250.0,1,E04OM,378,test
593.0781364440918,5,3,0,2,1,4,H+,1,3,1,0,1000,250.0,3,E04OM,379,test
512.9611492156982,5,3,0,2,1,4,H+,1,3,1,0,1000,250.0,3,E04OM,380,test
609.0528964996338,5,3,0,2,1,4,H+,1,0,2,0,1000,250.0,0,E04OM,381,test
657.0031642913818,5,3,0,2,1,4,H+,1,1,4,0,1000,250.0,1,E04OM,382,test
512.9120349884033,5,3,0,2,1,4,H+,0,4,5,0,1000,250.0,5,E04OM,383,test
609.0600490570068,5,3,0,2,1,4,H+,1,1,4,0,1000,250.0,1,E04OM,384,test
592.9419994354248,5,3,0,2,1,4,H+,1,0,2,0,1000,250.0,0,E04OM,385,test
577.0399570465088,5,3,0,2,1,4,H+,1,3,1,0,1000,250.0,3,E04OM,386,test
609.1020107269287,5,3,0,2,1,4,H+,1,0,2,0,1000,250.0,0,E04OM,387,test
528.9859771728516,5,3,0,2,1,4,H+,1,3,1,0,1000,250.0,3,E04OM,388,test
560.7879161834717,5,3,0,2,1,4,H+,1,0,2,0,1000,250.0,0,E04OM,389,test
465.0688171386719,5,3,0,2,1,4,H+,1,0,2,0,1000,250.0,0,E04OM,390,test
480.99303245544434,5,3,0,2,1,4,H+,1,0,2,0,1000,250.0,0,E04OM,391,test
657.1159362792969,5,3,0,2,1,4,H+,1,2,3,0,1000,250.0,2,E04OM,392,test
529.0679931640625,5,3,0,2,1,4,H+,1,1,4,0,1000,250.0,1,E04OM,393,test
513.1280422210693,5,3,0,2,1,4,H+,0,1,4,0,1000,250.0,2,E04OM,394,test
641.1459445953369,5,3,0,2,1,4,H+,1,0,2,0,1000,250.0,0,E04OM,395,test
481.1580181121826,5,3,0,2,1,4,H+,1,0,2,0,1000,250.0,0,E04OM,396,test
625.1430511474609,5,3,0,2,1,4,H+,1,3,1,0,1000,250.0,3,E04OM,397,test
593.1079387664795,5,3,0,2,1,4,H+,1,0,2,0,1000,250.0,0,E04OM,398,test
817.0790672302246,5,3,0,2,1,4,H+,1,2,3,0,1000,250.0,2,E04OM,399,test
753.0910968780518,5,3,0,2,1,4,H+,0,5,0,0,1000,250.0,4,E04OM,400,test
576.9920349121094,5,3,0,2,1,4,H+,1,4,5,0,1000,250.0,4,E04OM,401,test
561.1748695373535,5,3,0,2,1,4,H+,1,3,1,0,1000,250.0,3,E04OM,402,test
753.1092166900635,5,3,0,2,1,4,H+,1,1,4,0,1000,250.0,1,E04OM,403,test
641.0551071166992,5,3,0,2,1,4,H+,1,3,1,0,1000,250.0,3,E04OM,404,test
609.0109348297119,5,3,0,2,1,4,H+,1,4,5,0,1000,250.0,4,E04OM,405,test
545.0289249420166,5,3,0,2,1,4,H+,1,0,2,0,1000,250.0,0,E04OM,406,test
769.1130638122559,5,3,0,2,1,4,H+,1,3,1,0,1000,250.0,3,E04OM,407,test
625.1070499420166,5,3,0,2,1,4,H+,1,0,2,0,1000,250.0,0,E04OM,408,test
609.0860366821289,5,3,0,2,1,4,H+,1,4,5,0,1000,250.0,4,E04OM,409,test
561.0940456390381,5,3,0,2,1,4,H+,1,5,0,0,1000,250.0,5,E04OM,410,test
593.1379795074463,5,3,0,2,1,4,H+,1,5,0,0,1000,250.0,5,E04OM,411,test
449.0518569946289,5,3,0,2,1,4,H+,1,5,0,0,1000,250.0,5,E04OM,412,test
561.0709190368652,5,3,0,2,1,4,H+,1,1,4,0,1000,250.0,1,E04OM,413,test
705.0590515136719,5,3,0,2,1,4,H+,1,5,0,0,1000,250.0,5,E04OM,414,test
785.1591110229492,5,3,0,2,1,4,H+,1,2,3,0,1000,250.0,2,E04OM,415,test
497.0710277557373,5,3,0,2,1,4,H+,1,0,2,0,1000,250.0,0,E04OM,416,test
609.0338230133057,5,3,0,2,1,4,H+,1,2,3,0,1000,250.0,2,E04OM,417,test
577.160120010376,5,3,0,2,1,4,H+,1,0,2,0,1000,250.0,0,E04OM,418,test
673.0821132659912,5,3,0,2,1,4,H+,1,2,3,0,1000,250.0,2,E04OM,419,test
608.9918613433838,5,3,0,2,1,4,H+,1,3,1,0,1000,250.0,3,E04OM,420,test
576.6370296478271,5,3,0,2,1,4,H+,1,4,5,0,1000,250.0,4,E04OM,421,test
400.6781578063965,5,3,0,2,1,4,H+,1,4,5,0,1000,250.0,4,E04OM,422,test
560.6348514556885,5,3,0,2,1,4,H+,1,3,1,0,1000,250.0,3,E04OM,423,test
576.5900611877441,5,3,0,2,1,4,H+,1,3,1,0,1000,250.0,3,E04OM,424,test
1104.551076889038,5,3,0,2,1,4,H+,1,2,3,0,1000,250.0,2,E04OM,425,test
608.2441806793213,5,3,0,2,1,4,H+,1,1,4,0,1000,250.0,1,E04OM,426,test
656.6839218139648,5,3,0,2,1,4,H+,1,5,0,0,1000,250.0,5,E04OM,427,test
400.6171226501465,5,3,0,2,1,4,H+,1,4,5,0,1000,250.0,4,E04OM,428,test
592.6661491394043,5,3,0,2,1,4,H+,1,5,0,0,1000,250.0,5,E04OM,429,test
576.7011642456055,5,3,0,2,1,4,H+,1,4,5,0,1000,250.0,4,E04OM,430,test
592.6961898803711,5,3,0,2,1,4,H+,1,3,1,0,1000,250.0,3,E04OM,431,test
416.58687591552734,5,3,0,2,1,4,H+,1,3,1,0,1000,250.0,3,E04OM,432,test
592.5350189208984,5,3,0,2,1,4,H+,1,0,2,0,1000,250.0,0,E04OM,433,test
592.656135559082,5,3,0,2,1,4,H+,1,5,0,0,1000,250.0,5,E04OM,434,test
608.590841293335,5,3,0,2,1,4,H+,1,2,3,0,1000,250.0,2,E04OM,435,test
592.6539897918701,5,3,0,2,1,4,H+,1,4,5,0,1000,250.0,4,E04OM,436,test
608.6671352386475,5,3,0,2,1,4,H+,1,5,0,0,1000,250.0,5,E04OM,437,test
592.6787853240967,5,3,0,2,1,4,H+,1,0,2,0,1000,250.0,0,E04OM,438,test
560.6241226196289,5,3,0,2,1,4,H+,1,0,2,0,1000,250.0,0,E04OM,439,test
560.7249736785889,5,3,0,2,1,4,H+,1,4,5,0,1000,250.0,4,E04OM,440,test
384.6778869628906,5,3,0,2,1,4,H+,1,1,4,0,1000,250.0,1,E04OM,441,test
800.4968166351318,5,3,0,2,1,4,H+,1,5,0,0,1000,250.0,5,E04OM,442,test
720.674991607666,5,3,0,2,1,4,H+,0,5,0,0,1000,250.0,4,E04OM,443,test
640.6528949737549,5,3,0,2,1,4,H+,1,1,4,0,1000,250.0,1,E04OM,444,test
624.5009899139404,5,3,0,2,1,4,H+,1,3,1,0,1000,250.0,3,E04OM,445,test
624.6280670166016,5,3,0,2,1,4,H+,1,0,2,0,1000,250.0,0,E04OM,446,test
560.5690479278564,5,3,0,2,1,4,H+,1,4,5,0,1000,250.0,4,E04OM,447,test
544.5690155029297,5,3,0,2,1,4,H+,1,3,1,0,1000,250.0,3,E04OM,448,test
1072.6170539855957,5,3,0,2,1,4,H+,1,5,0,0,1000,250.0,5,E04OM,449,test
624.5870590209961,5,3,0,2,1,4,H+,1,1,4,0,1000,250.0,1,E04OM,450,test
592.5259590148926,5,3,0,2,1,4,H+,1,4,5,0,1000,250.0,4,E04OM,451,test
592.6370620727539,5,3,0,2,1,4,H+,1,2,3,0,1000,250.0,2,E04OM,452,test
400.6350040435791,5,3,0,2,1,4,H+,1,2,3,0,1000,250.0,2,E04OM,453,test
512.6581192016602,5,3,0,2,1,4,H+,0,5,0,0,1000,250.0,4,E04OM,454,test
624.737024307251,5,3,0,2,1,4,H+,0,3,1,0,1000,250.0,2,E04OM,455,test
976.7031669616699,5,3,0,2,1,4,H+,1,5,0,0,1000,250.0,5,E04OM,456,test
592.5869941711426,5,3,0,2,1,4,H+,1,2,3,0,1000,250.0,2,E04OM,457,test
656.6660404205322,5,3,0,2,1,4,H+,0,3,1,0,1000,250.0,4,E04OM,458,test
560.675859451294,5,3,0,2,1,4,H+,1,0,2,0,1000,250.0,0,E04OM,459,test
608.5400581359863,5,3,0,2,1,4,H+,1,4,5,0,1000,250.0,4,E04OM,460,test
848.7169742584229,5,3,0,2,1,4,H+,1,4,5,0,1000,250.0,4,E04OM,461,test
1296.6878414154053,5,3,0,2,1,4,H+,1,5,0,0,1000,250.0,5,E04OM,462,test
1328.6030292510986,5,3,0,2,1,4,H+,1,5,0,0,1000,250.0,5,E04OM,463,test
1168.6131954193115,5,3,0,2,1,4,H+,1,2,3,0,1000,250.0,2,E04OM,464,test
464.5960330963135,5,3,0,2,1,4,H+,1,2,3,0,1000,250.0,2,E04OM,465,test
624.6531009674072,5,3,0,2,1,4,H+,1,3,1,0,1000,250.0,3,E04OM,466,test
432.65509605407715,5,3,0,2,1,4,H+,1,3,1,0,1000,250.0,3,E04OM,467,test
976.6888618469238,5,3,0,2,1,4,H+,1,5,0,0,1000,250.0,5,E04OM,468,test
640.6159400939941,5,3,0,2,1,4,H+,1,0,2,0,1000,250.0,0,E04OM,469,test
480.5881977081299,5,3,0,2,1,4,H+,1,0,2,0,1000,250.0,0,E04OM,470,test
656.7010879516602,5,3,0,2,1,4,H+,1,5,0,0,1000,250.0,5,E04OM,471,test
560.589075088501,5,3,0,2,1,4,H+,1,0,2,0,1000,250.0,0,E04OM,472,test
640.6819820404053,5,3,0,2,1,4,H+,1,2,3,0,1000,250.0,2,E04OM,473,test
608.6428165435791,5,3,0,2,1,4,H+,1,5,0,0,1000,250.0,5,E04OM,474,test
672.6391315460205,5,3,0,2,1,4,H+,1,4,5,0,1000,250.0,4,E04OM,475,test
592.6179885864258,5,3,0,2,1,4,H+,1,0,2,0,1000,250.0,0,E04OM,476,test
592.6709175109863,5,3,0,2,1,4,H+,1,5,0,0,1000,250.0,5,E04OM,477,test
576.218843460083,5,3,0,2,1,4,H+,1,1,4,0,1000,250.0,1,E04OM,478,test
753.028154373169,5,3,0,2,1,4,H+,1,2,3,0,1000,250.0,2,E04OM,479,test
1392.8570747375488,5,3,0,2,1,4,H+,1,2,3,0,1000,250.0,2,E04OM,480,test
593.0290222167969,5,3,0,2,1,4,H+,1,0,2,0,1000,250.0,0,E04OM,481,test
657.0990085601807,5,3,0,2,1,4,H+,1,3,1,0,1000,250.0,3,E04OM,482,test
593.0488109588623,5,3,0,2,1,4,H+,1,0,2,0,1000,250.0,0,E04OM,483,test
609.0810298919678,5,3,0,2,1,4,H+,1,5,0,0,1000,250.0,5,E04OM,484,test
1489.1271591186523,5,3,0,2,1,4,H+,1,2,3,0,1000,250.0,2,E04OM,485,test
833.1320285797119,5,3,0,2,1,4,H+,1,4,5,0,1000,250.0,4,E04OM,486,test
849.1549491882324,5,3,0,2,1,4,H+,1,3,1,0,1000,250.0,3,E04OM,487,test
625.0209808349609,5,3,0,2,1,4,H+,1,0,2,0,1000,250.0,0,E04OM,488,test
529.0100574493408,5,3,0,2,1,4,H+,1,3,1,0,1000,250.0,3,E04OM,489,test
529.1538238525391,5,3,0,2,1,4,H+,1,3,1,0,1000,250.0,3,E04OM,490,test
609.130859375,5,3,0,2,1,4,H+,1,0,2,0,1000,250.0,0,E04OM,491,test
689.115047454834,5,3,0,2,1,4,H+,1,4,5,0,1000,250.0,4,E04OM,492,test
577.1021842956543,5,3,0,2,1,4,H+,1,0,2,0,1000,250.0,0,E04OM,493,test
593.1060314178467,5,3,0,2,1,4,H+,1,4,5,0,1000,250.0,4,E04OM,494,test
529.0210247039795,5,3,0,2,1,4,H+,1,3,1,0,1000,250.0,3,E04OM,495,test
576.5409469604492,5,3,0,2,1,4,H+,1,0,2,0,1000,250.0,0,E04OM,496,test
640.6538486480713,5,3,0,2,1,4,H+,1,5,0,0,1000,250.0,5,E04OM,497,test
560.7340335845947,5,3,0,2,1,4,H+,1,3,1,0,1000,250.0,3,E04OM,498,test
576.6890048980713,5,3,0,2,1,4,H+,1,1,4,0,1000,250.0,1,E04OM,499,test
