RT,SRmap_0,SRmap_1,SRmap_2,SRmap_3,SRmap_4,SRmap_5,condition,correct,correct_response,curstim,ms-precue,ms-prestimblank,ntrials,response,subject,trial,type
2378.3199787139893,5,0,2,4,1,3,E-,1,3,5,400,600,250.0,3,cc28kn,0,train
1194.762945175171,5,0,2,4,1,3,E-,1,1,4,400,600,250.0,1,cc28kn,1,train
122.9701042175293,5,0,2,4,1,3,E-,1,0,1,400,600,250.0,0,cc28kn,2,train
1963.0889892578125,5,0,2,4,1,3,E-,1,1,4,400,600,250.0,1,cc28kn,3,train
553.577184677124,5,0,2,4,1,3,E-,0,4,3,400,600,250.0,5,cc28kn,4,train
426.95116996765137,5,0,2,4,1,3,E-,1,4,3,400,600,250.0,4,cc28kn,5,train
970.8459377288818,5,0,2,4,1,3,E-,1,2,2,400,600,250.0,2,cc28kn,6,train
282.82904624938965,5,0,2,4,1,3,E-,1,5,0,400,600,250.0,5,cc28kn,7,train
331.0081958770752,5,0,2,4,1,3,E-,1,4,3,400,600,250.0,4,cc28kn,8,train
138.81611824035645,5,0,2,4,1,3,E-,1,2,2,400,600,250.0,2,cc28kn,9,train
234.69305038452148,5,0,2,4,1,3,E-,1,2,2,400,600,250.0,2,cc28kn,10,train
138.5061740875244,5,0,2,4,1,3,E-,0,3,5,400,600,250.0,2,cc28kn,11,train
154.09588813781738,5,0,2,4,1,3,E-,1,2,2,400,600,250.0,2,cc28kn,12,train
91.78996086120605,5,0,2,4,1,3,E-,1,3,5,400,600,250.0,3,cc28kn,13,train
216.42804145812988,5,0,2,4,1,3,E-,1,0,1,400,600,250.0,0,cc28kn,14,train
266.646146774292,5,0,2,4,1,3,E-,1,2,2,400,600,250.0,2,cc28kn,15,train
170.73988914489746,5,0,2,4,1,3,E-,1,5,0,400,600,250.0,5,cc28kn,16,train
155.03406524658203,5,0,2,4,1,3,E-,1,3,5,400,600,250.0,3,cc28kn,17,train
170.79591751098633,5,0,2,4,1,3,E-,1,0,1,400,600,250.0,0,cc28kn,18,train
154.59394454956055,5,0,2,4,1,3,E-,1,5,0,400,600,250.0,5,cc28kn,19,train
91.0348892211914,5,0,2,4,1,3,E-,1,3,5,400,600,250.0,3,cc28kn,20,train
266.89815521240234,5,0,2,4,1,3,E-,1,4,3,400,600,250.0,4,cc28kn,21,train
139.05811309814453,5,0,2,4,1,3,E-,1,0,1,400,600,250.0,0,cc28kn,22,train
186.93900108337402,5,0,2,4,1,3,E-,1,5,0,400,600,250.0,5,cc28kn,23,train
570.5990791320801,5,0,2,4,1,3,E-,0,3,5,400,600,250.0,2,cc28kn,24,train
363.008975982666,5,0,2,4,1,3,E-,1,4,3,400,600,250.0,4,cc28kn,25,train
122.6499080657959,5,0,2,4,1,3,E-,0,3,5,400,600,250.0,2,cc28kn,26,train
106.97412490844727,5,0,2,4,1,3,E-,1,5,0,400,600,250.0,5,cc28kn,27,train
107.09595680236816,5,0,2,4,1,3,E-,0,3,5,400,600,250.0,2,cc28kn,28,train
474.9109745025635,5,0,2,4,1,3,E-,1,1,4,400,600,250.0,1,cc28kn,29,train
26.875019073486328,5,0,2,4,1,3,E-,1,2,2,400,600,250.0,2,cc28kn,30,train
58.71987342834473,5,0,2,4,1,3,E-,1,0,1,400,600,250.0,0,cc28kn,31,train
169.60597038269043,5,0,2,4,1,3,E-,1,2,2,400,600,250.0,2,cc28kn,32,train
74.65982437133789,5,0,2,4,1,3,E-,1,0,1,400,600,250.0,0,cc28kn,33,train
138.72194290161133,5,0,2,4,1,3,E-,1,3,5,400,600,250.0,3,cc28kn,34,train
106.7349910736084,5,0,2,4,1,3,E-,1,5,0,400,600,250.0,5,cc28kn,35,train
106.43982887268066,5,0,2,4,1,3,E-,1,1,4,400,600,250.0,1,cc28kn,36,train
794.6488857269287,5,0,2,4,1,3,E-,1,4,3,400,600,250.0,4,cc28kn,37,train
106.76908493041992,5,0,2,4,1,3,E-,1,5,0,400,600,250.0,5,cc28kn,38,train
682.5690269470215,5,0,2,4,1,3,E-,1,4,3,400,600,250.0,4,cc28kn,39,train
139.04714584350586,5,0,2,4,1,3,E-,1,1,4,400,600,250.0,1,cc28kn,40,train
170.7899570465088,5,0,2,4,1,3,E-,1,0,1,400,600,250.0,0,cc28kn,41,train
170.09902000427246,5,0,2,4,1,3,E-,1,3,5,400,600,250.0,3,cc28kn,42,train
778.5959243774414,5,0,2,4,1,3,E-,1,5,0,400,600,250.0,5,cc28kn,43,train
330.91092109680176,5,0,2,4,1,3,E-,1,2,2,400,600,250.0,2,cc28kn,44,train
138.7641429901123,5,0,2,4,1,3,E-,1,2,2,400,600,250.0,2,cc28kn,45,train
0.1609325408935547,5,0,2,4,1,3,E-,0,1,4,400,600,250.0,3,cc28kn,46,train
538.9349460601807,5,0,2,4,1,3,E-,1,3,5,400,600,250.0,3,cc28kn,47,train
91.04418754577637,5,0,2,4,1,3,E-,1,5,0,400,600,250.0,5,cc28kn,48,train
266.85190200805664,5,0,2,4,1,3,E-,1,4,3,400,600,250.0,4,cc28kn,49,train
138.92483711242676,5,0,2,4,1,3,E-,1,2,2,400,600,250.0,2,cc28kn,50,train
667.0958995819092,5,0,2,4,1,3,E-,1,1,4,400,600,250.0,1,cc28kn,51,train
410.7198715209961,5,0,2,4,1,3,E-,1,3,5,400,600,250.0,3,cc28kn,52,train
202.9099464416504,5,0,2,4,1,3,E-,1,0,1,400,600,250.0,0,cc28kn,53,train
154.9990177154541,5,0,2,4,1,3,E-,1,1,4,400,600,250.0,1,cc28kn,54,train
234.7109317779541,5,0,2,4,1,3,E-,0,4,3,400,600,250.0,5,cc28kn,55,train
170.73512077331543,5,0,2,4,1,3,E-,0,2,2,400,600,250.0,3,cc28kn,56,train
234.7240447998047,5,0,2,4,1,3,E-,1,5,0,400,600,250.0,5,cc28kn,57,train
106.83012008666992,5,0,2,4,1,3,E-,0,2,2,400,600,250.0,1,cc28kn,58,train
442.77405738830566,5,0,2,4,1,3,E-,1,1,4,400,600,250.0,1,cc28kn,59,train
122.9238510131836,5,0,2,4,1,3,E-,1,5,0,400,600,250.0,5,cc28kn,60,train
90.9121036529541,5,0,2,4,1,3,E-,1,0,1,400,600,250.0,0,cc28kn,61,train
152.74310111999512,5,0,2,4,1,3,E-,1,3,5,400,600,250.0,3,cc28kn,62,train
170.79782485961914,5,0,2,4,1,3,E-,1,2,2,400,600,250.0,2,cc28kn,63,train
106.97102546691895,5,0,2,4,1,3,E-,1,5,0,400,600,250.0,5,cc28kn,64,train
122.5430965423584,5,0,2,4,1,3,E-,1,0,1,400,600,250.0,0,cc28kn,65,train
106.70709609985352,5,0,2,4,1,3,E-,1,5,0,400,600,250.0,5,cc28kn,66,train
107.12909698486328,5,0,2,4,1,3,E-,1,5,0,400,600,250.0,5,cc28kn,67,train
170.60494422912598,5,0,2,4,1,3,E-,1,5,0,400,600,250.0,5,cc28kn,68,train
138.99898529052734,5,0,2,4,1,3,E-,1,0,1,400,600,250.0,0,cc28kn,69,train
9.715080261230469,5,0,2,4,1,3,E-,0,1,4,400,600,250.0,4,cc28kn,70,train
330.9309482574463,5,0,2,4,1,3,E-,1,1,4,400,600,250.0,1,cc28kn,71,train
170.58587074279785,5,0,2,4,1,3,E-,1,3,5,400,600,250.0,3,cc28kn,72,train
266.66998863220215,5,0,2,4,1,3,E-,1,3,5,400,600,250.0,3,cc28kn,73,train
58.197975158691406,5,0,2,4,1,3,E-,1,4,3,400,600,250.0,4,cc28kn,74,train
106.95195198059082,5,0,2,4,1,3,E-,1,1,4,400,600,250.0,1,cc28kn,75,train
282.90414810180664,5,0,2,4,1,3,E-,1,5,0,400,600,250.0,5,cc28kn,76,train
394.78015899658203,5,0,2,4,1,3,E-,1,3,5,400,600,250.0,3,cc28kn,77,train
123.06499481201172,5,0,2,4,1,3,E-,1,4,3,400,600,250.0,4,cc28kn,78,train
0.1239776611328125,5,0,2,4,1,3,E-,1,1,4,400,600,250.0,1,cc28kn,79,train
42.9689884185791,5,0,2,4,1,3,E-,1,0,1,400,600,250.0,0,cc28kn,80,train
59.832096099853516,5,0,2,4,1,3,E-,1,4,3,400,600,250.0,4,cc28kn,81,train
250.5631446838379,5,0,2,4,1,3,E-,1,2,2,400,600,250.0,2,cc28kn,82,train
90.7280445098877,5,0,2,4,1,3,E-,1,0,1,400,600,250.0,0,cc28kn,83,train
106.91499710083008,5,0,2,4,1,3,E-,0,2,2,400,600,250.0,4,cc28kn,84,train
138.45300674438477,5,0,2,4,1,3,E-,1,2,2,400,600,250.0,2,cc28kn,85,train
122.8489875793457,5,0,2,4,1,3,E-,1,3,5,400,600,250.0,3,cc28kn,86,train
186.98501586914062,5,0,2,4,1,3,E-,1,2,2,400,600,250.0,2,cc28kn,87,train
90.96908569335938,5,0,2,4,1,3,E-,1,0,1,400,600,250.0,0,cc28kn,88,train
345.9210395812988,5,0,2,4,1,3,E-,1,1,4,400,600,250.0,1,cc28kn,89,train
122.92695045471191,5,0,2,4,1,3,E-,1,1,4,400,600,250.0,1,cc28kn,90,train
154.6030044555664,5,0,2,4,1,3,E-,0,2,2,400,600,250.0,4,cc28kn,91,train
138.74387741088867,5,0,2,4,1,3,E-,1,5,0,400,600,250.0,5,cc28kn,92,train
170.88913917541504,5,0,2,4,1,3,E-,1,1,4,400,600,250.0,1,cc28kn,93,train
0.17213821411132812,5,0,2,4,1,3,E-,1,5,0,400,600,250.0,5,cc28kn,94,train
280.864953994751,5,0,2,4,1,3,E-,1,4,3,400,600,250.0,4,cc28kn,95,train
202.99792289733887,5,0,2,4,1,3,E-,1,5,0,400,600,250.0,5,cc28kn,96,train
266.66712760925293,5,0,2,4,1,3,E-,1,2,2,400,600,250.0,2,cc28kn,97,train
138.67712020874023,5,0,2,4,1,3,E-,1,3,5,400,600,250.0,3,cc28kn,98,train
283.0188274383545,5,0,2,4,1,3,E-,1,4,3,400,600,250.0,4,cc28kn,99,train
170.65906524658203,5,0,2,4,1,3,E-,1,0,1,400,600,250.0,0,cc28kn,100,train
138.73600959777832,5,0,2,4,1,3,E-,1,5,0,400,600,250.0,5,cc28kn,101,train
90.75188636779785,5,0,2,4,1,3,E-,1,0,1,400,600,250.0,0,cc28kn,102,train
1146.5320587158203,5,0,2,4,1,3,E-,1,1,4,400,600,250.0,1,cc28kn,103,train
392.94981956481934,5,0,2,4,1,3,E-,1,0,1,400,600,250.0,0,cc28kn,104,train
154.8018455505371,5,0,2,4,1,3,E-,1,5,0,400,600,250.0,5,cc28kn,105,train
362.71095275878906,5,0,2,4,1,3,E-,1,2,2,400,600,250.0,2,cc28kn,106,train
426.8159866333008,5,0,2,4,1,3,E-,1,0,1,400,600,250.0,0,cc28kn,107,train
330.9800624847412,5,0,2,4,1,3,E-,1,2,2,400,600,250.0,2,cc28kn,108,train
138.7789249420166,5,0,2,4,1,3,E-,1,3,5,400,600,250.0,3,cc28kn,109,train
330.57689666748047,5,0,2,4,1,3,E-,1,1,4,400,600,250.0,1,cc28kn,110,train
90.55113792419434,5,0,2,4,1,3,E-,1,4,3,400,600,250.0,4,cc28kn,111,train
426.8660545349121,5,0,2,4,1,3,E-,1,5,0,400,600,250.0,5,cc28kn,112,train
234.40790176391602,5,0,2,4,1,3,E-,1,0,1,400,600,250.0,0,cc28kn,113,train
58.969974517822266,5,0,2,4,1,3,E-,1,1,4,400,600,250.0,1,cc28kn,114,train
202.8191089630127,5,0,2,4,1,3,E-,1,1,4,400,600,250.0,1,cc28kn,115,train
154.9358367919922,5,0,2,4,1,3,E-,1,3,5,400,600,250.0,3,cc28kn,116,train
104.7048568725586,5,0,2,4,1,3,E-,1,5,0,400,600,250.0,5,cc28kn,117,train
106.68802261352539,5,0,2,4,1,3,E-,1,0,1,400,600,250.0,0,cc28kn,118,train
650.2888202667236,5,0,2,4,1,3,E-,1,0,1,400,600,250.0,0,cc28kn,119,train
218.7349796295166,5,0,2,4,1,3,E-,1,2,2,400,600,250.0,2,cc28kn,120,train
538.6857986450195,5,0,2,4,1,3,E-,1,1,4,400,600,250.0,1,cc28kn,121,train
298.56109619140625,5,0,2,4,1,3,E-,1,0,1,400,600,250.0,0,cc28kn,122,train
234.73286628723145,5,0,2,4,1,3,E-,1,1,4,400,600,250.0,1,cc28kn,123,train
170.14598846435547,5,0,2,4,1,3,E-,1,5,0,400,600,250.0,5,cc28kn,124,train
298.8560199737549,5,0,2,4,1,3,E-,1,4,3,400,600,250.0,4,cc28kn,125,train
58.94279479980469,5,0,2,4,1,3,E-,1,4,3,400,600,250.0,4,cc28kn,126,train
90.96193313598633,5,0,2,4,1,3,E-,1,1,4,400,600,250.0,1,cc28kn,127,train
218.87683868408203,5,0,2,4,1,3,E-,0,2,2,400,600,250.0,3,cc28kn,128,train
218.96100044250488,5,0,2,4,1,3,E-,1,3,5,400,600,250.0,3,cc28kn,129,train
26.947975158691406,5,0,2,4,1,3,E-,1,3,5,400,600,250.0,3,cc28kn,130,train
202.57306098937988,5,0,2,4,1,3,E-,1,2,2,400,600,250.0,2,cc28kn,131,train
74.94783401489258,5,0,2,4,1,3,E-,1,4,3,400,600,250.0,4,cc28kn,132,train
106.96101188659668,5,0,2,4,1,3,E-,0,5,0,400,600,250.0,4,cc28kn,133,train
72.81303405761719,5,0,2,4,1,3,E-,1,5,0,400,600,250.0,5,cc28kn,134,train
106.63008689880371,5,0,2,4,1,3,E-,1,0,1,400,600,250.0,0,cc28kn,135,train
122.81417846679688,5,0,2,4,1,3,E-,1,1,4,400,600,250.0,1,cc28kn,136,train
74.92899894714355,5,0,2,4,1,3,E-,1,5,0,400,600,250.0,5,cc28kn,137,train
58.81905555725098,5,0,2,4,1,3,E-,1,0,1,400,600,250.0,0,cc28kn,138,train
186.81812286376953,5,0,2,4,1,3,E-,1,3,5,400,600,250.0,3,cc28kn,139,train
122.77889251708984,5,0,2,4,1,3,E-,1,0,1,400,600,250.0,0,cc28kn,140,train
714.9169445037842,5,0,2,4,1,3,E-,1,1,4,400,600,250.0,1,cc28kn,141,train
59.031009674072266,5,0,2,4,1,3,E-,1,0,1,400,600,250.0,0,cc28kn,142,train
154.34694290161133,5,0,2,4,1,3,E-,0,4,3,400,600,250.0,5,cc28kn,143,train
123.06404113769531,5,0,2,4,1,3,E-,0,3,5,400,600,250.0,2,cc28kn,144,train
298.7709045410156,5,0,2,4,1,3,E-,1,5,0,400,600,250.0,5,cc28kn,145,train
106.51898384094238,5,0,2,4,1,3,E-,1,0,1,400,600,250.0,0,cc28kn,146,train
106.78505897521973,5,0,2,4,1,3,E-,0,2,2,400,600,250.0,3,cc28kn,147,train
411.8189811706543,5,0,2,4,1,3,E-,1,2,2,400,600,250.0,2,cc28kn,148,train
891.0331726074219,5,0,2,4,1,3,E-,1,3,5,400,600,250.0,3,cc28kn,149,train
154.92582321166992,5,0,2,4,1,3,E-,1,0,1,400,600,250.0,0,cc28kn,150,train
89.56694602966309,5,0,2,4,1,3,E-,1,1,4,400,600,250.0,1,cc28kn,151,train
72.61300086975098,5,0,2,4,1,3,E-,1,0,1,400,600,250.0,0,cc28kn,152,train
75.0589370727539,5,0,2,4,1,3,E-,1,2,2,400,600,250.0,2,cc28kn,153,train
74.48315620422363,5,0,2,4,1,3,E-,1,1,4,400,600,250.0,1,cc28kn,154,train
74.65195655822754,5,0,2,4,1,3,E-,1,1,4,400,600,250.0,1,cc28kn,155,train
42.97804832458496,5,0,2,4,1,3,E-,1,0,1,400,600,250.0,0,cc28kn,156,train
136.39116287231445,5,0,2,4,1,3,E-,1,1,4,400,600,250.0,1,cc28kn,157,train
90.46602249145508,5,0,2,4,1,3,E-,1,5,0,400,600,250.0,5,cc28kn,158,train
91.02582931518555,5,0,2,4,1,3,E-,1,0,1,400,600,250.0,0,cc28kn,159,train
106.66513442993164,5,0,2,4,1,3,E-,1,5,0,400,600,250.0,5,cc28kn,160,train
203.42206954956055,5,0,2,4,1,3,E-,0,3,5,400,600,250.0,2,cc28kn,161,train
187.1039867401123,5,0,2,4,1,3,E-,1,5,0,400,600,250.0,5,cc28kn,162,train
186.79499626159668,5,0,2,4,1,3,E-,1,2,2,400,600,250.0,2,cc28kn,163,train
26.942968368530273,5,0,2,4,1,3,E-,1,1,4,400,600,250.0,1,cc28kn,164,train
42.695045471191406,5,0,2,4,1,3,E-,1,4,3,400,600,250.0,4,cc28kn,165,train
138.57197761535645,5,0,2,4,1,3,E-,1,0,1,400,600,250.0,0,cc28kn,166,train
74.3861198425293,5,0,2,4,1,3,E-,1,1,4,400,600,250.0,1,cc28kn,167,train
122.82013893127441,5,0,2,4,1,3,E-,1,3,5,400,600,250.0,3,cc28kn,168,train
106.85896873474121,5,0,2,4,1,3,E-,1,1,4,400,600,250.0,1,cc28kn,169,train
75.14691352844238,5,0,2,4,1,3,E-,1,1,4,400,600,250.0,1,cc28kn,170,train
106.70709609985352,5,0,2,4,1,3,E-,1,0,1,400,600,250.0,0,cc28kn,171,train
170.93586921691895,5,0,2,4,1,3,E-,1,2,2,400,600,250.0,2,cc28kn,172,train
58.25304985046387,5,0,2,4,1,3,E-,1,0,1,400,600,250.0,0,cc28kn,173,train
42.82999038696289,5,0,2,4,1,3,E-,1,1,4,400,600,250.0,1,cc28kn,174,train
42.88792610168457,5,0,2,4,1,3,E-,1,5,0,400,600,250.0,5,cc28kn,175,train
171.13113403320312,5,0,2,4,1,3,E-,0,2,2,400,600,250.0,1,cc28kn,176,train
218.92404556274414,5,0,2,4,1,3,E-,1,0,1,400,600,250.0,0,cc28kn,177,train
202.86202430725098,5,0,2,4,1,3,E-,1,4,3,400,600,250.0,4,cc28kn,178,train
90.83294868469238,5,0,2,4,1,3,E-,1,1,4,400,600,250.0,1,cc28kn,179,train
216.54582023620605,5,0,2,4,1,3,E-,1,3,5,400,600,250.0,3,cc28kn,180,train
186.77496910095215,5,0,2,4,1,3,E-,1,2,2,400,600,250.0,2,cc28kn,181,train
186.91587448120117,5,0,2,4,1,3,E-,0,3,5,400,600,250.0,2,cc28kn,182,train
408.6039066314697,5,0,2,4,1,3,E-,1,5,0,400,600,250.0,5,cc28kn,183,train
170.9280014038086,5,0,2,4,1,3,E-,1,3,5,400,600,250.0,3,cc28kn,184,train
90.59619903564453,5,0,2,4,1,3,E-,1,4,3,400,600,250.0,4,cc28kn,185,train
42.613983154296875,5,0,2,4,1,3,E-,1,1,4,400,600,250.0,1,cc28kn,186,train
186.75589561462402,5,0,2,4,1,3,E-,1,3,5,400,600,250.0,3,cc28kn,187,train
171.25296592712402,5,0,2,4,1,3,E-,1,1,4,400,600,250.0,1,cc28kn,188,train
40.28797149658203,5,0,2,4,1,3,E-,1,1,4,400,600,250.0,1,cc28kn,189,train
266.9689655303955,5,0,2,4,1,3,E-,1,3,5,400,600,250.0,3,cc28kn,190,train
58.888912200927734,5,0,2,4,1,3,E-,1,5,0,400,600,250.0,5,cc28kn,191,train
123.19207191467285,5,0,2,4,1,3,E-,1,0,1,400,600,250.0,0,cc28kn,192,train
122.66993522644043,5,0,2,4,1,3,E-,1,2,2,400,600,250.0,2,cc28kn,193,train
90.7590389251709,5,0,2,4,1,3,E-,1,5,0,400,600,250.0,5,cc28kn,194,train
170.8669662475586,5,0,2,4,1,3,E-,1,5,0,400,600,250.0,5,cc28kn,195,train
202.76498794555664,5,0,2,4,1,3,E-,0,3,5,400,600,250.0,2,cc28kn,196,train
170.93920707702637,5,0,2,4,1,3,E-,1,4,3,400,600,250.0,4,cc28kn,197,train
202.70299911499023,5,0,2,4,1,3,E-,1,3,5,400,600,250.0,3,cc28kn,198,train
56.79583549499512,5,0,2,4,1,3,E-,1,5,0,400,600,250.0,5,cc28kn,199,train
120.83697319030762,5,0,2,4,1,3,E-,1,2,2,400,600,250.0,2,cc28kn,200,train
74.92804527282715,5,0,2,4,1,3,E-,1,5,0,400,600,250.0,5,cc28kn,201,train
74.39780235290527,5,0,2,4,1,3,E-,1,2,2,400,600,250.0,2,cc28kn,202,train
10.63990592956543,5,0,2,4,1,3,E-,1,5,0,400,600,250.0,5,cc28kn,203,train
90.44194221496582,5,0,2,4,1,3,E-,1,2,2,400,600,250.0,2,cc28kn,204,train
42.9689884185791,5,0,2,4,1,3,E-,1,1,4,400,600,250.0,1,cc28kn,205,train
120.57209014892578,5,0,2,4,1,3,E-,1,3,5,400,600,250.0,3,cc28kn,206,train
10.695934295654297,5,0,2,4,1,3,E-,0,2,2,400,600,250.0,4,cc28kn,207,train
90.86489677429199,5,0,2,4,1,3,E-,1,5,0,400,600,250.0,5,cc28kn,208,train
122.83110618591309,5,0,2,4,1,3,E-,0,3,5,400,600,250.0,2,cc28kn,209,train
107.0868968963623,5,0,2,4,1,3,E-,1,1,4,400,600,250.0,1,cc28kn,210,train
122.92814254760742,5,0,2,4,1,3,E-,1,2,2,400,600,250.0,2,cc28kn,211,train
90.85297584533691,5,0,2,4,1,3,E-,1,5,0,400,600,250.0,5,cc28kn,212,train
122.66898155212402,5,0,2,4,1,3,E-,0,3,5,400,600,250.0,2,cc28kn,213,train
90.1188850402832,5,0,2,4,1,3,E-,0,1,4,400,600,250.0,2,cc28kn,214,train
186.79404258728027,5,0,2,4,1,3,E-,1,1,4,400,600,250.0,1,cc28kn,215,train
90.97504615783691,5,0,2,4,1,3,E-,1,1,4,400,600,250.0,1,cc28kn,216,train
138.7619972229004,5,0,2,4,1,3,E-,1,2,2,400,600,250.0,2,cc28kn,217,train
106.60719871520996,5,0,2,4,1,3,E-,1,0,1,400,600,250.0,0,cc28kn,218,train
3914.9129390716553,5,0,2,4,1,3,E-,1,5,0,400,600,250.0,5,cc28kn,219,train
458.4970474243164,5,0,2,4,1,3,E-,1,4,3,400,600,250.0,4,cc28kn,220,train
122.37787246704102,5,0,2,4,1,3,E-,1,0,1,400,600,250.0,0,cc28kn,221,train
90.97409248352051,5,0,2,4,1,3,E-,1,5,0,400,600,250.0,5,cc28kn,222,train
26.499032974243164,5,0,2,4,1,3,E-,1,0,1,400,600,250.0,0,cc28kn,223,train
154.65998649597168,5,0,2,4,1,3,E-,0,2,2,400,600,250.0,1,cc28kn,224,train
106.95695877075195,5,0,2,4,1,3,E-,1,0,1,400,600,250.0,0,cc28kn,225,train
122.57599830627441,5,0,2,4,1,3,E-,1,1,4,400,600,250.0,1,cc28kn,226,train
122.85590171813965,5,0,2,4,1,3,E-,1,0,1,400,600,250.0,0,cc28kn,227,train
154.89697456359863,5,0,2,4,1,3,E-,1,4,3,400,600,250.0,4,cc28kn,228,train
234.95817184448242,5,0,2,4,1,3,E-,0,3,5,400,600,250.0,2,cc28kn,229,train
298.21300506591797,5,0,2,4,1,3,E-,1,1,4,400,600,250.0,1,cc28kn,230,train
123.04902076721191,5,0,2,4,1,3,E-,1,1,4,400,600,250.0,1,cc28kn,231,train
74.92494583129883,5,0,2,4,1,3,E-,1,1,4,400,600,250.0,1,cc28kn,232,train
170.8230972290039,5,0,2,4,1,3,E-,1,4,3,400,600,250.0,4,cc28kn,233,train
58.95209312438965,5,0,2,4,1,3,E-,1,5,0,400,600,250.0,5,cc28kn,234,train
186.86294555664062,5,0,2,4,1,3,E-,1,3,5,400,600,250.0,3,cc28kn,235,train
234.74788665771484,5,0,2,4,1,3,E-,1,2,2,400,600,250.0,2,cc28kn,236,train
186.4449977874756,5,0,2,4,1,3,E-,1,1,4,400,600,250.0,1,cc28kn,237,train
200.54006576538086,5,0,2,4,1,3,E-,1,3,5,400,600,250.0,3,cc28kn,238,train
234.8470687866211,5,0,2,4,1,3,E-,1,3,5,400,600,250.0,3,cc28kn,239,train
154.78205680847168,5,0,2,4,1,3,E-,1,1,4,400,600,250.0,1,cc28kn,240,train
202.67200469970703,5,0,2,4,1,3,E-,1,1,4,400,600,250.0,1,cc28kn,241,train
42.56010055541992,5,0,2,4,1,3,E-,1,5,0,400,600,250.0,5,cc28kn,242,train
122.99704551696777,5,0,2,4,1,3,E-,1,0,1,400,600,250.0,0,cc28kn,243,train
74.85699653625488,5,0,2,4,1,3,E-,1,1,4,400,600,250.0,1,cc28kn,244,train
90.3477668762207,5,0,2,4,1,3,E-,1,3,5,400,600,250.0,3,cc28kn,245,train
122.71904945373535,5,0,2,4,1,3,E-,1,0,1,400,600,250.0,0,cc28kn,246,train
232.51891136169434,5,0,2,4,1,3,E-,1,4,3,400,600,250.0,4,cc28kn,247,train
106.6288948059082,5,0,2,4,1,3,E-,1,5,0,400,600,250.0,5,cc28kn,248,train
42.84501075744629,5,0,2,4,1,3,E-,1,4,3,400,600,250.0,4,cc28kn,249,train
2848.814010620117,5,2,1,3,0,4,E-,1,1,2,0,1000,250.0,1,cc28kn,250,test
768.9259052276611,5,2,1,3,0,4,E-,1,1,2,0,1000,250.0,1,cc28kn,251,test
896.7809677124023,5,2,1,3,0,4,E-,1,1,2,0,1000,250.0,1,cc28kn,252,test
816.849946975708,5,2,1,3,0,4,E-,1,2,1,0,1000,250.0,2,cc28kn,253,test
670.6748008728027,5,2,1,3,0,4,E-,1,1,2,0,1000,250.0,1,cc28kn,254,test
1073.016881942749,5,2,1,3,0,4,E-,1,5,0,0,1000,250.0,5,cc28kn,255,test
560.8210563659668,5,2,1,3,0,4,E-,1,1,2,0,1000,250.0,1,cc28kn,256,test
1008.6648464202881,5,2,1,3,0,4,E-,1,3,3,0,1000,250.0,3,cc28kn,257,test
1040.5199527740479,5,2,1,3,0,4,E-,1,0,4,0,1000,250.0,0,cc28kn,258,test
544.5678234100342,5,2,1,3,0,4,E-,1,0,4,0,1000,250.0,0,cc28kn,259,test
656.6479206085205,5,2,1,3,0,4,E-,1,4,5,0,1000,250.0,4,cc28kn,260,test
833.143949508667,5,2,1,3,0,4,E-,1,2,1,0,1000,250.0,2,cc28kn,261,test
592.8909778594971,5,2,1,3,0,4,E-,1,5,0,0,1000,250.0,5,cc28kn,262,test
992.9299354553223,5,2,1,3,0,4,E-,1,0,4,0,1000,250.0,0,cc28kn,263,test
528.6669731140137,5,2,1,3,0,4,E-,0,3,3,0,1000,250.0,4,cc28kn,264,test
1072.8909969329834,5,2,1,3,0,4,E-,1,2,1,0,1000,250.0,2,cc28kn,265,test
688.8060569763184,5,2,1,3,0,4,E-,1,2,1,0,1000,250.0,2,cc28kn,266,test
848.6709594726562,5,2,1,3,0,4,E-,1,4,5,0,1000,250.0,4,cc28kn,267,test
752.4669170379639,5,2,1,3,0,4,E-,1,2,1,0,1000,250.0,2,cc28kn,268,test
992.7840232849121,5,2,1,3,0,4,E-,1,0,4,0,1000,250.0,0,cc28kn,269,test
1120.9380626678467,5,2,1,3,0,4,E-,1,3,3,0,1000,250.0,3,cc28kn,270,test
752.5360584259033,5,2,1,3,0,4,E-,1,4,5,0,1000,250.0,4,cc28kn,271,test
656.886100769043,5,2,1,3,0,4,E-,1,1,2,0,1000,250.0,1,cc28kn,272,test
365.96083641052246,5,2,1,3,0,4,E-,1,5,0,0,1000,250.0,5,cc28kn,273,test
557.9309463500977,5,2,1,3,0,4,E-,1,5,0,0,1000,250.0,5,cc28kn,274,test
512.7558708190918,5,2,1,3,0,4,E-,1,5,0,0,1000,250.0,5,cc28kn,275,test
752.4929046630859,5,2,1,3,0,4,E-,1,1,2,0,1000,250.0,1,cc28kn,276,test
734.8389625549316,5,2,1,3,0,4,E-,1,2,1,0,1000,250.0,2,cc28kn,277,test
608.5410118103027,5,2,1,3,0,4,E-,1,5,0,0,1000,250.0,5,cc28kn,278,test
768.9518928527832,5,2,1,3,0,4,E-,1,2,1,0,1000,250.0,2,cc28kn,279,test
656.7821502685547,5,2,1,3,0,4,E-,1,4,5,0,1000,250.0,4,cc28kn,280,test
592.8049087524414,5,2,1,3,0,4,E-,1,5,0,0,1000,250.0,5,cc28kn,281,test
417.00005531311035,5,2,1,3,0,4,E-,1,5,0,0,1000,250.0,5,cc28kn,282,test
592.7529335021973,5,2,1,3,0,4,E-,0,3,3,0,1000,250.0,4,cc28kn,283,test
432.88707733154297,5,2,1,3,0,4,E-,0,4,5,0,1000,250.0,3,cc28kn,284,test
560.5411529541016,5,2,1,3,0,4,E-,1,5,0,0,1000,250.0,5,cc28kn,285,test
640.8569812774658,5,2,1,3,0,4,E-,1,1,2,0,1000,250.0,1,cc28kn,286,test
880.53297996521,5,2,1,3,0,4,E-,1,4,5,0,1000,250.0,4,cc28kn,287,test
400.6021022796631,5,2,1,3,0,4,E-,1,3,3,0,1000,250.0,3,cc28kn,288,test
544.6019172668457,5,2,1,3,0,4,E-,1,3,3,0,1000,250.0,3,cc28kn,289,test
544.8570251464844,5,2,1,3,0,4,E-,1,1,2,0,1000,250.0,1,cc28kn,290,test
608.6561679840088,5,2,1,3,0,4,E-,1,2,1,0,1000,250.0,2,cc28kn,291,test
512.7391815185547,5,2,1,3,0,4,E-,1,5,0,0,1000,250.0,5,cc28kn,292,test
320.42503356933594,5,2,1,3,0,4,E-,0,4,5,0,1000,250.0,5,cc28kn,293,test
608.6640357971191,5,2,1,3,0,4,E-,1,5,0,0,1000,250.0,5,cc28kn,294,test
608.7779998779297,5,2,1,3,0,4,E-,1,1,2,0,1000,250.0,1,cc28kn,295,test
608.9169979095459,5,2,1,3,0,4,E-,1,1,2,0,1000,250.0,1,cc28kn,296,test
896.7490196228027,5,2,1,3,0,4,E-,1,3,3,0,1000,250.0,3,cc28kn,297,test
609.0080738067627,5,2,1,3,0,4,E-,1,1,2,0,1000,250.0,1,cc28kn,298,test
560.8420372009277,5,2,1,3,0,4,E-,1,1,2,0,1000,250.0,1,cc28kn,299,test
576.7409801483154,5,2,1,3,0,4,E-,1,1,2,0,1000,250.0,1,cc28kn,300,test
528.954029083252,5,2,1,3,0,4,E-,1,0,4,0,1000,250.0,0,cc28kn,301,test
575.0129222869873,5,2,1,3,0,4,E-,1,0,4,0,1000,250.0,0,cc28kn,302,test
352.7038097381592,5,2,1,3,0,4,E-,1,3,3,0,1000,250.0,3,cc28kn,303,test
432.6448440551758,5,2,1,3,0,4,E-,0,0,4,0,1000,250.0,3,cc28kn,304,test
719.325065612793,5,2,1,3,0,4,E-,1,3,3,0,1000,250.0,3,cc28kn,305,test
798.7170219421387,5,2,1,3,0,4,E-,1,2,1,0,1000,250.0,2,cc28kn,306,test
592.8900241851807,5,2,1,3,0,4,E-,1,5,0,0,1000,250.0,5,cc28kn,307,test
1280.811071395874,5,2,1,3,0,4,E-,1,4,5,0,1000,250.0,4,cc28kn,308,test
352.89692878723145,5,2,1,3,0,4,E-,1,0,4,0,1000,250.0,0,cc28kn,309,test
542.6840782165527,5,2,1,3,0,4,E-,1,1,2,0,1000,250.0,1,cc28kn,310,test
608.6070537567139,5,2,1,3,0,4,E-,1,3,3,0,1000,250.0,3,cc28kn,311,test
608.4721088409424,5,2,1,3,0,4,E-,1,2,1,0,1000,250.0,2,cc28kn,312,test
704.6849727630615,5,2,1,3,0,4,E-,1,1,2,0,1000,250.0,1,cc28kn,313,test
768.9459323883057,5,2,1,3,0,4,E-,1,3,3,0,1000,250.0,3,cc28kn,314,test
464.7698402404785,5,2,1,3,0,4,E-,1,4,5,0,1000,250.0,4,cc28kn,315,test
480.6690216064453,5,2,1,3,0,4,E-,1,1,2,0,1000,250.0,1,cc28kn,316,test
624.7849464416504,5,2,1,3,0,4,E-,1,2,1,0,1000,250.0,2,cc28kn,317,test
512.4049186706543,5,2,1,3,0,4,E-,1,2,1,0,1000,250.0,2,cc28kn,318,test
545.1509952545166,5,2,1,3,0,4,E-,1,2,1,0,1000,250.0,2,cc28kn,319,test
433.0129623413086,5,2,1,3,0,4,E-,1,2,1,0,1000,250.0,2,cc28kn,320,test
368.54004859924316,5,2,1,3,0,4,E-,0,1,2,0,1000,250.0,2,cc28kn,321,test
768.6729431152344,5,2,1,3,0,4,E-,1,3,3,0,1000,250.0,3,cc28kn,322,test
560.8959197998047,5,2,1,3,0,4,E-,1,4,5,0,1000,250.0,4,cc28kn,323,test
672.9030609130859,5,2,1,3,0,4,E-,1,1,2,0,1000,250.0,1,cc28kn,324,test
512.8641128540039,5,2,1,3,0,4,E-,1,1,2,0,1000,250.0,1,cc28kn,325,test
336.86089515686035,5,2,1,3,0,4,E-,1,5,0,0,1000,250.0,5,cc28kn,326,test
480.79895973205566,5,2,1,3,0,4,E-,1,5,0,0,1000,250.0,5,cc28kn,327,test
864.8910522460938,5,2,1,3,0,4,E-,0,2,1,0,1000,250.0,1,cc28kn,328,test
625.0510215759277,5,2,1,3,0,4,E-,1,1,2,0,1000,250.0,1,cc28kn,329,test
528.8960933685303,5,2,1,3,0,4,E-,1,2,1,0,1000,250.0,2,cc28kn,330,test
528.6190509796143,5,2,1,3,0,4,E-,1,5,0,0,1000,250.0,5,cc28kn,331,test
352.91600227355957,5,2,1,3,0,4,E-,1,3,3,0,1000,250.0,3,cc28kn,332,test
545.0289249420166,5,2,1,3,0,4,E-,1,1,2,0,1000,250.0,1,cc28kn,333,test
352.71501541137695,5,2,1,3,0,4,E-,1,0,4,0,1000,250.0,0,cc28kn,334,test
976.6690731048584,5,2,1,3,0,4,E-,1,4,5,0,1000,250.0,4,cc28kn,335,test
513.0550861358643,5,2,1,3,0,4,E-,1,4,5,0,1000,250.0,4,cc28kn,336,test
464.9178981781006,5,2,1,3,0,4,E-,1,4,5,0,1000,250.0,4,cc28kn,337,test
784.276008605957,5,2,1,3,0,4,E-,1,1,2,0,1000,250.0,1,cc28kn,338,test
592.9670333862305,5,2,1,3,0,4,E-,1,5,0,0,1000,250.0,5,cc28kn,339,test
465.00301361083984,5,2,1,3,0,4,E-,1,1,2,0,1000,250.0,1,cc28kn,340,test
512.8281116485596,5,2,1,3,0,4,E-,1,5,0,0,1000,250.0,5,cc28kn,341,test
464.50185775756836,5,2,1,3,0,4,E-,0,3,3,0,1000,250.0,4,cc28kn,342,test
577.0561695098877,5,2,1,3,0,4,E-,1,5,0,0,1000,250.0,5,cc28kn,343,test
560.9781742095947,5,2,1,3,0,4,E-,1,0,4,0,1000,250.0,0,cc28kn,344,test
480.8948040008545,5,2,1,3,0,4,E-,1,0,4,0,1000,250.0,0,cc28kn,345,test
526.7908573150635,5,2,1,3,0,4,E-,1,0,4,0,1000,250.0,0,cc28kn,346,test
544.8241233825684,5,2,1,3,0,4,E-,0,4,5,0,1000,250.0,5,cc28kn,347,test
400.892972946167,5,2,1,3,0,4,E-,1,3,3,0,1000,250.0,3,cc28kn,348,test
574.6469497680664,5,2,1,3,0,4,E-,1,1,2,0,1000,250.0,1,cc28kn,349,test
800.9860515594482,5,2,1,3,0,4,E-,1,4,5,0,1000,250.0,4,cc28kn,350,test
480.91983795166016,5,2,1,3,0,4,E-,1,1,2,0,1000,250.0,1,cc28kn,351,test
560.6248378753662,5,2,1,3,0,4,E-,1,3,3,0,1000,250.0,3,cc28kn,352,test
544.7180271148682,5,2,1,3,0,4,E-,1,1,2,0,1000,250.0,1,cc28kn,353,test
576.7221450805664,5,2,1,3,0,4,E-,1,4,5,0,1000,250.0,4,cc28kn,354,test
352.59389877319336,5,2,1,3,0,4,E-,1,0,4,0,1000,250.0,0,cc28kn,355,test
624.3860721588135,5,2,1,3,0,4,E-,1,4,5,0,1000,250.0,4,cc28kn,356,test
560.6131553649902,5,2,1,3,0,4,E-,1,5,0,0,1000,250.0,5,cc28kn,357,test
544.9140071868896,5,2,1,3,0,4,E-,0,2,1,0,1000,250.0,1,cc28kn,358,test
545.1500415802002,5,2,1,3,0,4,E-,1,0,4,0,1000,250.0,0,cc28kn,359,test
672.645092010498,5,2,1,3,0,4,E-,1,2,1,0,1000,250.0,2,cc28kn,360,test
593.019962310791,5,2,1,3,0,4,E-,1,0,4,0,1000,250.0,0,cc28kn,361,test
513.0670070648193,5,2,1,3,0,4,E-,1,4,5,0,1000,250.0,4,cc28kn,362,test
561.0091686248779,5,2,1,3,0,4,E-,1,5,0,0,1000,250.0,5,cc28kn,363,test
512.8638744354248,5,2,1,3,0,4,E-,1,1,2,0,1000,250.0,1,cc28kn,364,test
512.7649307250977,5,2,1,3,0,4,E-,1,1,2,0,1000,250.0,1,cc28kn,365,test
465.03686904907227,5,2,1,3,0,4,E-,1,5,0,0,1000,250.0,5,cc28kn,366,test
896.7719078063965,5,2,1,3,0,4,E-,0,2,1,0,1000,250.0,1,cc28kn,367,test
640.6238079071045,5,2,1,3,0,4,E-,1,5,0,0,1000,250.0,5,cc28kn,368,test
560.95290184021,5,2,1,3,0,4,E-,1,0,4,0,1000,250.0,0,cc28kn,369,test
880.4750442504883,5,2,1,3,0,4,E-,1,3,3,0,1000,250.0,3,cc28kn,370,test
513.1289958953857,5,2,1,3,0,4,E-,1,1,2,0,1000,250.0,1,cc28kn,371,test
368.98112297058105,5,2,1,3,0,4,E-,1,2,1,0,1000,250.0,2,cc28kn,372,test
688.9419555664062,5,2,1,3,0,4,E-,1,1,2,0,1000,250.0,1,cc28kn,373,test
496.90723419189453,5,2,1,3,0,4,E-,1,5,0,0,1000,250.0,5,cc28kn,374,test
609.0638637542725,5,2,1,3,0,4,E-,1,0,4,0,1000,250.0,0,cc28kn,375,test
592.9629802703857,5,2,1,3,0,4,E-,1,5,0,0,1000,250.0,5,cc28kn,376,test
574.7339725494385,5,2,1,3,0,4,E-,1,3,3,0,1000,250.0,3,cc28kn,377,test
384.9520683288574,5,2,1,3,0,4,E-,1,4,5,0,1000,250.0,4,cc28kn,378,test
624.629020690918,5,2,1,3,0,4,E-,1,3,3,0,1000,250.0,3,cc28kn,379,test
496.97303771972656,5,2,1,3,0,4,E-,1,0,4,0,1000,250.0,0,cc28kn,380,test
496.8411922454834,5,2,1,3,0,4,E-,1,4,5,0,1000,250.0,4,cc28kn,381,test
592.8981304168701,5,2,1,3,0,4,E-,1,4,5,0,1000,250.0,4,cc28kn,382,test
846.0249900817871,5,2,1,3,0,4,E-,1,2,1,0,1000,250.0,2,cc28kn,383,test
496.7210292816162,5,2,1,3,0,4,E-,1,0,4,0,1000,250.0,0,cc28kn,384,test
544.8348522186279,5,2,1,3,0,4,E-,1,2,1,0,1000,250.0,2,cc28kn,385,test
656.6910743713379,5,2,1,3,0,4,E-,1,3,3,0,1000,250.0,3,cc28kn,386,test
526.6401767730713,5,2,1,3,0,4,E-,1,4,5,0,1000,250.0,4,cc28kn,387,test
592.9460525512695,5,2,1,3,0,4,E-,1,2,1,0,1000,250.0,2,cc28kn,388,test
513.0631923675537,5,2,1,3,0,4,E-,1,2,1,0,1000,250.0,2,cc28kn,389,test
480.54003715515137,5,2,1,3,0,4,E-,1,2,1,0,1000,250.0,2,cc28kn,390,test
448.1379985809326,5,2,1,3,0,4,E-,1,2,1,0,1000,250.0,2,cc28kn,391,test
481.02712631225586,5,2,1,3,0,4,E-,1,0,4,0,1000,250.0,0,cc28kn,392,test
496.8698024749756,5,2,1,3,0,4,E-,1,0,4,0,1000,250.0,0,cc28kn,393,test
560.7869625091553,5,2,1,3,0,4,E-,1,4,5,0,1000,250.0,4,cc28kn,394,test
512.3341083526611,5,2,1,3,0,4,E-,1,5,0,0,1000,250.0,5,cc28kn,395,test
800.8449077606201,5,2,1,3,0,4,E-,1,4,5,0,1000,250.0,4,cc28kn,396,test
751.4240741729736,5,2,1,3,0,4,E-,1,2,1,0,1000,250.0,2,cc28kn,397,test
560.9378814697266,5,2,1,3,0,4,E-,1,4,5,0,1000,250.0,4,cc28kn,398,test
368.9689636230469,5,2,1,3,0,4,E-,1,5,0,0,1000,250.0,5,cc28kn,399,test
416.66197776794434,5,2,1,3,0,4,E-,1,4,5,0,1000,250.0,4,cc28kn,400,test
560.8401298522949,5,2,1,3,0,4,E-,1,5,0,0,1000,250.0,5,cc28kn,401,test
560.6689453125,5,2,1,3,0,4,E-,1,1,2,0,1000,250.0,1,cc28kn,402,test
512.6438140869141,5,2,1,3,0,4,E-,1,4,5,0,1000,250.0,4,cc28kn,403,test
528.9838314056396,5,2,1,3,0,4,E-,0,3,3,0,1000,250.0,4,cc28kn,404,test
480.9079170227051,5,2,1,3,0,4,E-,1,4,5,0,1000,250.0,4,cc28kn,405,test
385.15400886535645,5,2,1,3,0,4,E-,1,5,0,0,1000,250.0,5,cc28kn,406,test
608.7460517883301,5,2,1,3,0,4,E-,1,3,3,0,1000,250.0,3,cc28kn,407,test
496.9651699066162,5,2,1,3,0,4,E-,1,0,4,0,1000,250.0,0,cc28kn,408,test
561.021089553833,5,2,1,3,0,4,E-,1,4,5,0,1000,250.0,4,cc28kn,409,test
480.2260398864746,5,2,1,3,0,4,E-,1,0,4,0,1000,250.0,0,cc28kn,410,test
593.0190086364746,5,2,1,3,0,4,E-,1,5,0,0,1000,250.0,5,cc28kn,411,test
592.6730632781982,5,2,1,3,0,4,E-,1,2,1,0,1000,250.0,2,cc28kn,412,test
606.691837310791,5,2,1,3,0,4,E-,1,4,5,0,1000,250.0,4,cc28kn,413,test
512.7501487731934,5,2,1,3,0,4,E-,1,0,4,0,1000,250.0,0,cc28kn,414,test
415.68899154663086,5,2,1,3,0,4,E-,1,1,2,0,1000,250.0,1,cc28kn,415,test
528.7578105926514,5,2,1,3,0,4,E-,1,0,4,0,1000,250.0,0,cc28kn,416,test
528.9630889892578,5,2,1,3,0,4,E-,1,0,4,0,1000,250.0,0,cc28kn,417,test
640.7349109649658,5,2,1,3,0,4,E-,1,3,3,0,1000,250.0,3,cc28kn,418,test
625.0200271606445,5,2,1,3,0,4,E-,1,1,2,0,1000,250.0,1,cc28kn,419,test
496.74510955810547,5,2,1,3,0,4,E-,1,4,5,0,1000,250.0,4,cc28kn,420,test
608.518123626709,5,2,1,3,0,4,E-,1,5,0,0,1000,250.0,5,cc28kn,421,test
782.6809883117676,5,2,1,3,0,4,E-,1,4,5,0,1000,250.0,4,cc28kn,422,test
672.5599765777588,5,2,1,3,0,4,E-,1,5,0,0,1000,250.0,5,cc28kn,423,test
544.6171760559082,5,2,1,3,0,4,E-,1,4,5,0,1000,250.0,4,cc28kn,424,test
544.8038578033447,5,2,1,3,0,4,E-,1,0,4,0,1000,250.0,0,cc28kn,425,test
641.5460109710693,5,2,1,3,0,4,E-,1,1,2,0,1000,250.0,1,cc28kn,426,test
592.5028324127197,5,2,1,3,0,4,E-,0,3,3,0,1000,250.0,4,cc28kn,427,test
528.6209583282471,5,2,1,3,0,4,E-,1,1,2,0,1000,250.0,1,cc28kn,428,test
448.89307022094727,5,2,1,3,0,4,E-,1,0,4,0,1000,250.0,0,cc28kn,429,test
577.0840644836426,5,2,1,3,0,4,E-,1,5,0,0,1000,250.0,5,cc28kn,430,test
608.6878776550293,5,2,1,3,0,4,E-,1,5,0,0,1000,250.0,5,cc28kn,431,test
480.41796684265137,5,2,1,3,0,4,E-,1,4,5,0,1000,250.0,4,cc28kn,432,test
496.7670440673828,5,2,1,3,0,4,E-,1,2,1,0,1000,250.0,2,cc28kn,433,test
672.8842258453369,5,2,1,3,0,4,E-,1,2,1,0,1000,250.0,2,cc28kn,434,test
416.7759418487549,5,2,1,3,0,4,E-,1,1,2,0,1000,250.0,1,cc28kn,435,test
496.48594856262207,5,2,1,3,0,4,E-,1,4,5,0,1000,250.0,4,cc28kn,436,test
576.7569541931152,5,2,1,3,0,4,E-,1,1,2,0,1000,250.0,1,cc28kn,437,test
465.0099277496338,5,2,1,3,0,4,E-,1,1,2,0,1000,250.0,1,cc28kn,438,test
529.2849540710449,5,2,1,3,0,4,E-,1,5,0,0,1000,250.0,5,cc28kn,439,test
464.9219512939453,5,2,1,3,0,4,E-,0,3,3,0,1000,250.0,4,cc28kn,440,test
462.9800319671631,5,2,1,3,0,4,E-,1,4,5,0,1000,250.0,4,cc28kn,441,test
480.4959297180176,5,2,1,3,0,4,E-,1,0,4,0,1000,250.0,0,cc28kn,442,test
352.8578281402588,5,2,1,3,0,4,E-,1,0,4,0,1000,250.0,0,cc28kn,443,test
480.8621406555176,5,2,1,3,0,4,E-,0,3,3,0,1000,250.0,4,cc28kn,444,test
544.8470115661621,5,2,1,3,0,4,E-,1,4,5,0,1000,250.0,4,cc28kn,445,test
400.5730152130127,5,2,1,3,0,4,E-,1,4,5,0,1000,250.0,4,cc28kn,446,test
449.06091690063477,5,2,1,3,0,4,E-,1,5,0,0,1000,250.0,5,cc28kn,447,test
480.9918403625488,5,2,1,3,0,4,E-,1,0,4,0,1000,250.0,0,cc28kn,448,test
624.6981620788574,5,2,1,3,0,4,E-,1,4,5,0,1000,250.0,4,cc28kn,449,test
528.904914855957,5,2,1,3,0,4,E-,0,3,3,0,1000,250.0,4,cc28kn,450,test
496.6440200805664,5,2,1,3,0,4,E-,1,0,4,0,1000,250.0,0,cc28kn,451,test
736.7708683013916,5,2,1,3,0,4,E-,1,2,1,0,1000,250.0,2,cc28kn,452,test
369.02713775634766,5,2,1,3,0,4,E-,0,2,1,0,1000,250.0,1,cc28kn,453,test
577.0809650421143,5,2,1,3,0,4,E-,1,1,2,0,1000,250.0,1,cc28kn,454,test
528.1078815460205,5,2,1,3,0,4,E-,0,3,3,0,1000,250.0,4,cc28kn,455,test
497.07794189453125,5,2,1,3,0,4,E-,1,5,0,0,1000,250.0,5,cc28kn,456,test
529.0260314941406,5,2,1,3,0,4,E-,1,0,4,0,1000,250.0,0,cc28kn,457,test
496.83189392089844,5,2,1,3,0,4,E-,1,0,4,0,1000,250.0,0,cc28kn,458,test
496.8221187591553,5,2,1,3,0,4,E-,1,1,2,0,1000,250.0,1,cc28kn,459,test
511.336088180542,5,2,1,3,0,4,E-,1,1,2,0,1000,250.0,1,cc28kn,460,test
480.61585426330566,5,2,1,3,0,4,E-,1,0,4,0,1000,250.0,0,cc28kn,461,test
417.13595390319824,5,2,1,3,0,4,E-,1,0,4,0,1000,250.0,0,cc28kn,462,test
576.7478942871094,5,2,1,3,0,4,E-,0,2,1,0,1000,250.0,1,cc28kn,463,test
560.6870651245117,5,2,1,3,0,4,E-,1,0,4,0,1000,250.0,0,cc28kn,464,test
416.7008399963379,5,2,1,3,0,4,E-,0,0,4,0,1000,250.0,1,cc28kn,465,test
352.9360294342041,5,2,1,3,0,4,E-,1,0,4,0,1000,250.0,0,cc28kn,466,test
544.7859764099121,5,2,1,3,0,4,E-,1,5,0,0,1000,250.0,5,cc28kn,467,test
560.8460903167725,5,2,1,3,0,4,E-,1,1,2,0,1000,250.0,1,cc28kn,468,test
481.0011386871338,5,2,1,3,0,4,E-,1,0,4,0,1000,250.0,0,cc28kn,469,test
544.4989204406738,5,2,1,3,0,4,E-,1,4,5,0,1000,250.0,4,cc28kn,470,test
496.96898460388184,5,2,1,3,0,4,E-,1,1,2,0,1000,250.0,1,cc28kn,471,test
736.9899749755859,5,2,1,3,0,4,E-,1,2,1,0,1000,250.0,2,cc28kn,472,test
398.7400531768799,5,2,1,3,0,4,E-,1,1,2,0,1000,250.0,1,cc28kn,473,test
544.5399284362793,5,2,1,3,0,4,E-,1,1,2,0,1000,250.0,1,cc28kn,474,test
817.1021938323975,5,2,1,3,0,4,E-,1,3,3,0,1000,250.0,3,cc28kn,475,test
368.66188049316406,5,2,1,3,0,4,E-,1,4,5,0,1000,250.0,4,cc28kn,476,test
560.8940124511719,5,2,1,3,0,4,E-,1,5,0,0,1000,250.0,5,cc28kn,477,test
576.6828060150146,5,2,1,3,0,4,E-,0,3,3,0,1000,250.0,4,cc28kn,478,test
704.9829959869385,5,2,1,3,0,4,E-,1,4,5,0,1000,250.0,4,cc28kn,479,test
496.3421821594238,5,2,1,3,0,4,E-,0,3,3,0,1000,250.0,4,cc28kn,480,test
480.7741641998291,5,2,1,3,0,4,E-,1,5,0,0,1000,250.0,5,cc28kn,481,test
513.0841732025146,5,2,1,3,0,4,E-,1,4,5,0,1000,250.0,4,cc28kn,482,test
480.665922164917,5,2,1,3,0,4,E-,0,2,1,0,1000,250.0,1,cc28kn,483,test
608.6971759796143,5,2,1,3,0,4,E-,1,0,4,0,1000,250.0,0,cc28kn,484,test
512.7160549163818,5,2,1,3,0,4,E-,1,1,2,0,1000,250.0,1,cc28kn,485,test
512.700080871582,5,2,1,3,0,4,E-,1,1,2,0,1000,250.0,1,cc28kn,486,test
561.0589981079102,5,2,1,3,0,4,E-,1,4,5,0,1000,250.0,4,cc28kn,487,test
512.9492282867432,5,2,1,3,0,4,E-,1,1,2,0,1000,250.0,1,cc28kn,488,test
672.6539134979248,5,2,1,3,0,4,E-,1,4,5,0,1000,250.0,4,cc28kn,489,test
512.6519203186035,5,2,1,3,0,4,E-,0,3,3,0,1000,250.0,4,cc28kn,490,test
352.62393951416016,5,2,1,3,0,4,E-,1,3,3,0,1000,250.0,3,cc28kn,491,test
512.9008293151855,5,2,1,3,0,4,E-,1,4,5,0,1000,250.0,4,cc28kn,492,test
913.0079746246338,5,2,1,3,0,4,E-,1,4,5,0,1000,250.0,4,cc28kn,493,test
576.6611099243164,5,2,1,3,0,4,E-,1,0,4,0,1000,250.0,0,cc28kn,494,test
448.90904426574707,5,2,1,3,0,4,E-,0,5,0,0,1000,250.0,0,cc28kn,495,test
577.0699977874756,5,2,1,3,0,4,E-,1,1,2,0,1000,250.0,1,cc28kn,496,test
464.6449089050293,5,2,1,3,0,4,E-,1,5,0,0,1000,250.0,5,cc28kn,497,test
368.65687370300293,5,2,1,3,0,4,E-,1,4,5,0,1000,250.0,4,cc28kn,498,test
560.6508255004883,5,2,1,3,0,4,E-,1,5,0,0,1000,250.0,5,cc28kn,499,test
