RT,SRmap_0,SRmap_1,SRmap_2,SRmap_3,SRmap_4,SRmap_5,condition,correct,correct_response,curstim,ms-precue,ms-prestimblank,ntrials,response,subject,trial,type
3438.852071762085,1,3,0,2,4,5,E-,1,2,3,400,600,250.0,2,E14DD,0,train
911.3810062408447,1,3,0,2,4,5,E-,1,2,3,400,600,250.0,2,E14DD,1,train
175.78697204589844,1,3,0,2,4,5,E-,1,2,3,400,600,250.0,2,E14DD,2,train
1039.7908687591553,1,3,0,2,4,5,E-,1,3,1,400,600,250.0,3,E14DD,3,train
255.57494163513184,1,3,0,2,4,5,E-,1,0,2,400,600,250.0,0,E14DD,4,train
271.82483673095703,1,3,0,2,4,5,E-,1,2,3,400,600,250.0,2,E14DD,5,train
207.7791690826416,1,3,0,2,4,5,E-,1,5,5,400,600,250.0,5,E14DD,6,train
271.3029384613037,1,3,0,2,4,5,E-,1,2,3,400,600,250.0,2,E14DD,7,train
143.7668800354004,1,3,0,2,4,5,E-,1,2,3,400,600,250.0,2,E14DD,8,train
175.47202110290527,1,3,0,2,4,5,E-,1,5,5,400,600,250.0,5,E14DD,9,train
127.77900695800781,1,3,0,2,4,5,E-,1,5,5,400,600,250.0,5,E14DD,10,train
31.924009323120117,1,3,0,2,4,5,E-,1,5,5,400,600,250.0,5,E14DD,11,train
399.1820812225342,1,3,0,2,4,5,E-,1,3,1,400,600,250.0,3,E14DD,12,train
191.45894050598145,1,3,0,2,4,5,E-,1,4,4,400,600,250.0,4,E14DD,13,train
143.31912994384766,1,3,0,2,4,5,E-,0,1,0,400,600,250.0,0,E14DD,14,train
415.26198387145996,1,3,0,2,4,5,E-,1,3,1,400,600,250.0,3,E14DD,15,train
367.2051429748535,1,3,0,2,4,5,E-,1,5,5,400,600,250.0,5,E14DD,16,train
223.22511672973633,1,3,0,2,4,5,E-,1,4,4,400,600,250.0,4,E14DD,17,train
127.14600563049316,1,3,0,2,4,5,E-,1,4,4,400,600,250.0,4,E14DD,18,train
318.87197494506836,1,3,0,2,4,5,E-,1,3,1,400,600,250.0,3,E14DD,19,train
191.68496131896973,1,3,0,2,4,5,E-,1,5,5,400,600,250.0,5,E14DD,20,train
271.697998046875,1,3,0,2,4,5,E-,1,1,0,400,600,250.0,1,E14DD,21,train
47.83010482788086,1,3,0,2,4,5,E-,1,0,2,400,600,250.0,0,E14DD,22,train
15.824079513549805,1,3,0,2,4,5,E-,1,2,3,400,600,250.0,2,E14DD,23,train
95.83091735839844,1,3,0,2,4,5,E-,1,5,5,400,600,250.0,5,E14DD,24,train
31.869888305664062,1,3,0,2,4,5,E-,1,4,4,400,600,250.0,4,E14DD,25,train
383.3179473876953,1,3,0,2,4,5,E-,1,1,0,400,600,250.0,1,E14DD,26,train
254.8830509185791,1,3,0,2,4,5,E-,1,2,3,400,600,250.0,2,E14DD,27,train
159.12699699401855,1,3,0,2,4,5,E-,1,3,1,400,600,250.0,3,E14DD,28,train
111.17196083068848,1,3,0,2,4,5,E-,1,0,2,400,600,250.0,0,E14DD,29,train
255.21588325500488,1,3,0,2,4,5,E-,0,3,1,400,600,250.0,4,E14DD,30,train
799.3309497833252,1,3,0,2,4,5,E-,1,2,3,400,600,250.0,2,E14DD,31,train
175.70900917053223,1,3,0,2,4,5,E-,1,5,5,400,600,250.0,5,E14DD,32,train
175.96697807312012,1,3,0,2,4,5,E-,1,0,2,400,600,250.0,0,E14DD,33,train
191.7860507965088,1,3,0,2,4,5,E-,1,5,5,400,600,250.0,5,E14DD,34,train
959.8400592803955,1,3,0,2,4,5,E-,1,3,1,400,600,250.0,3,E14DD,35,train
559.8881244659424,1,3,0,2,4,5,E-,1,1,0,400,600,250.0,1,E14DD,36,train
335.468053817749,1,3,0,2,4,5,E-,1,3,1,400,600,250.0,3,E14DD,37,train
479.79211807250977,1,3,0,2,4,5,E-,1,4,4,400,600,250.0,4,E14DD,38,train
175.73189735412598,1,3,0,2,4,5,E-,0,4,4,400,600,250.0,3,E14DD,39,train
351.73916816711426,1,3,0,2,4,5,E-,1,2,3,400,600,250.0,2,E14DD,40,train
191.8189525604248,1,3,0,2,4,5,E-,1,2,3,400,600,250.0,2,E14DD,41,train
159.6851348876953,1,3,0,2,4,5,E-,1,2,3,400,600,250.0,2,E14DD,42,train
223.73294830322266,1,3,0,2,4,5,E-,1,0,2,400,600,250.0,0,E14DD,43,train
127.72202491760254,1,3,0,2,4,5,E-,1,3,1,400,600,250.0,3,E14DD,44,train
111.74988746643066,1,3,0,2,4,5,E-,1,4,4,400,600,250.0,4,E14DD,45,train
31.80408477783203,1,3,0,2,4,5,E-,1,5,5,400,600,250.0,5,E14DD,46,train
383.7411403656006,1,3,0,2,4,5,E-,1,3,1,400,600,250.0,3,E14DD,47,train
223.8020896911621,1,3,0,2,4,5,E-,1,2,3,400,600,250.0,2,E14DD,48,train
175.70209503173828,1,3,0,2,4,5,E-,1,0,2,400,600,250.0,0,E14DD,49,train
79.88905906677246,1,3,0,2,4,5,E-,1,1,0,400,600,250.0,1,E14DD,50,train
127.61592864990234,1,3,0,2,4,5,E-,1,2,3,400,600,250.0,2,E14DD,51,train
143.77999305725098,1,3,0,2,4,5,E-,1,5,5,400,600,250.0,5,E14DD,52,train
543.8559055328369,1,3,0,2,4,5,E-,1,1,0,400,600,250.0,1,E14DD,53,train
63.78602981567383,1,3,0,2,4,5,E-,1,0,2,400,600,250.0,0,E14DD,54,train
239.78805541992188,1,3,0,2,4,5,E-,1,4,4,400,600,250.0,4,E14DD,55,train
319.75293159484863,1,3,0,2,4,5,E-,1,2,3,400,600,250.0,2,E14DD,56,train
271.6948986053467,1,3,0,2,4,5,E-,1,4,4,400,600,250.0,4,E14DD,57,train
175.73308944702148,1,3,0,2,4,5,E-,0,3,1,400,600,250.0,2,E14DD,58,train
335.60991287231445,1,3,0,2,4,5,E-,1,4,4,400,600,250.0,4,E14DD,59,train
0.030994415283203125,1,3,0,2,4,5,E-,1,5,5,400,600,250.0,5,E14DD,60,train
303.68900299072266,1,3,0,2,4,5,E-,1,1,0,400,600,250.0,1,E14DD,61,train
191.7269229888916,1,3,0,2,4,5,E-,1,1,0,400,600,250.0,1,E14DD,62,train
159.72900390625,1,3,0,2,4,5,E-,1,2,3,400,600,250.0,2,E14DD,63,train
351.3309955596924,1,3,0,2,4,5,E-,1,4,4,400,600,250.0,4,E14DD,64,train
127.3341178894043,1,3,0,2,4,5,E-,1,0,2,400,600,250.0,0,E14DD,65,train
111.79494857788086,1,3,0,2,4,5,E-,1,1,0,400,600,250.0,1,E14DD,66,train
223.8330841064453,1,3,0,2,4,5,E-,1,0,2,400,600,250.0,0,E14DD,67,train
95.86405754089355,1,3,0,2,4,5,E-,1,1,0,400,600,250.0,1,E14DD,68,train
95.81899642944336,1,3,0,2,4,5,E-,0,5,5,400,600,250.0,4,E14DD,69,train
95.71099281311035,1,3,0,2,4,5,E-,1,5,5,400,600,250.0,5,E14DD,70,train
175.80604553222656,1,3,0,2,4,5,E-,1,0,2,400,600,250.0,0,E14DD,71,train
623.8570213317871,1,3,0,2,4,5,E-,1,3,1,400,600,250.0,3,E14DD,72,train
335.88504791259766,1,3,0,2,4,5,E-,1,2,3,400,600,250.0,2,E14DD,73,train
367.9189682006836,1,3,0,2,4,5,E-,1,4,4,400,600,250.0,4,E14DD,74,train
15.434026718139648,1,3,0,2,4,5,E-,1,5,5,400,600,250.0,5,E14DD,75,train
223.1919765472412,1,3,0,2,4,5,E-,1,3,1,400,600,250.0,3,E14DD,76,train
159.20591354370117,1,3,0,2,4,5,E-,1,3,1,400,600,250.0,3,E14DD,77,train
127.13980674743652,1,3,0,2,4,5,E-,1,0,2,400,600,250.0,0,E14DD,78,train
255.2649974822998,1,3,0,2,4,5,E-,1,3,1,400,600,250.0,3,E14DD,79,train
47.1959114074707,1,3,0,2,4,5,E-,1,3,1,400,600,250.0,3,E14DD,80,train
175.24194717407227,1,3,0,2,4,5,E-,0,2,3,400,600,250.0,1,E14DD,81,train
303.27296257019043,1,3,0,2,4,5,E-,1,4,4,400,600,250.0,4,E14DD,82,train
335.14404296875,1,3,0,2,4,5,E-,0,1,0,400,600,250.0,0,E14DD,83,train
127.70795822143555,1,3,0,2,4,5,E-,1,5,5,400,600,250.0,5,E14DD,84,train
207.74316787719727,1,3,0,2,4,5,E-,1,4,4,400,600,250.0,4,E14DD,85,train
239.4249439239502,1,3,0,2,4,5,E-,1,3,1,400,600,250.0,3,E14DD,86,train
367.3129081726074,1,3,0,2,4,5,E-,1,1,0,400,600,250.0,1,E14DD,87,train
223.22487831115723,1,3,0,2,4,5,E-,1,1,0,400,600,250.0,1,E14DD,88,train
303.21812629699707,1,3,0,2,4,5,E-,1,4,4,400,600,250.0,4,E14DD,89,train
303.2689094543457,1,3,0,2,4,5,E-,1,1,0,400,600,250.0,1,E14DD,90,train
111.23800277709961,1,3,0,2,4,5,E-,1,0,2,400,600,250.0,0,E14DD,91,train
238.58404159545898,1,3,0,2,4,5,E-,1,1,0,400,600,250.0,1,E14DD,92,train
239.22419548034668,1,3,0,2,4,5,E-,1,0,2,400,600,250.0,0,E14DD,93,train
239.09401893615723,1,3,0,2,4,5,E-,0,3,1,400,600,250.0,4,E14DD,94,train
431.10084533691406,1,3,0,2,4,5,E-,1,3,1,400,600,250.0,3,E14DD,95,train
175.11701583862305,1,3,0,2,4,5,E-,1,0,2,400,600,250.0,0,E14DD,96,train
207.27920532226562,1,3,0,2,4,5,E-,1,5,5,400,600,250.0,5,E14DD,97,train
159.1789722442627,1,3,0,2,4,5,E-,1,0,2,400,600,250.0,0,E14DD,98,train
95.22604942321777,1,3,0,2,4,5,E-,1,1,0,400,600,250.0,1,E14DD,99,train
575.2079486846924,1,3,0,2,4,5,E-,1,4,4,400,600,250.0,4,E14DD,100,train
191.1609172821045,1,3,0,2,4,5,E-,1,0,2,400,600,250.0,0,E14DD,101,train
207.21912384033203,1,3,0,2,4,5,E-,1,5,5,400,600,250.0,5,E14DD,102,train
159.20686721801758,1,3,0,2,4,5,E-,0,4,4,400,600,250.0,3,E14DD,103,train
399.20711517333984,1,3,0,2,4,5,E-,1,2,3,400,600,250.0,2,E14DD,104,train
143.18609237670898,1,3,0,2,4,5,E-,1,2,3,400,600,250.0,2,E14DD,105,train
143.21517944335938,1,3,0,2,4,5,E-,1,5,5,400,600,250.0,5,E14DD,106,train
287.24098205566406,1,3,0,2,4,5,E-,1,2,3,400,600,250.0,2,E14DD,107,train
303.24602127075195,1,3,0,2,4,5,E-,1,3,1,400,600,250.0,3,E14DD,108,train
287.24002838134766,1,3,0,2,4,5,E-,0,1,0,400,600,250.0,0,E14DD,109,train
287.16206550598145,1,3,0,2,4,5,E-,1,1,0,400,600,250.0,1,E14DD,110,train
127.2878646850586,1,3,0,2,4,5,E-,1,5,5,400,600,250.0,5,E14DD,111,train
111.18698120117188,1,3,0,2,4,5,E-,1,5,5,400,600,250.0,5,E14DD,112,train
223.1149673461914,1,3,0,2,4,5,E-,1,1,0,400,600,250.0,1,E14DD,113,train
223.30617904663086,1,3,0,2,4,5,E-,1,1,0,400,600,250.0,1,E14DD,114,train
287.20784187316895,1,3,0,2,4,5,E-,1,5,5,400,600,250.0,5,E14DD,115,train
927.2928237915039,1,3,0,2,4,5,E-,1,2,3,400,600,250.0,2,E14DD,116,train
671.2729930877686,1,3,0,2,4,5,E-,1,4,4,400,600,250.0,4,E14DD,117,train
895.3051567077637,1,3,0,2,4,5,E-,1,3,1,400,600,250.0,3,E14DD,118,train
415.33803939819336,1,3,0,2,4,5,E-,1,1,0,400,600,250.0,1,E14DD,119,train
271.27695083618164,1,3,0,2,4,5,E-,1,4,4,400,600,250.0,4,E14DD,120,train
127.11286544799805,1,3,0,2,4,5,E-,1,5,5,400,600,250.0,5,E14DD,121,train
159.22093391418457,1,3,0,2,4,5,E-,1,1,0,400,600,250.0,1,E14DD,122,train
142.8968906402588,1,3,0,2,4,5,E-,1,1,0,400,600,250.0,1,E14DD,123,train
111.26399040222168,1,3,0,2,4,5,E-,1,0,2,400,600,250.0,0,E14DD,124,train
127.20799446105957,1,3,0,2,4,5,E-,1,0,2,400,600,250.0,0,E14DD,125,train
463.2551670074463,1,3,0,2,4,5,E-,1,3,1,400,600,250.0,3,E14DD,126,train
255.2781105041504,1,3,0,2,4,5,E-,1,4,4,400,600,250.0,4,E14DD,127,train
207.20696449279785,1,3,0,2,4,5,E-,1,1,0,400,600,250.0,1,E14DD,128,train
255.20801544189453,1,3,0,2,4,5,E-,1,5,5,400,600,250.0,5,E14DD,129,train
367.1889305114746,1,3,0,2,4,5,E-,1,2,3,400,600,250.0,2,E14DD,130,train
62.58511543273926,1,3,0,2,4,5,E-,1,3,1,400,600,250.0,3,E14DD,131,train
271.23308181762695,1,3,0,2,4,5,E-,1,0,2,400,600,250.0,0,E14DD,132,train
287.2128486633301,1,3,0,2,4,5,E-,1,2,3,400,600,250.0,2,E14DD,133,train
191.14184379577637,1,3,0,2,4,5,E-,1,2,3,400,600,250.0,2,E14DD,134,train
271.2130546569824,1,3,0,2,4,5,E-,1,3,1,400,600,250.0,3,E14DD,135,train
319.28491592407227,1,3,0,2,4,5,E-,1,3,1,400,600,250.0,3,E14DD,136,train
271.3048458099365,1,3,0,2,4,5,E-,1,5,5,400,600,250.0,5,E14DD,137,train
639.1890048980713,1,3,0,2,4,5,E-,1,4,4,400,600,250.0,4,E14DD,138,train
31.302928924560547,1,3,0,2,4,5,E-,1,3,1,400,600,250.0,3,E14DD,139,train
447.24488258361816,1,3,0,2,4,5,E-,1,2,3,400,600,250.0,2,E14DD,140,train
255.16700744628906,1,3,0,2,4,5,E-,1,2,3,400,600,250.0,2,E14DD,141,train
367.24400520324707,1,3,0,2,4,5,E-,1,1,0,400,600,250.0,1,E14DD,142,train
191.2400722503662,1,3,0,2,4,5,E-,1,0,2,400,600,250.0,0,E14DD,143,train
207.23414421081543,1,3,0,2,4,5,E-,1,5,5,400,600,250.0,5,E14DD,144,train
79.23698425292969,1,3,0,2,4,5,E-,1,5,5,400,600,250.0,5,E14DD,145,train
175.19497871398926,1,3,0,2,4,5,E-,1,1,0,400,600,250.0,1,E14DD,146,train
191.13397598266602,1,3,0,2,4,5,E-,1,2,3,400,600,250.0,2,E14DD,147,train
255.2330493927002,1,3,0,2,4,5,E-,1,4,4,400,600,250.0,4,E14DD,148,train
271.20184898376465,1,3,0,2,4,5,E-,1,2,3,400,600,250.0,2,E14DD,149,train
287.294864654541,1,3,0,2,4,5,E-,1,1,0,400,600,250.0,1,E14DD,150,train
255.30314445495605,1,3,0,2,4,5,E-,1,2,3,400,600,250.0,2,E14DD,151,train
239.20702934265137,1,3,0,2,4,5,E-,1,4,4,400,600,250.0,4,E14DD,152,train
63.28892707824707,1,3,0,2,4,5,E-,1,4,4,400,600,250.0,4,E14DD,153,train
159.14297103881836,1,3,0,2,4,5,E-,1,4,4,400,600,250.0,4,E14DD,154,train
447.16596603393555,1,3,0,2,4,5,E-,1,2,3,400,600,250.0,2,E14DD,155,train
159.2860221862793,1,3,0,2,4,5,E-,1,1,0,400,600,250.0,1,E14DD,156,train
47.25480079650879,1,3,0,2,4,5,E-,1,1,0,400,600,250.0,1,E14DD,157,train
351.2380123138428,1,3,0,2,4,5,E-,1,4,4,400,600,250.0,4,E14DD,158,train
303.2090663909912,1,3,0,2,4,5,E-,1,2,3,400,600,250.0,2,E14DD,159,train
335.08896827697754,1,3,0,2,4,5,E-,1,2,3,400,600,250.0,2,E14DD,160,train
31.294822692871094,1,3,0,2,4,5,E-,1,2,3,400,600,250.0,2,E14DD,161,train
271.1620330810547,1,3,0,2,4,5,E-,1,3,1,400,600,250.0,3,E14DD,162,train
95.19195556640625,1,3,0,2,4,5,E-,1,4,4,400,600,250.0,4,E14DD,163,train
271.136999130249,1,3,0,2,4,5,E-,1,0,2,400,600,250.0,0,E14DD,164,train
191.17498397827148,1,3,0,2,4,5,E-,1,5,5,400,600,250.0,5,E14DD,165,train
335.33191680908203,1,3,0,2,4,5,E-,0,1,0,400,600,250.0,0,E14DD,166,train
175.31514167785645,1,3,0,2,4,5,E-,1,5,5,400,600,250.0,5,E14DD,167,train
159.84296798706055,1,3,0,2,4,5,E-,1,5,5,400,600,250.0,5,E14DD,168,train
127.72512435913086,1,3,0,2,4,5,E-,1,0,2,400,600,250.0,0,E14DD,169,train
47.84703254699707,1,3,0,2,4,5,E-,1,1,0,400,600,250.0,1,E14DD,170,train
127.76303291320801,1,3,0,2,4,5,E-,1,5,5,400,600,250.0,5,E14DD,171,train
255.83600997924805,1,3,0,2,4,5,E-,1,2,3,400,600,250.0,2,E14DD,172,train
271.867036819458,1,3,0,2,4,5,E-,1,3,1,400,600,250.0,3,E14DD,173,train
31.854867935180664,1,3,0,2,4,5,E-,1,4,4,400,600,250.0,4,E14DD,174,train
959.7921371459961,1,3,0,2,4,5,E-,0,1,0,400,600,250.0,0,E14DD,175,train
351.6709804534912,1,3,0,2,4,5,E-,1,1,0,400,600,250.0,1,E14DD,176,train
159.78002548217773,1,3,0,2,4,5,E-,1,5,5,400,600,250.0,5,E14DD,177,train
111.44399642944336,1,3,0,2,4,5,E-,1,0,2,400,600,250.0,0,E14DD,178,train
255.72896003723145,1,3,0,2,4,5,E-,1,3,1,400,600,250.0,3,E14DD,179,train
463.6988639831543,1,3,0,2,4,5,E-,1,3,1,400,600,250.0,3,E14DD,180,train
303.90214920043945,1,3,0,2,4,5,E-,1,1,0,400,600,250.0,1,E14DD,181,train
223.9220142364502,1,3,0,2,4,5,E-,1,5,5,400,600,250.0,5,E14DD,182,train
111.78207397460938,1,3,0,2,4,5,E-,1,0,2,400,600,250.0,0,E14DD,183,train
175.13203620910645,1,3,0,2,4,5,E-,1,4,4,400,600,250.0,4,E14DD,184,train
431.34117126464844,1,3,0,2,4,5,E-,1,2,3,400,600,250.0,2,E14DD,185,train
127.19202041625977,1,3,0,2,4,5,E-,1,0,2,400,600,250.0,0,E14DD,186,train
223.83904457092285,1,3,0,2,4,5,E-,1,2,3,400,600,250.0,2,E14DD,187,train
144.00100708007812,1,3,0,2,4,5,E-,1,4,4,400,600,250.0,4,E14DD,188,train
239.75801467895508,1,3,0,2,4,5,E-,1,2,3,400,600,250.0,2,E14DD,189,train
271.7318534851074,1,3,0,2,4,5,E-,1,2,3,400,600,250.0,2,E14DD,190,train
591.7840003967285,1,3,0,2,4,5,E-,1,5,5,400,600,250.0,5,E14DD,191,train
287.79101371765137,1,3,0,2,4,5,E-,1,4,4,400,600,250.0,4,E14DD,192,train
399.777889251709,1,3,0,2,4,5,E-,1,2,3,400,600,250.0,2,E14DD,193,train
303.74789237976074,1,3,0,2,4,5,E-,1,4,4,400,600,250.0,4,E14DD,194,train
175.74691772460938,1,3,0,2,4,5,E-,1,0,2,400,600,250.0,0,E14DD,195,train
207.75508880615234,1,3,0,2,4,5,E-,1,1,0,400,600,250.0,1,E14DD,196,train
143.94187927246094,1,3,0,2,4,5,E-,1,0,2,400,600,250.0,0,E14DD,197,train
271.81220054626465,1,3,0,2,4,5,E-,1,2,3,400,600,250.0,2,E14DD,198,train
159.70706939697266,1,3,0,2,4,5,E-,1,2,3,400,600,250.0,2,E14DD,199,train
223.71482849121094,1,3,0,2,4,5,E-,1,0,2,400,600,250.0,0,E14DD,200,train
495.76497077941895,1,3,0,2,4,5,E-,1,4,4,400,600,250.0,4,E14DD,201,train
303.8780689239502,1,3,0,2,4,5,E-,1,2,3,400,600,250.0,2,E14DD,202,train
207.65209197998047,1,3,0,2,4,5,E-,1,5,5,400,600,250.0,5,E14DD,203,train
239.60208892822266,1,3,0,2,4,5,E-,1,1,0,400,600,250.0,1,E14DD,204,train
287.2588634490967,1,3,0,2,4,5,E-,1,3,1,400,600,250.0,3,E14DD,205,train
175.2009391784668,1,3,0,2,4,5,E-,1,3,1,400,600,250.0,3,E14DD,206,train
335.2179527282715,1,3,0,2,4,5,E-,1,0,2,400,600,250.0,0,E14DD,207,train
47.27792739868164,1,3,0,2,4,5,E-,1,1,0,400,600,250.0,1,E14DD,208,train
271.2209224700928,1,3,0,2,4,5,E-,1,5,5,400,600,250.0,5,E14DD,209,train
287.16015815734863,1,3,0,2,4,5,E-,1,2,3,400,600,250.0,2,E14DD,210,train
127.17008590698242,1,3,0,2,4,5,E-,1,0,2,400,600,250.0,0,E14DD,211,train
31.308889389038086,1,3,0,2,4,5,E-,1,1,0,400,600,250.0,1,E14DD,212,train
303.2350540161133,1,3,0,2,4,5,E-,1,4,4,400,600,250.0,4,E14DD,213,train
255.234956741333,1,3,0,2,4,5,E-,1,2,3,400,600,250.0,2,E14DD,214,train
223.2229709625244,1,3,0,2,4,5,E-,1,1,0,400,600,250.0,1,E14DD,215,train
431.2148094177246,1,3,0,2,4,5,E-,1,5,5,400,600,250.0,5,E14DD,216,train
143.19515228271484,1,3,0,2,4,5,E-,1,2,3,400,600,250.0,2,E14DD,217,train
127.33101844787598,1,3,0,2,4,5,E-,1,5,5,400,600,250.0,5,E14DD,218,train
47.24311828613281,1,3,0,2,4,5,E-,1,0,2,400,600,250.0,0,E14DD,219,train
335.30306816101074,1,3,0,2,4,5,E-,1,2,3,400,600,250.0,2,E14DD,220,train
287.3048782348633,1,3,0,2,4,5,E-,1,4,4,400,600,250.0,4,E14DD,221,train
111.43112182617188,1,3,0,2,4,5,E-,1,0,2,400,600,250.0,0,E14DD,222,train
239.2120361328125,1,3,0,2,4,5,E-,1,5,5,400,600,250.0,5,E14DD,223,train
959.1550827026367,1,3,0,2,4,5,E-,1,2,3,400,600,250.0,2,E14DD,224,train
719.2420959472656,1,3,0,2,4,5,E-,1,3,1,400,600,250.0,3,E14DD,225,train
831.1870098114014,1,3,0,2,4,5,E-,1,4,4,400,600,250.0,4,E14DD,226,train
495.3339099884033,1,3,0,2,4,5,E-,1,3,1,400,600,250.0,3,E14DD,227,train
271.31104469299316,1,3,0,2,4,5,E-,1,4,4,400,600,250.0,4,E14DD,228,train
223.22511672973633,1,3,0,2,4,5,E-,1,0,2,400,600,250.0,0,E14DD,229,train
175.23503303527832,1,3,0,2,4,5,E-,0,3,1,400,600,250.0,4,E14DD,230,train
207.1070671081543,1,3,0,2,4,5,E-,1,0,2,400,600,250.0,0,E14DD,231,train
303.1909465789795,1,3,0,2,4,5,E-,1,3,1,400,600,250.0,3,E14DD,232,train
15.308141708374023,1,3,0,2,4,5,E-,1,4,4,400,600,250.0,4,E14DD,233,train
335.13808250427246,1,3,0,2,4,5,E-,0,1,0,400,600,250.0,0,E14DD,234,train
271.2891101837158,1,3,0,2,4,5,E-,1,2,3,400,600,250.0,2,E14DD,235,train
383.8181495666504,1,3,0,2,4,5,E-,1,2,3,400,600,250.0,2,E14DD,236,train
175.69899559020996,1,3,0,2,4,5,E-,1,0,2,400,600,250.0,0,E14DD,237,train
255.68604469299316,1,3,0,2,4,5,E-,1,2,3,400,600,250.0,2,E14DD,238,train
399.62005615234375,1,3,0,2,4,5,E-,1,5,5,400,600,250.0,5,E14DD,239,train
191.5719509124756,1,3,0,2,4,5,E-,1,4,4,400,600,250.0,4,E14DD,240,train
127.69913673400879,1,3,0,2,4,5,E-,1,5,5,400,600,250.0,5,E14DD,241,train
367.5708770751953,1,3,0,2,4,5,E-,1,1,0,400,600,250.0,1,E14DD,242,train
303.76386642456055,1,3,0,2,4,5,E-,1,1,0,400,600,250.0,1,E14DD,243,train
127.76803970336914,1,3,0,2,4,5,E-,1,0,2,400,600,250.0,0,E14DD,244,train
447.6950168609619,1,3,0,2,4,5,E-,1,0,2,400,600,250.0,0,E14DD,245,train
143.79215240478516,1,3,0,2,4,5,E-,1,1,0,400,600,250.0,1,E14DD,246,train
159.6689224243164,1,3,0,2,4,5,E-,1,1,0,400,600,250.0,1,E14DD,247,train
159.69514846801758,1,3,0,2,4,5,E-,1,0,2,400,600,250.0,0,E14DD,248,train
191.76793098449707,1,3,0,2,4,5,E-,1,5,5,400,600,250.0,5,E14DD,249,train
3344.9370861053467,3,5,1,4,0,2,E-,1,0,4,0,1000,250.0,0,E14DD,250,test
1296.8339920043945,3,5,1,4,0,2,E-,1,4,3,0,1000,250.0,4,E14DD,251,test
1232.957124710083,3,5,1,4,0,2,E-,1,2,5,0,1000,250.0,2,E14DD,252,test
1552.8929233551025,3,5,1,4,0,2,E-,1,5,1,0,1000,250.0,5,E14DD,253,test
1217.0569896697998,3,5,1,4,0,2,E-,0,1,2,0,1000,250.0,0,E14DD,254,test
1057.0440292358398,3,5,1,4,0,2,E-,1,0,4,0,1000,250.0,0,E14DD,255,test
1296.9889640808105,3,5,1,4,0,2,E-,1,0,4,0,1000,250.0,0,E14DD,256,test
1393.0671215057373,3,5,1,4,0,2,E-,1,1,2,0,1000,250.0,1,E14DD,257,test
1137.129783630371,3,5,1,4,0,2,E-,1,1,2,0,1000,250.0,1,E14DD,258,test
913.1700992584229,3,5,1,4,0,2,E-,1,0,4,0,1000,250.0,0,E14DD,259,test
1425.037145614624,3,5,1,4,0,2,E-,1,4,3,0,1000,250.0,4,E14DD,260,test
1537.0869636535645,3,5,1,4,0,2,E-,0,3,0,0,1000,250.0,4,E14DD,261,test
1009.1028213500977,3,5,1,4,0,2,E-,1,0,4,0,1000,250.0,0,E14DD,262,test
1488.9960289001465,3,5,1,4,0,2,E-,1,3,0,0,1000,250.0,3,E14DD,263,test
545.0870990753174,3,5,1,4,0,2,E-,1,3,0,0,1000,250.0,3,E14DD,264,test
2112.957000732422,3,5,1,4,0,2,E-,1,1,2,0,1000,250.0,1,E14DD,265,test
1409.092903137207,3,5,1,4,0,2,E-,1,4,3,0,1000,250.0,4,E14DD,266,test
1105.0240993499756,3,5,1,4,0,2,E-,1,1,2,0,1000,250.0,1,E14DD,267,test
1840.8331871032715,3,5,1,4,0,2,E-,1,2,5,0,1000,250.0,2,E14DD,268,test
1936.9878768920898,3,5,1,4,0,2,E-,1,3,0,0,1000,250.0,3,E14DD,269,test
736.9260787963867,3,5,1,4,0,2,E-,1,1,2,0,1000,250.0,1,E14DD,270,test
1104.9749851226807,3,5,1,4,0,2,E-,1,2,5,0,1000,250.0,2,E14DD,271,test
1408.8311195373535,3,5,1,4,0,2,E-,1,4,3,0,1000,250.0,4,E14DD,272,test
1873.0828762054443,3,5,1,4,0,2,E-,1,3,0,0,1000,250.0,3,E14DD,273,test
641.0839557647705,3,5,1,4,0,2,E-,1,0,4,0,1000,250.0,0,E14DD,274,test
720.9107875823975,3,5,1,4,0,2,E-,1,5,1,0,1000,250.0,5,E14DD,275,test
2065.1209354400635,3,5,1,4,0,2,E-,1,4,3,0,1000,250.0,4,E14DD,276,test
561.115026473999,3,5,1,4,0,2,E-,1,2,5,0,1000,250.0,2,E14DD,277,test
1152.799129486084,3,5,1,4,0,2,E-,1,4,3,0,1000,250.0,4,E14DD,278,test
481.0798168182373,3,5,1,4,0,2,E-,1,1,2,0,1000,250.0,1,E14DD,279,test
1280.940055847168,3,5,1,4,0,2,E-,0,3,0,0,1000,250.0,4,E14DD,280,test
848.933219909668,3,5,1,4,0,2,E-,1,0,4,0,1000,250.0,0,E14DD,281,test
1248.8789558410645,3,5,1,4,0,2,E-,1,2,5,0,1000,250.0,2,E14DD,282,test
1201.0672092437744,3,5,1,4,0,2,E-,1,4,3,0,1000,250.0,4,E14DD,283,test
1553.0650615692139,3,5,1,4,0,2,E-,1,3,0,0,1000,250.0,3,E14DD,284,test
929.1548728942871,3,5,1,4,0,2,E-,1,1,2,0,1000,250.0,1,E14DD,285,test
913.1851196289062,3,5,1,4,0,2,E-,0,3,0,0,1000,250.0,4,E14DD,286,test
1184.8208904266357,3,5,1,4,0,2,E-,1,5,1,0,1000,250.0,5,E14DD,287,test
1184.9689483642578,3,5,1,4,0,2,E-,1,3,0,0,1000,250.0,3,E14DD,288,test
720.7779884338379,3,5,1,4,0,2,E-,1,0,4,0,1000,250.0,0,E14DD,289,test
1104.8779487609863,3,5,1,4,0,2,E-,1,0,4,0,1000,250.0,0,E14DD,290,test
576.9739151000977,3,5,1,4,0,2,E-,1,1,2,0,1000,250.0,1,E14DD,291,test
609.0707778930664,3,5,1,4,0,2,E-,1,2,5,0,1000,250.0,2,E14DD,292,test
624.783992767334,3,5,1,4,0,2,E-,1,5,1,0,1000,250.0,5,E14DD,293,test
721.034049987793,3,5,1,4,0,2,E-,1,5,1,0,1000,250.0,5,E14DD,294,test
688.8949871063232,3,5,1,4,0,2,E-,1,2,5,0,1000,250.0,2,E14DD,295,test
672.9140281677246,3,5,1,4,0,2,E-,1,0,4,0,1000,250.0,0,E14DD,296,test
689.1570091247559,3,5,1,4,0,2,E-,1,1,2,0,1000,250.0,1,E14DD,297,test
784.9719524383545,3,5,1,4,0,2,E-,1,0,4,0,1000,250.0,0,E14DD,298,test
608.9169979095459,3,5,1,4,0,2,E-,1,1,2,0,1000,250.0,1,E14DD,299,test
801.1279106140137,3,5,1,4,0,2,E-,1,3,0,0,1000,250.0,3,E14DD,300,test
753.0810832977295,3,5,1,4,0,2,E-,0,4,3,0,1000,250.0,2,E14DD,301,test
609.1361045837402,3,5,1,4,0,2,E-,1,1,2,0,1000,250.0,1,E14DD,302,test
1232.7008247375488,3,5,1,4,0,2,E-,1,3,0,0,1000,250.0,3,E14DD,303,test
641.1440372467041,3,5,1,4,0,2,E-,1,0,4,0,1000,250.0,0,E14DD,304,test
928.6720752716064,3,5,1,4,0,2,E-,0,4,3,0,1000,250.0,2,E14DD,305,test
720.9410667419434,3,5,1,4,0,2,E-,1,5,1,0,1000,250.0,5,E14DD,306,test
704.8859596252441,3,5,1,4,0,2,E-,1,5,1,0,1000,250.0,5,E14DD,307,test
576.9100189208984,3,5,1,4,0,2,E-,1,1,2,0,1000,250.0,1,E14DD,308,test
672.9779243469238,3,5,1,4,0,2,E-,1,0,4,0,1000,250.0,0,E14DD,309,test
721.060037612915,3,5,1,4,0,2,E-,1,0,4,0,1000,250.0,0,E14DD,310,test
720.9570407867432,3,5,1,4,0,2,E-,1,1,2,0,1000,250.0,1,E14DD,311,test
1073.0648040771484,3,5,1,4,0,2,E-,1,2,5,0,1000,250.0,2,E14DD,312,test
705.0299644470215,3,5,1,4,0,2,E-,1,2,5,0,1000,250.0,2,E14DD,313,test
641.089916229248,3,5,1,4,0,2,E-,1,5,1,0,1000,250.0,5,E14DD,314,test
689.1200542449951,3,5,1,4,0,2,E-,1,5,1,0,1000,250.0,5,E14DD,315,test
1200.927972793579,3,5,1,4,0,2,E-,1,4,3,0,1000,250.0,4,E14DD,316,test
577.085018157959,3,5,1,4,0,2,E-,1,3,0,0,1000,250.0,3,E14DD,317,test
785.0160598754883,3,5,1,4,0,2,E-,1,2,5,0,1000,250.0,2,E14DD,318,test
657.0291519165039,3,5,1,4,0,2,E-,1,0,4,0,1000,250.0,0,E14DD,319,test
624.9921321868896,3,5,1,4,0,2,E-,1,3,0,0,1000,250.0,3,E14DD,320,test
784.9030494689941,3,5,1,4,0,2,E-,1,0,4,0,1000,250.0,0,E14DD,321,test
609.0788841247559,3,5,1,4,0,2,E-,1,5,1,0,1000,250.0,5,E14DD,322,test
849.107027053833,3,5,1,4,0,2,E-,0,4,3,0,1000,250.0,2,E14DD,323,test
945.1100826263428,3,5,1,4,0,2,E-,1,2,5,0,1000,250.0,2,E14DD,324,test
481.0681343078613,3,5,1,4,0,2,E-,1,3,0,0,1000,250.0,3,E14DD,325,test
1136.9671821594238,3,5,1,4,0,2,E-,1,4,3,0,1000,250.0,4,E14DD,326,test
817.0650005340576,3,5,1,4,0,2,E-,1,4,3,0,1000,250.0,4,E14DD,327,test
465.0309085845947,3,5,1,4,0,2,E-,1,4,3,0,1000,250.0,4,E14DD,328,test
592.9520130157471,3,5,1,4,0,2,E-,1,5,1,0,1000,250.0,5,E14DD,329,test
849.0829467773438,3,5,1,4,0,2,E-,1,2,5,0,1000,250.0,2,E14DD,330,test
656.9888591766357,3,5,1,4,0,2,E-,1,1,2,0,1000,250.0,1,E14DD,331,test
1025.1331329345703,3,5,1,4,0,2,E-,1,4,3,0,1000,250.0,4,E14DD,332,test
769.157886505127,3,5,1,4,0,2,E-,1,4,3,0,1000,250.0,4,E14DD,333,test
672.8649139404297,3,5,1,4,0,2,E-,1,1,2,0,1000,250.0,1,E14DD,334,test
1057.1088790893555,3,5,1,4,0,2,E-,1,4,3,0,1000,250.0,4,E14DD,335,test
688.8599395751953,3,5,1,4,0,2,E-,1,0,4,0,1000,250.0,0,E14DD,336,test
673.0411052703857,3,5,1,4,0,2,E-,1,0,4,0,1000,250.0,0,E14DD,337,test
912.9090309143066,3,5,1,4,0,2,E-,1,2,5,0,1000,250.0,2,E14DD,338,test
672.8789806365967,3,5,1,4,0,2,E-,1,1,2,0,1000,250.0,1,E14DD,339,test
752.979040145874,3,5,1,4,0,2,E-,1,2,5,0,1000,250.0,2,E14DD,340,test
624.9780654907227,3,5,1,4,0,2,E-,1,1,2,0,1000,250.0,1,E14DD,341,test
528.9320945739746,3,5,1,4,0,2,E-,1,0,4,0,1000,250.0,0,E14DD,342,test
1104.6240329742432,3,5,1,4,0,2,E-,1,4,3,0,1000,250.0,4,E14DD,343,test
673.1030941009521,3,5,1,4,0,2,E-,1,1,2,0,1000,250.0,1,E14DD,344,test
529.1018486022949,3,5,1,4,0,2,E-,1,1,2,0,1000,250.0,1,E14DD,345,test
576.8778324127197,3,5,1,4,0,2,E-,1,0,4,0,1000,250.0,0,E14DD,346,test
512.9349231719971,3,5,1,4,0,2,E-,1,5,1,0,1000,250.0,5,E14DD,347,test
1040.421962738037,3,5,1,4,0,2,E-,1,2,5,0,1000,250.0,2,E14DD,348,test
609.0140342712402,3,5,1,4,0,2,E-,1,0,4,0,1000,250.0,0,E14DD,349,test
592.8809642791748,3,5,1,4,0,2,E-,1,5,1,0,1000,250.0,5,E14DD,350,test
544.931173324585,3,5,1,4,0,2,E-,1,5,1,0,1000,250.0,5,E14DD,351,test
528.9020538330078,3,5,1,4,0,2,E-,1,5,1,0,1000,250.0,5,E14DD,352,test
576.8918991088867,3,5,1,4,0,2,E-,1,1,2,0,1000,250.0,1,E14DD,353,test
928.89404296875,3,5,1,4,0,2,E-,0,4,3,0,1000,250.0,5,E14DD,354,test
785.0899696350098,3,5,1,4,0,2,E-,1,1,2,0,1000,250.0,1,E14DD,355,test
721.1129665374756,3,5,1,4,0,2,E-,1,1,2,0,1000,250.0,1,E14DD,356,test
1184.9360466003418,3,5,1,4,0,2,E-,1,4,3,0,1000,250.0,4,E14DD,357,test
641.0670280456543,3,5,1,4,0,2,E-,1,4,3,0,1000,250.0,4,E14DD,358,test
800.961971282959,3,5,1,4,0,2,E-,1,2,5,0,1000,250.0,2,E14DD,359,test
641.1020755767822,3,5,1,4,0,2,E-,1,5,1,0,1000,250.0,5,E14DD,360,test
688.9739036560059,3,5,1,4,0,2,E-,1,0,4,0,1000,250.0,0,E14DD,361,test
720.7012176513672,3,5,1,4,0,2,E-,1,0,4,0,1000,250.0,0,E14DD,362,test
416.8851375579834,3,5,1,4,0,2,E-,1,0,4,0,1000,250.0,0,E14DD,363,test
976.9320487976074,3,5,1,4,0,2,E-,1,4,3,0,1000,250.0,4,E14DD,364,test
657.0479869842529,3,5,1,4,0,2,E-,1,2,5,0,1000,250.0,2,E14DD,365,test
640.8720016479492,3,5,1,4,0,2,E-,1,0,4,0,1000,250.0,0,E14DD,366,test
736.9270324707031,3,5,1,4,0,2,E-,0,4,3,0,1000,250.0,2,E14DD,367,test
576.8938064575195,3,5,1,4,0,2,E-,1,5,1,0,1000,250.0,5,E14DD,368,test
960.5979919433594,3,5,1,4,0,2,E-,1,4,3,0,1000,250.0,4,E14DD,369,test
672.8041172027588,3,5,1,4,0,2,E-,1,5,1,0,1000,250.0,5,E14DD,370,test
689.0468597412109,3,5,1,4,0,2,E-,1,1,2,0,1000,250.0,1,E14DD,371,test
560.9498023986816,3,5,1,4,0,2,E-,1,3,0,0,1000,250.0,3,E14DD,372,test
609.001874923706,3,5,1,4,0,2,E-,1,0,4,0,1000,250.0,0,E14DD,373,test
1152.358055114746,3,5,1,4,0,2,E-,1,2,5,0,1000,250.0,2,E14DD,374,test
592.4742221832275,3,5,1,4,0,2,E-,0,4,3,0,1000,250.0,5,E14DD,375,test
928.4160137176514,3,5,1,4,0,2,E-,1,3,0,0,1000,250.0,3,E14DD,376,test
656.4300060272217,3,5,1,4,0,2,E-,1,0,4,0,1000,250.0,0,E14DD,377,test
720.4110622406006,3,5,1,4,0,2,E-,1,2,5,0,1000,250.0,2,E14DD,378,test
592.4680233001709,3,5,1,4,0,2,E-,1,1,2,0,1000,250.0,1,E14DD,379,test
880.0070285797119,3,5,1,4,0,2,E-,1,3,0,0,1000,250.0,3,E14DD,380,test
592.4699306488037,3,5,1,4,0,2,E-,1,1,2,0,1000,250.0,1,E14DD,381,test
624.488115310669,3,5,1,4,0,2,E-,1,1,2,0,1000,250.0,1,E14DD,382,test
768.4879302978516,3,5,1,4,0,2,E-,1,4,3,0,1000,250.0,4,E14DD,383,test
688.5719299316406,3,5,1,4,0,2,E-,1,4,3,0,1000,250.0,4,E14DD,384,test
656.5489768981934,3,5,1,4,0,2,E-,1,2,5,0,1000,250.0,2,E14DD,385,test
608.3950996398926,3,5,1,4,0,2,E-,1,0,4,0,1000,250.0,0,E14DD,386,test
528.7020206451416,3,5,1,4,0,2,E-,1,1,2,0,1000,250.0,1,E14DD,387,test
528.407096862793,3,5,1,4,0,2,E-,0,3,0,0,1000,250.0,4,E14DD,388,test
720.4639911651611,3,5,1,4,0,2,E-,1,3,0,0,1000,250.0,3,E14DD,389,test
816.295862197876,3,5,1,4,0,2,E-,1,3,0,0,1000,250.0,3,E14DD,390,test
608.5309982299805,3,5,1,4,0,2,E-,1,5,1,0,1000,250.0,5,E14DD,391,test
656.4531326293945,3,5,1,4,0,2,E-,1,3,0,0,1000,250.0,3,E14DD,392,test
592.4570560455322,3,5,1,4,0,2,E-,1,1,2,0,1000,250.0,1,E14DD,393,test
1872.5519180297852,3,5,1,4,0,2,E-,1,4,3,0,1000,250.0,4,E14DD,394,test
752.4981498718262,3,5,1,4,0,2,E-,1,3,0,0,1000,250.0,3,E14DD,395,test
880.6078433990479,3,5,1,4,0,2,E-,1,2,5,0,1000,250.0,2,E14DD,396,test
1232.578992843628,3,5,1,4,0,2,E-,1,4,3,0,1000,250.0,4,E14DD,397,test
688.4889602661133,3,5,1,4,0,2,E-,1,0,4,0,1000,250.0,0,E14DD,398,test
640.0620937347412,3,5,1,4,0,2,E-,1,3,0,0,1000,250.0,3,E14DD,399,test
720.4430103302002,3,5,1,4,0,2,E-,1,2,5,0,1000,250.0,2,E14DD,400,test
544.4061756134033,3,5,1,4,0,2,E-,1,4,3,0,1000,250.0,4,E14DD,401,test
640.4201984405518,3,5,1,4,0,2,E-,1,0,4,0,1000,250.0,0,E14DD,402,test
656.4168930053711,3,5,1,4,0,2,E-,1,0,4,0,1000,250.0,0,E14DD,403,test
544.4459915161133,3,5,1,4,0,2,E-,1,1,2,0,1000,250.0,1,E14DD,404,test
640.4740810394287,3,5,1,4,0,2,E-,1,5,1,0,1000,250.0,5,E14DD,405,test
672.529935836792,3,5,1,4,0,2,E-,1,0,4,0,1000,250.0,0,E14DD,406,test
480.4339408874512,3,5,1,4,0,2,E-,1,1,2,0,1000,250.0,1,E14DD,407,test
1200.4270553588867,3,5,1,4,0,2,E-,1,4,3,0,1000,250.0,4,E14DD,408,test
816.4207935333252,3,5,1,4,0,2,E-,1,2,5,0,1000,250.0,2,E14DD,409,test
656.3899517059326,3,5,1,4,0,2,E-,1,5,1,0,1000,250.0,5,E14DD,410,test
688.493013381958,3,5,1,4,0,2,E-,1,1,2,0,1000,250.0,1,E14DD,411,test
1632.3909759521484,3,5,1,4,0,2,E-,1,3,0,0,1000,250.0,3,E14DD,412,test
1008.4409713745117,3,5,1,4,0,2,E-,1,4,3,0,1000,250.0,4,E14DD,413,test
656.3630104064941,3,5,1,4,0,2,E-,1,0,4,0,1000,250.0,0,E14DD,414,test
688.5900497436523,3,5,1,4,0,2,E-,1,3,0,0,1000,250.0,3,E14DD,415,test
592.6039218902588,3,5,1,4,0,2,E-,1,5,1,0,1000,250.0,5,E14DD,416,test
960.5069160461426,3,5,1,4,0,2,E-,0,2,5,0,1000,250.0,4,E14DD,417,test
944.547176361084,3,5,1,4,0,2,E-,1,4,3,0,1000,250.0,4,E14DD,418,test
592.5719738006592,3,5,1,4,0,2,E-,1,1,2,0,1000,250.0,1,E14DD,419,test
544.5759296417236,3,5,1,4,0,2,E-,1,1,2,0,1000,250.0,1,E14DD,420,test
984.7080707550049,3,5,1,4,0,2,E-,1,2,5,0,1000,250.0,2,E14DD,421,test
448.7740993499756,3,5,1,4,0,2,E-,1,4,3,0,1000,250.0,4,E14DD,422,test
464.79201316833496,3,5,1,4,0,2,E-,0,4,3,0,1000,250.0,2,E14DD,423,test
897.083044052124,3,5,1,4,0,2,E-,1,3,0,0,1000,250.0,3,E14DD,424,test
672.8940010070801,3,5,1,4,0,2,E-,1,5,1,0,1000,250.0,5,E14DD,425,test
1169.0070629119873,3,5,1,4,0,2,E-,1,2,5,0,1000,250.0,2,E14DD,426,test
721.0738658905029,3,5,1,4,0,2,E-,1,3,0,0,1000,250.0,3,E14DD,427,test
608.957052230835,3,5,1,4,0,2,E-,1,0,4,0,1000,250.0,0,E14DD,428,test
832.9579830169678,3,5,1,4,0,2,E-,1,0,4,0,1000,250.0,0,E14DD,429,test
640.9311294555664,3,5,1,4,0,2,E-,1,1,2,0,1000,250.0,1,E14DD,430,test
608.9730262756348,3,5,1,4,0,2,E-,1,0,4,0,1000,250.0,0,E14DD,431,test
560.9109401702881,3,5,1,4,0,2,E-,1,5,1,0,1000,250.0,5,E14DD,432,test
1328.956127166748,3,5,1,4,0,2,E-,1,4,3,0,1000,250.0,4,E14DD,433,test
609.0779304504395,3,5,1,4,0,2,E-,1,5,1,0,1000,250.0,5,E14DD,434,test
1136.913776397705,3,5,1,4,0,2,E-,1,2,5,0,1000,250.0,2,E14DD,435,test
609.0998649597168,3,5,1,4,0,2,E-,1,5,1,0,1000,250.0,5,E14DD,436,test
672.9409694671631,3,5,1,4,0,2,E-,1,5,1,0,1000,250.0,5,E14DD,437,test
560.9769821166992,3,5,1,4,0,2,E-,1,5,1,0,1000,250.0,5,E14DD,438,test
720.9310531616211,3,5,1,4,0,2,E-,1,3,0,0,1000,250.0,3,E14DD,439,test
1089.1339778900146,3,5,1,4,0,2,E-,1,4,3,0,1000,250.0,4,E14DD,440,test
705.0881385803223,3,5,1,4,0,2,E-,1,3,0,0,1000,250.0,3,E14DD,441,test
945.0979232788086,3,5,1,4,0,2,E-,1,1,2,0,1000,250.0,1,E14DD,442,test
721.1120128631592,3,5,1,4,0,2,E-,1,5,1,0,1000,250.0,5,E14DD,443,test
944.9770450592041,3,5,1,4,0,2,E-,1,2,5,0,1000,250.0,2,E14DD,444,test
880.6331157684326,3,5,1,4,0,2,E-,1,3,0,0,1000,250.0,3,E14DD,445,test
640.9718990325928,3,5,1,4,0,2,E-,1,5,1,0,1000,250.0,5,E14DD,446,test
800.8949756622314,3,5,1,4,0,2,E-,1,2,5,0,1000,250.0,2,E14DD,447,test
512.8159523010254,3,5,1,4,0,2,E-,1,2,5,0,1000,250.0,2,E14DD,448,test
896.9922065734863,3,5,1,4,0,2,E-,1,4,3,0,1000,250.0,4,E14DD,449,test
753.0999183654785,3,5,1,4,0,2,E-,1,4,3,0,1000,250.0,4,E14DD,450,test
896.9161510467529,3,5,1,4,0,2,E-,1,0,4,0,1000,250.0,0,E14DD,451,test
913.0220413208008,3,5,1,4,0,2,E-,1,0,4,0,1000,250.0,0,E14DD,452,test
1009.0949535369873,3,5,1,4,0,2,E-,1,3,0,0,1000,250.0,3,E14DD,453,test
625.1158714294434,3,5,1,4,0,2,E-,1,0,4,0,1000,250.0,0,E14DD,454,test
641.0319805145264,3,5,1,4,0,2,E-,1,5,1,0,1000,250.0,5,E14DD,455,test
832.9408168792725,3,5,1,4,0,2,E-,1,3,0,0,1000,250.0,3,E14DD,456,test
592.8659439086914,3,5,1,4,0,2,E-,1,0,4,0,1000,250.0,0,E14DD,457,test
656.9230556488037,3,5,1,4,0,2,E-,1,0,4,0,1000,250.0,0,E14DD,458,test
561.0010623931885,3,5,1,4,0,2,E-,1,0,4,0,1000,250.0,0,E14DD,459,test
704.9689292907715,3,5,1,4,0,2,E-,1,0,4,0,1000,250.0,0,E14DD,460,test
688.8830661773682,3,5,1,4,0,2,E-,1,0,4,0,1000,250.0,0,E14DD,461,test
768.967866897583,3,5,1,4,0,2,E-,1,3,0,0,1000,250.0,3,E14DD,462,test
592.940092086792,3,5,1,4,0,2,E-,1,3,0,0,1000,250.0,3,E14DD,463,test
752.9430389404297,3,5,1,4,0,2,E-,1,5,1,0,1000,250.0,5,E14DD,464,test
1089.1120433807373,3,5,1,4,0,2,E-,1,2,5,0,1000,250.0,2,E14DD,465,test
641.0038471221924,3,5,1,4,0,2,E-,1,0,4,0,1000,250.0,0,E14DD,466,test
656.8830013275146,3,5,1,4,0,2,E-,1,1,2,0,1000,250.0,1,E14DD,467,test
673.084020614624,3,5,1,4,0,2,E-,1,3,0,0,1000,250.0,3,E14DD,468,test
608.9038848876953,3,5,1,4,0,2,E-,1,0,4,0,1000,250.0,0,E14DD,469,test
1073.0340480804443,3,5,1,4,0,2,E-,1,2,5,0,1000,250.0,2,E14DD,470,test
625.0720024108887,3,5,1,4,0,2,E-,1,0,4,0,1000,250.0,0,E14DD,471,test
704.8580646514893,3,5,1,4,0,2,E-,1,1,2,0,1000,250.0,1,E14DD,472,test
1041.0230159759521,3,5,1,4,0,2,E-,1,3,0,0,1000,250.0,3,E14DD,473,test
1280.9338569641113,3,5,1,4,0,2,E-,1,4,3,0,1000,250.0,4,E14DD,474,test
608.9448928833008,3,5,1,4,0,2,E-,1,0,4,0,1000,250.0,0,E14DD,475,test
640.967845916748,3,5,1,4,0,2,E-,1,3,0,0,1000,250.0,3,E14DD,476,test
720.9839820861816,3,5,1,4,0,2,E-,1,0,4,0,1000,250.0,0,E14DD,477,test
960.2558612823486,3,5,1,4,0,2,E-,1,2,5,0,1000,250.0,2,E14DD,478,test
1248.9368915557861,3,5,1,4,0,2,E-,1,2,5,0,1000,250.0,2,E14DD,479,test
705.0127983093262,3,5,1,4,0,2,E-,1,3,0,0,1000,250.0,3,E14DD,480,test
721.0891246795654,3,5,1,4,0,2,E-,1,2,5,0,1000,250.0,2,E14DD,481,test
705.0600051879883,3,5,1,4,0,2,E-,1,4,3,0,1000,250.0,4,E14DD,482,test
721.0760116577148,3,5,1,4,0,2,E-,1,3,0,0,1000,250.0,3,E14DD,483,test
705.0421237945557,3,5,1,4,0,2,E-,1,1,2,0,1000,250.0,1,E14DD,484,test
641.0160064697266,3,5,1,4,0,2,E-,1,5,1,0,1000,250.0,5,E14DD,485,test
640.9931182861328,3,5,1,4,0,2,E-,1,3,0,0,1000,250.0,3,E14DD,486,test
656.8019390106201,3,5,1,4,0,2,E-,1,3,0,0,1000,250.0,3,E14DD,487,test
849.0588665008545,3,5,1,4,0,2,E-,1,5,1,0,1000,250.0,5,E14DD,488,test
561.0599517822266,3,5,1,4,0,2,E-,1,5,1,0,1000,250.0,5,E14DD,489,test
513.1289958953857,3,5,1,4,0,2,E-,1,5,1,0,1000,250.0,5,E14DD,490,test
656.9480895996094,3,5,1,4,0,2,E-,1,3,0,0,1000,250.0,3,E14DD,491,test
480.3590774536133,3,5,1,4,0,2,E-,1,5,1,0,1000,250.0,5,E14DD,492,test
560.4000091552734,3,5,1,4,0,2,E-,1,1,2,0,1000,250.0,1,E14DD,493,test
624.4759559631348,3,5,1,4,0,2,E-,1,1,2,0,1000,250.0,1,E14DD,494,test
592.5459861755371,3,5,1,4,0,2,E-,1,3,0,0,1000,250.0,3,E14DD,495,test
560.4648590087891,3,5,1,4,0,2,E-,1,3,0,0,1000,250.0,3,E14DD,496,test
656.437873840332,3,5,1,4,0,2,E-,1,0,4,0,1000,250.0,0,E14DD,497,test
720.4060554504395,3,5,1,4,0,2,E-,1,4,3,0,1000,250.0,4,E14DD,498,test
784.5838069915771,3,5,1,4,0,2,E-,1,2,5,0,1000,250.0,2,E14DD,499,test
