RT,SRmap_0,SRmap_1,SRmap_2,SRmap_3,SRmap_4,SRmap_5,condition,correct,correct_response,curstim,ms-precue,ms-prestimblank,ntrials,response,subject,trial,type
4993.046045303345,4,0,1,5,3,2,H+,1,2,5,0,1000,250.0,2,c09jt,0,train
1811.311960220337,4,0,1,5,3,2,H+,1,1,2,0,1000,250.0,1,c09jt,1,train
1345.201015472412,4,0,1,5,3,2,H+,1,5,3,0,1000,250.0,5,c09jt,2,train
1297.1711158752441,4,0,1,5,3,2,H+,1,4,0,0,1000,250.0,4,c09jt,3,train
817.0771598815918,4,0,1,5,3,2,H+,1,0,1,0,1000,250.0,0,c09jt,4,train
1521.1079120635986,4,0,1,5,3,2,H+,1,4,0,0,1000,250.0,4,c09jt,5,train
737.1108531951904,4,0,1,5,3,2,H+,1,2,5,0,1000,250.0,2,c09jt,6,train
641.075849533081,4,0,1,5,3,2,H+,1,5,3,0,1000,250.0,5,c09jt,7,train
816.9858455657959,4,0,1,5,3,2,H+,1,2,5,0,1000,250.0,2,c09jt,8,train
784.916877746582,4,0,1,5,3,2,H+,1,5,3,0,1000,250.0,5,c09jt,9,train
849.0920066833496,4,0,1,5,3,2,H+,1,4,0,0,1000,250.0,4,c09jt,10,train
609.1630458831787,4,0,1,5,3,2,H+,1,0,1,0,1000,250.0,0,c09jt,11,train
689.02587890625,4,0,1,5,3,2,H+,1,2,5,0,1000,250.0,2,c09jt,12,train
529.1118621826172,4,0,1,5,3,2,H+,1,0,1,0,1000,250.0,0,c09jt,13,train
1057.2938919067383,4,0,1,5,3,2,H+,1,3,4,0,1000,250.0,3,c09jt,14,train
449.0530490875244,4,0,1,5,3,2,H+,1,5,3,0,1000,250.0,5,c09jt,15,train
785.1371765136719,4,0,1,5,3,2,H+,1,2,5,0,1000,250.0,2,c09jt,16,train
609.0540885925293,4,0,1,5,3,2,H+,1,1,2,0,1000,250.0,1,c09jt,17,train
545.245885848999,4,0,1,5,3,2,H+,1,0,1,0,1000,250.0,0,c09jt,18,train
529.1709899902344,4,0,1,5,3,2,H+,1,2,5,0,1000,250.0,2,c09jt,19,train
369.1840171813965,4,0,1,5,3,2,H+,0,4,0,0,1000,250.0,5,c09jt,20,train
673.0470657348633,4,0,1,5,3,2,H+,1,2,5,0,1000,250.0,2,c09jt,21,train
529.0970802307129,4,0,1,5,3,2,H+,0,1,2,0,1000,250.0,0,c09jt,22,train
512.9959583282471,4,0,1,5,3,2,H+,1,0,1,0,1000,250.0,0,c09jt,23,train
288.99598121643066,4,0,1,5,3,2,H+,1,2,5,0,1000,250.0,2,c09jt,24,train
494.6749210357666,4,0,1,5,3,2,H+,1,1,2,0,1000,250.0,1,c09jt,25,train
673.0351448059082,4,0,1,5,3,2,H+,1,2,5,0,1000,250.0,2,c09jt,26,train
1089.0769958496094,4,0,1,5,3,2,H+,1,3,4,0,1000,250.0,3,c09jt,27,train
399.9640941619873,4,0,1,5,3,2,H+,1,3,4,0,1000,250.0,3,c09jt,28,train
496.64998054504395,4,0,1,5,3,2,H+,1,2,5,0,1000,250.0,2,c09jt,29,train
657.0460796356201,4,0,1,5,3,2,H+,1,2,5,0,1000,250.0,2,c09jt,30,train
353.00612449645996,4,0,1,5,3,2,H+,1,2,5,0,1000,250.0,2,c09jt,31,train
702.7101516723633,4,0,1,5,3,2,H+,1,1,2,0,1000,250.0,1,c09jt,32,train
1200.814962387085,4,0,1,5,3,2,H+,1,5,3,0,1000,250.0,5,c09jt,33,train
449.07093048095703,4,0,1,5,3,2,H+,1,0,1,0,1000,250.0,0,c09jt,34,train
481.04286193847656,4,0,1,5,3,2,H+,1,5,3,0,1000,250.0,5,c09jt,35,train
1393.0280208587646,4,0,1,5,3,2,H+,1,4,0,0,1000,250.0,4,c09jt,36,train
641.1030292510986,4,0,1,5,3,2,H+,1,1,2,0,1000,250.0,1,c09jt,37,train
849.066972732544,4,0,1,5,3,2,H+,1,3,4,0,1000,250.0,3,c09jt,38,train
528.8958549499512,4,0,1,5,3,2,H+,1,2,5,0,1000,250.0,2,c09jt,39,train
561.1660480499268,4,0,1,5,3,2,H+,0,3,4,0,1000,250.0,4,c09jt,40,train
608.2630157470703,4,0,1,5,3,2,H+,1,2,5,0,1000,250.0,2,c09jt,41,train
576.9531726837158,4,0,1,5,3,2,H+,1,0,1,0,1000,250.0,0,c09jt,42,train
1057.0850372314453,4,0,1,5,3,2,H+,1,3,4,0,1000,250.0,3,c09jt,43,train
1121.0191249847412,4,0,1,5,3,2,H+,1,4,0,0,1000,250.0,4,c09jt,44,train
481.0938835144043,4,0,1,5,3,2,H+,1,2,5,0,1000,250.0,2,c09jt,45,train
497.0359802246094,4,0,1,5,3,2,H+,1,2,5,0,1000,250.0,2,c09jt,46,train
705.0919532775879,4,0,1,5,3,2,H+,0,0,1,0,1000,250.0,1,c09jt,47,train
609.2710494995117,4,0,1,5,3,2,H+,1,5,3,0,1000,250.0,5,c09jt,48,train
1009.239912033081,4,0,1,5,3,2,H+,1,3,4,0,1000,250.0,3,c09jt,49,train
481.0678958892822,4,0,1,5,3,2,H+,1,2,5,0,1000,250.0,2,c09jt,50,train
641.1030292510986,4,0,1,5,3,2,H+,1,1,2,0,1000,250.0,1,c09jt,51,train
609.0340614318848,4,0,1,5,3,2,H+,0,4,0,0,1000,250.0,3,c09jt,52,train
513.9892101287842,4,0,1,5,3,2,H+,1,1,2,0,1000,250.0,1,c09jt,53,train
465.0430679321289,4,0,1,5,3,2,H+,1,0,1,0,1000,250.0,0,c09jt,54,train
384.9949836730957,4,0,1,5,3,2,H+,0,0,1,0,1000,250.0,5,c09jt,55,train
576.9608020782471,4,0,1,5,3,2,H+,0,1,2,0,1000,250.0,0,c09jt,56,train
640.8200263977051,4,0,1,5,3,2,H+,1,1,2,0,1000,250.0,1,c09jt,57,train
961.097002029419,4,0,1,5,3,2,H+,1,3,4,0,1000,250.0,3,c09jt,58,train
593.0898189544678,4,0,1,5,3,2,H+,1,2,5,0,1000,250.0,2,c09jt,59,train
593.0910110473633,4,0,1,5,3,2,H+,1,0,1,0,1000,250.0,0,c09jt,60,train
657.0470333099365,4,0,1,5,3,2,H+,1,3,4,0,1000,250.0,3,c09jt,61,train
593.2319164276123,4,0,1,5,3,2,H+,1,3,4,0,1000,250.0,3,c09jt,62,train
560.3179931640625,4,0,1,5,3,2,H+,1,1,2,0,1000,250.0,1,c09jt,63,train
561.2039566040039,4,0,1,5,3,2,H+,1,5,3,0,1000,250.0,5,c09jt,64,train
673.0420589447021,4,0,1,5,3,2,H+,1,2,5,0,1000,250.0,2,c09jt,65,train
657.2680473327637,4,0,1,5,3,2,H+,1,1,2,0,1000,250.0,1,c09jt,66,train
881.004810333252,4,0,1,5,3,2,H+,0,4,0,0,1000,250.0,5,c09jt,67,train
417.2048568725586,4,0,1,5,3,2,H+,1,4,0,0,1000,250.0,4,c09jt,68,train
625.1039505004883,4,0,1,5,3,2,H+,1,0,1,0,1000,250.0,0,c09jt,69,train
513.1978988647461,4,0,1,5,3,2,H+,1,0,1,0,1000,250.0,0,c09jt,70,train
544.9240207672119,4,0,1,5,3,2,H+,1,1,2,0,1000,250.0,1,c09jt,71,train
1089.0491008758545,4,0,1,5,3,2,H+,0,4,0,0,1000,250.0,5,c09jt,72,train
625.0298023223877,4,0,1,5,3,2,H+,1,0,1,0,1000,250.0,0,c09jt,73,train
1521.0299491882324,4,0,1,5,3,2,H+,1,3,4,0,1000,250.0,3,c09jt,74,train
1056.9698810577393,4,0,1,5,3,2,H+,1,0,1,0,1000,250.0,0,c09jt,75,train
624.9659061431885,4,0,1,5,3,2,H+,1,1,2,0,1000,250.0,1,c09jt,76,train
513.016939163208,4,0,1,5,3,2,H+,1,1,2,0,1000,250.0,1,c09jt,77,train
561.0098838806152,4,0,1,5,3,2,H+,1,2,5,0,1000,250.0,2,c09jt,78,train
849.0359783172607,4,0,1,5,3,2,H+,1,2,5,0,1000,250.0,2,c09jt,79,train
913.1190776824951,4,0,1,5,3,2,H+,1,3,4,0,1000,250.0,3,c09jt,80,train
577.0211219787598,4,0,1,5,3,2,H+,1,0,1,0,1000,250.0,0,c09jt,81,train
849.0028381347656,4,0,1,5,3,2,H+,1,3,4,0,1000,250.0,3,c09jt,82,train
593.0728912353516,4,0,1,5,3,2,H+,1,1,2,0,1000,250.0,1,c09jt,83,train
689.1300678253174,4,0,1,5,3,2,H+,1,2,5,0,1000,250.0,2,c09jt,84,train
1136.941909790039,4,0,1,5,3,2,H+,1,3,4,0,1000,250.0,3,c09jt,85,train
465.0309085845947,4,0,1,5,3,2,H+,1,3,4,0,1000,250.0,3,c09jt,86,train
625.0030994415283,4,0,1,5,3,2,H+,1,5,3,0,1000,250.0,5,c09jt,87,train
560.981035232544,4,0,1,5,3,2,H+,1,2,5,0,1000,250.0,2,c09jt,88,train
577.1729946136475,4,0,1,5,3,2,H+,1,0,1,0,1000,250.0,0,c09jt,89,train
481.0190200805664,4,0,1,5,3,2,H+,1,5,3,0,1000,250.0,5,c09jt,90,train
497.04909324645996,4,0,1,5,3,2,H+,1,1,2,0,1000,250.0,1,c09jt,91,train
577.0859718322754,4,0,1,5,3,2,H+,1,0,1,0,1000,250.0,0,c09jt,92,train
737.2350692749023,4,0,1,5,3,2,H+,0,3,4,0,1000,250.0,2,c09jt,93,train
560.960054397583,4,0,1,5,3,2,H+,1,0,1,0,1000,250.0,0,c09jt,94,train
528.9881229400635,4,0,1,5,3,2,H+,1,1,2,0,1000,250.0,1,c09jt,95,train
817.1179294586182,4,0,1,5,3,2,H+,1,3,4,0,1000,250.0,3,c09jt,96,train
833.0769538879395,4,0,1,5,3,2,H+,1,2,5,0,1000,250.0,2,c09jt,97,train
544.9800491333008,4,0,1,5,3,2,H+,1,4,0,0,1000,250.0,4,c09jt,98,train
529.041051864624,4,0,1,5,3,2,H+,1,2,5,0,1000,250.0,2,c09jt,99,train
737.0250225067139,4,0,1,5,3,2,H+,1,4,0,0,1000,250.0,4,c09jt,100,train
560.945987701416,4,0,1,5,3,2,H+,1,0,1,0,1000,250.0,0,c09jt,101,train
528.9309024810791,4,0,1,5,3,2,H+,1,5,3,0,1000,250.0,5,c09jt,102,train
494.7230815887451,4,0,1,5,3,2,H+,1,4,0,0,1000,250.0,4,c09jt,103,train
385.0409984588623,4,0,1,5,3,2,H+,1,3,4,0,1000,250.0,3,c09jt,104,train
465.1181697845459,4,0,1,5,3,2,H+,1,5,3,0,1000,250.0,5,c09jt,105,train
817.1951770782471,4,0,1,5,3,2,H+,1,1,2,0,1000,250.0,1,c09jt,106,train
416.93782806396484,4,0,1,5,3,2,H+,1,1,2,0,1000,250.0,1,c09jt,107,train
369.1880702972412,4,0,1,5,3,2,H+,0,4,0,0,1000,250.0,0,c09jt,108,train
529.0589332580566,4,0,1,5,3,2,H+,1,1,2,0,1000,250.0,1,c09jt,109,train
400.86817741394043,4,0,1,5,3,2,H+,0,0,1,0,1000,250.0,5,c09jt,110,train
657.0310592651367,4,0,1,5,3,2,H+,1,2,5,0,1000,250.0,2,c09jt,111,train
561.0241889953613,4,0,1,5,3,2,H+,1,5,3,0,1000,250.0,5,c09jt,112,train
510.6229782104492,4,0,1,5,3,2,H+,1,1,2,0,1000,250.0,1,c09jt,113,train
449.14698600769043,4,0,1,5,3,2,H+,1,4,0,0,1000,250.0,4,c09jt,114,train
335.0789546966553,4,0,1,5,3,2,H+,1,3,4,0,1000,250.0,3,c09jt,115,train
496.992826461792,4,0,1,5,3,2,H+,1,0,1,0,1000,250.0,0,c09jt,116,train
1742.659091949463,4,0,1,5,3,2,H+,1,4,0,0,1000,250.0,4,c09jt,117,train
528.8619995117188,4,0,1,5,3,2,H+,1,1,2,0,1000,250.0,1,c09jt,118,train
1281.1620235443115,4,0,1,5,3,2,H+,1,3,4,0,1000,250.0,3,c09jt,119,train
481.0910224914551,4,0,1,5,3,2,H+,1,0,1,0,1000,250.0,0,c09jt,120,train
817.0938491821289,4,0,1,5,3,2,H+,1,2,5,0,1000,250.0,2,c09jt,121,train
912.9629135131836,4,0,1,5,3,2,H+,1,4,0,0,1000,250.0,4,c09jt,122,train
769.2089080810547,4,0,1,5,3,2,H+,1,3,4,0,1000,250.0,3,c09jt,123,train
497.13706970214844,4,0,1,5,3,2,H+,1,0,1,0,1000,250.0,0,c09jt,124,train
625.0650882720947,4,0,1,5,3,2,H+,1,3,4,0,1000,250.0,3,c09jt,125,train
497.2109794616699,4,0,1,5,3,2,H+,1,5,3,0,1000,250.0,5,c09jt,126,train
833.2040309906006,4,0,1,5,3,2,H+,1,4,0,0,1000,250.0,4,c09jt,127,train
545.2311038970947,4,0,1,5,3,2,H+,1,5,3,0,1000,250.0,5,c09jt,128,train
769.0901756286621,4,0,1,5,3,2,H+,1,2,5,0,1000,250.0,2,c09jt,129,train
593.0259227752686,4,0,1,5,3,2,H+,1,0,1,0,1000,250.0,0,c09jt,130,train
544.4619655609131,4,0,1,5,3,2,H+,1,2,5,0,1000,250.0,2,c09jt,131,train
513.0798816680908,4,0,1,5,3,2,H+,1,0,1,0,1000,250.0,0,c09jt,132,train
529.0350914001465,4,0,1,5,3,2,H+,1,2,5,0,1000,250.0,2,c09jt,133,train
480.928897857666,4,0,1,5,3,2,H+,1,5,3,0,1000,250.0,5,c09jt,134,train
608.9859008789062,4,0,1,5,3,2,H+,1,2,5,0,1000,250.0,2,c09jt,135,train
624.7878074645996,4,0,1,5,3,2,H+,0,4,0,0,1000,250.0,3,c09jt,136,train
689.0079975128174,4,0,1,5,3,2,H+,1,3,4,0,1000,250.0,3,c09jt,137,train
416.9139862060547,4,0,1,5,3,2,H+,0,5,3,0,1000,250.0,4,c09jt,138,train
577.0711898803711,4,0,1,5,3,2,H+,1,5,3,0,1000,250.0,5,c09jt,139,train
561.0699653625488,4,0,1,5,3,2,H+,1,3,4,0,1000,250.0,3,c09jt,140,train
688.9698505401611,4,0,1,5,3,2,H+,1,4,0,0,1000,250.0,4,c09jt,141,train
784.9929332733154,4,0,1,5,3,2,H+,1,4,0,0,1000,250.0,4,c09jt,142,train
433.05301666259766,4,0,1,5,3,2,H+,1,5,3,0,1000,250.0,5,c09jt,143,train
897.0980644226074,4,0,1,5,3,2,H+,1,2,5,0,1000,250.0,2,c09jt,144,train
561.0198974609375,4,0,1,5,3,2,H+,1,2,5,0,1000,250.0,2,c09jt,145,train
800.9998798370361,4,0,1,5,3,2,H+,1,4,0,0,1000,250.0,4,c09jt,146,train
737.0069026947021,4,0,1,5,3,2,H+,1,2,5,0,1000,250.0,2,c09jt,147,train
849.0321636199951,4,0,1,5,3,2,H+,1,4,0,0,1000,250.0,4,c09jt,148,train
1073.0910301208496,4,0,1,5,3,2,H+,1,3,4,0,1000,250.0,3,c09jt,149,train
657.0839881896973,4,0,1,5,3,2,H+,1,1,2,0,1000,250.0,1,c09jt,150,train
606.8360805511475,4,0,1,5,3,2,H+,0,2,5,0,1000,250.0,4,c09jt,151,train
673.058032989502,4,0,1,5,3,2,H+,1,5,3,0,1000,250.0,5,c09jt,152,train
592.9520130157471,4,0,1,5,3,2,H+,1,3,4,0,1000,250.0,3,c09jt,153,train
639.6920680999756,4,0,1,5,3,2,H+,1,1,2,0,1000,250.0,1,c09jt,154,train
673.069953918457,4,0,1,5,3,2,H+,1,2,5,0,1000,250.0,2,c09jt,155,train
562.2799396514893,4,0,1,5,3,2,H+,1,3,4,0,1000,250.0,3,c09jt,156,train
1056.993007659912,4,0,1,5,3,2,H+,1,4,0,0,1000,250.0,4,c09jt,157,train
544.8470115661621,4,0,1,5,3,2,H+,1,3,4,0,1000,250.0,3,c09jt,158,train
497.0099925994873,4,0,1,5,3,2,H+,1,1,2,0,1000,250.0,1,c09jt,159,train
446.63095474243164,4,0,1,5,3,2,H+,1,5,3,0,1000,250.0,5,c09jt,160,train
560.999870300293,4,0,1,5,3,2,H+,1,3,4,0,1000,250.0,3,c09jt,161,train
704.7979831695557,4,0,1,5,3,2,H+,1,2,5,0,1000,250.0,2,c09jt,162,train
688.7009143829346,4,0,1,5,3,2,H+,1,0,1,0,1000,250.0,0,c09jt,163,train
449.04279708862305,4,0,1,5,3,2,H+,0,0,1,0,1000,250.0,1,c09jt,164,train
576.9908428192139,4,0,1,5,3,2,H+,1,2,5,0,1000,250.0,2,c09jt,165,train
464.9851322174072,4,0,1,5,3,2,H+,1,2,5,0,1000,250.0,2,c09jt,166,train
593.1508541107178,4,0,1,5,3,2,H+,1,5,3,0,1000,250.0,5,c09jt,167,train
432.8880310058594,4,0,1,5,3,2,H+,1,5,3,0,1000,250.0,5,c09jt,168,train
609.0779304504395,4,0,1,5,3,2,H+,1,4,0,0,1000,250.0,4,c09jt,169,train
384.84692573547363,4,0,1,5,3,2,H+,0,2,5,0,1000,250.0,4,c09jt,170,train
560.6470108032227,4,0,1,5,3,2,H+,1,0,1,0,1000,250.0,0,c09jt,171,train
704.9851417541504,4,0,1,5,3,2,H+,1,2,5,0,1000,250.0,2,c09jt,172,train
513.0300521850586,4,0,1,5,3,2,H+,1,5,3,0,1000,250.0,5,c09jt,173,train
370.13697624206543,4,0,1,5,3,2,H+,1,5,3,0,1000,250.0,5,c09jt,174,train
448.96411895751953,4,0,1,5,3,2,H+,1,5,3,0,1000,250.0,5,c09jt,175,train
352.5848388671875,4,0,1,5,3,2,H+,0,2,5,0,1000,250.0,5,c09jt,176,train
688.8790130615234,4,0,1,5,3,2,H+,1,3,4,0,1000,250.0,3,c09jt,177,train
720.9138870239258,4,0,1,5,3,2,H+,1,3,4,0,1000,250.0,3,c09jt,178,train
945.0349807739258,4,0,1,5,3,2,H+,1,4,0,0,1000,250.0,4,c09jt,179,train
417.147159576416,4,0,1,5,3,2,H+,1,4,0,0,1000,250.0,4,c09jt,180,train
593.0299758911133,4,0,1,5,3,2,H+,1,1,2,0,1000,250.0,1,c09jt,181,train
1153.219223022461,4,0,1,5,3,2,H+,1,3,4,0,1000,250.0,3,c09jt,182,train
689.0628337860107,4,0,1,5,3,2,H+,1,2,5,0,1000,250.0,2,c09jt,183,train
544.9919700622559,4,0,1,5,3,2,H+,1,1,2,0,1000,250.0,1,c09jt,184,train
528.9058685302734,4,0,1,5,3,2,H+,1,1,2,0,1000,250.0,1,c09jt,185,train
496.8709945678711,4,0,1,5,3,2,H+,1,5,3,0,1000,250.0,5,c09jt,186,train
1010.1039409637451,4,0,1,5,3,2,H+,1,4,0,0,1000,250.0,4,c09jt,187,train
368.62802505493164,4,0,1,5,3,2,H+,1,4,0,0,1000,250.0,4,c09jt,188,train
432.8789710998535,4,0,1,5,3,2,H+,0,1,2,0,1000,250.0,4,c09jt,189,train
512.2239589691162,4,0,1,5,3,2,H+,1,0,1,0,1000,250.0,0,c09jt,190,train
561.039924621582,4,0,1,5,3,2,H+,1,5,3,0,1000,250.0,5,c09jt,191,train
721.0760116577148,4,0,1,5,3,2,H+,1,0,1,0,1000,250.0,0,c09jt,192,train
513.0660533905029,4,0,1,5,3,2,H+,1,5,3,0,1000,250.0,5,c09jt,193,train
401.01003646850586,4,0,1,5,3,2,H+,1,5,3,0,1000,250.0,5,c09jt,194,train
497.0581531524658,4,0,1,5,3,2,H+,1,1,2,0,1000,250.0,1,c09jt,195,train
929.0268421173096,4,0,1,5,3,2,H+,1,3,4,0,1000,250.0,3,c09jt,196,train
526.6709327697754,4,0,1,5,3,2,H+,1,1,2,0,1000,250.0,1,c09jt,197,train
785.1300239562988,4,0,1,5,3,2,H+,1,2,5,0,1000,250.0,2,c09jt,198,train
561.0408782958984,4,0,1,5,3,2,H+,1,0,1,0,1000,250.0,0,c09jt,199,train
560.8270168304443,4,0,1,5,3,2,H+,0,5,3,0,1000,250.0,2,c09jt,200,train
513.0720138549805,4,0,1,5,3,2,H+,1,0,1,0,1000,250.0,0,c09jt,201,train
1200.9360790252686,4,0,1,5,3,2,H+,1,4,0,0,1000,250.0,4,c09jt,202,train
464.9028778076172,4,0,1,5,3,2,H+,1,4,0,0,1000,250.0,4,c09jt,203,train
576.9708156585693,4,0,1,5,3,2,H+,1,1,2,0,1000,250.0,1,c09jt,204,train
672.9941368103027,4,0,1,5,3,2,H+,1,5,3,0,1000,250.0,5,c09jt,205,train
545.0139045715332,4,0,1,5,3,2,H+,1,1,2,0,1000,250.0,1,c09jt,206,train
721.1551666259766,4,0,1,5,3,2,H+,0,3,4,0,1000,250.0,5,c09jt,207,train
1122.006893157959,4,0,1,5,3,2,H+,1,3,4,0,1000,250.0,3,c09jt,208,train
496.95706367492676,4,0,1,5,3,2,H+,1,5,3,0,1000,250.0,5,c09jt,209,train
561.1410140991211,4,0,1,5,3,2,H+,1,1,2,0,1000,250.0,1,c09jt,210,train
944.8878765106201,4,0,1,5,3,2,H+,1,2,5,0,1000,250.0,2,c09jt,211,train
464.9238586425781,4,0,1,5,3,2,H+,1,5,3,0,1000,250.0,5,c09jt,212,train
877.9048919677734,4,0,1,5,3,2,H+,1,2,5,0,1000,250.0,2,c09jt,213,train
544.7969436645508,4,0,1,5,3,2,H+,1,5,3,0,1000,250.0,5,c09jt,214,train
545.9280014038086,4,0,1,5,3,2,H+,1,4,0,0,1000,250.0,4,c09jt,215,train
816.8680667877197,4,0,1,5,3,2,H+,1,0,1,0,1000,250.0,0,c09jt,216,train
785.1369380950928,4,0,1,5,3,2,H+,0,4,0,0,1000,250.0,5,c09jt,217,train
592.461109161377,4,0,1,5,3,2,H+,1,4,0,0,1000,250.0,4,c09jt,218,train
688.9851093292236,4,0,1,5,3,2,H+,1,2,5,0,1000,250.0,2,c09jt,219,train
513.0269527435303,4,0,1,5,3,2,H+,1,0,1,0,1000,250.0,0,c09jt,220,train
769.0541744232178,4,0,1,5,3,2,H+,1,3,4,0,1000,250.0,3,c09jt,221,train
721.0159301757812,4,0,1,5,3,2,H+,1,1,2,0,1000,250.0,1,c09jt,222,train
720.8569049835205,4,0,1,5,3,2,H+,0,2,5,0,1000,250.0,3,c09jt,223,train
991.6770458221436,4,0,1,5,3,2,H+,1,4,0,0,1000,250.0,4,c09jt,224,train
624.8931884765625,4,0,1,5,3,2,H+,1,5,3,0,1000,250.0,5,c09jt,225,train
546.1270809173584,4,0,1,5,3,2,H+,1,0,1,0,1000,250.0,0,c09jt,226,train
592.9219722747803,4,0,1,5,3,2,H+,1,2,5,0,1000,250.0,2,c09jt,227,train
544.8501110076904,4,0,1,5,3,2,H+,1,5,3,0,1000,250.0,5,c09jt,228,train
545.0799465179443,4,0,1,5,3,2,H+,1,0,1,0,1000,250.0,0,c09jt,229,train
448.8499164581299,4,0,1,5,3,2,H+,1,5,3,0,1000,250.0,5,c09jt,230,train
1249.0432262420654,4,0,1,5,3,2,H+,1,4,0,0,1000,250.0,4,c09jt,231,train
1856.9998741149902,4,0,1,5,3,2,H+,1,3,4,0,1000,250.0,3,c09jt,232,train
1377.0129680633545,4,0,1,5,3,2,H+,1,3,4,0,1000,250.0,3,c09jt,233,train
705.0249576568604,4,0,1,5,3,2,H+,1,4,0,0,1000,250.0,4,c09jt,234,train
608.9301109313965,4,0,1,5,3,2,H+,1,0,1,0,1000,250.0,0,c09jt,235,train
752.9499530792236,4,0,1,5,3,2,H+,1,2,5,0,1000,250.0,2,c09jt,236,train
561.0828399658203,4,0,1,5,3,2,H+,1,0,1,0,1000,250.0,0,c09jt,237,train
688.9538764953613,4,0,1,5,3,2,H+,1,2,5,0,1000,250.0,2,c09jt,238,train
529.1600227355957,4,0,1,5,3,2,H+,1,2,5,0,1000,250.0,2,c09jt,239,train
865.0839328765869,4,0,1,5,3,2,H+,0,3,4,0,1000,250.0,4,c09jt,240,train
896.9781398773193,4,0,1,5,3,2,H+,1,2,5,0,1000,250.0,2,c09jt,241,train
800.1458644866943,4,0,1,5,3,2,H+,1,2,5,0,1000,250.0,2,c09jt,242,train
1200.8411884307861,4,0,1,5,3,2,H+,1,3,4,0,1000,250.0,3,c09jt,243,train
561.0568523406982,4,0,1,5,3,2,H+,1,5,3,0,1000,250.0,5,c09jt,244,train
641.0250663757324,4,0,1,5,3,2,H+,1,0,1,0,1000,250.0,0,c09jt,245,train
1582.629919052124,4,0,1,5,3,2,H+,0,3,4,0,1000,250.0,2,c09jt,246,train
705.0280570983887,4,0,1,5,3,2,H+,1,5,3,0,1000,250.0,5,c09jt,247,train
864.9029731750488,4,0,1,5,3,2,H+,1,2,5,0,1000,250.0,2,c09jt,248,train
545.1769828796387,4,0,1,5,3,2,H+,1,3,4,0,1000,250.0,3,c09jt,249,train
1137.110948562622,4,0,1,5,3,2,H+,1,5,3,0,1000,250.0,5,c09jt,250,test
1473.020076751709,4,0,1,5,3,2,H+,1,4,0,0,1000,250.0,4,c09jt,251,test
465.0890827178955,4,0,1,5,3,2,H+,1,5,3,0,1000,250.0,5,c09jt,252,test
625.0448226928711,4,0,1,5,3,2,H+,1,0,1,0,1000,250.0,0,c09jt,253,test
464.98990058898926,4,0,1,5,3,2,H+,1,5,3,0,1000,250.0,5,c09jt,254,test
752.9990673065186,4,0,1,5,3,2,H+,1,1,2,0,1000,250.0,1,c09jt,255,test
561.0330104827881,4,0,1,5,3,2,H+,1,4,0,0,1000,250.0,4,c09jt,256,test
465.13986587524414,4,0,1,5,3,2,H+,0,2,5,0,1000,250.0,5,c09jt,257,test
672.9919910430908,4,0,1,5,3,2,H+,1,2,5,0,1000,250.0,2,c09jt,258,test
656.9697856903076,4,0,1,5,3,2,H+,1,3,4,0,1000,250.0,3,c09jt,259,test
992.9239749908447,4,0,1,5,3,2,H+,1,3,4,0,1000,250.0,3,c09jt,260,test
432.8620433807373,4,0,1,5,3,2,H+,1,5,3,0,1000,250.0,5,c09jt,261,test
544.8269844055176,4,0,1,5,3,2,H+,1,1,2,0,1000,250.0,1,c09jt,262,test
592.785120010376,4,0,1,5,3,2,H+,1,5,3,0,1000,250.0,5,c09jt,263,test
544.4388389587402,4,0,1,5,3,2,H+,1,1,2,0,1000,250.0,1,c09jt,264,test
640.8770084381104,4,0,1,5,3,2,H+,1,5,3,0,1000,250.0,5,c09jt,265,test
449.1298198699951,4,0,1,5,3,2,H+,1,5,3,0,1000,250.0,5,c09jt,266,test
769.0908908843994,4,0,1,5,3,2,H+,0,2,5,0,1000,250.0,5,c09jt,267,test
513.0510330200195,4,0,1,5,3,2,H+,1,1,2,0,1000,250.0,1,c09jt,268,test
977.0770072937012,4,0,1,5,3,2,H+,1,3,4,0,1000,250.0,3,c09jt,269,test
592.3490524291992,4,0,1,5,3,2,H+,1,1,2,0,1000,250.0,1,c09jt,270,test
529.0951728820801,4,0,1,5,3,2,H+,1,1,2,0,1000,250.0,1,c09jt,271,test
625.0438690185547,4,0,1,5,3,2,H+,1,0,1,0,1000,250.0,0,c09jt,272,test
816.9150352478027,4,0,1,5,3,2,H+,1,4,0,0,1000,250.0,4,c09jt,273,test
497.01595306396484,4,0,1,5,3,2,H+,1,5,3,0,1000,250.0,5,c09jt,274,test
496.07300758361816,4,0,1,5,3,2,H+,1,5,3,0,1000,250.0,5,c09jt,275,test
448.9898681640625,4,0,1,5,3,2,H+,1,5,3,0,1000,250.0,5,c09jt,276,test
449.07307624816895,4,0,1,5,3,2,H+,1,0,1,0,1000,250.0,0,c09jt,277,test
416.92185401916504,4,0,1,5,3,2,H+,0,0,1,0,1000,250.0,5,c09jt,278,test
513.0360126495361,4,0,1,5,3,2,H+,1,5,3,0,1000,250.0,5,c09jt,279,test
433.1390857696533,4,0,1,5,3,2,H+,1,0,1,0,1000,250.0,0,c09jt,280,test
545.1009273529053,4,0,1,5,3,2,H+,1,1,2,0,1000,250.0,1,c09jt,281,test
528.0740261077881,4,0,1,5,3,2,H+,1,1,2,0,1000,250.0,1,c09jt,282,test
945.0938701629639,4,0,1,5,3,2,H+,1,4,0,0,1000,250.0,4,c09jt,283,test
481.05907440185547,4,0,1,5,3,2,H+,1,0,1,0,1000,250.0,0,c09jt,284,test
369.17591094970703,4,0,1,5,3,2,H+,1,0,1,0,1000,250.0,0,c09jt,285,test
448.9600658416748,4,0,1,5,3,2,H+,1,0,1,0,1000,250.0,0,c09jt,286,test
832.9110145568848,4,0,1,5,3,2,H+,1,3,4,0,1000,250.0,3,c09jt,287,test
560.1010322570801,4,0,1,5,3,2,H+,1,4,0,0,1000,250.0,4,c09jt,288,test
560.9991550445557,4,0,1,5,3,2,H+,1,1,2,0,1000,250.0,1,c09jt,289,test
576.7920017242432,4,0,1,5,3,2,H+,1,5,3,0,1000,250.0,5,c09jt,290,test
481.05502128601074,4,0,1,5,3,2,H+,1,1,2,0,1000,250.0,1,c09jt,291,test
753.1399726867676,4,0,1,5,3,2,H+,0,5,3,0,1000,250.0,2,c09jt,292,test
720.952033996582,4,0,1,5,3,2,H+,1,2,5,0,1000,250.0,2,c09jt,293,test
1169.1279411315918,4,0,1,5,3,2,H+,1,4,0,0,1000,250.0,4,c09jt,294,test
577.0771503448486,4,0,1,5,3,2,H+,1,2,5,0,1000,250.0,2,c09jt,295,test
497.143030166626,4,0,1,5,3,2,H+,1,0,1,0,1000,250.0,0,c09jt,296,test
1025.0608921051025,4,0,1,5,3,2,H+,1,3,4,0,1000,250.0,3,c09jt,297,test
864.9129867553711,4,0,1,5,3,2,H+,1,3,4,0,1000,250.0,3,c09jt,298,test
1040.9939289093018,4,0,1,5,3,2,H+,1,4,0,0,1000,250.0,4,c09jt,299,test
577.0061016082764,4,0,1,5,3,2,H+,1,2,5,0,1000,250.0,2,c09jt,300,test
752.9749870300293,4,0,1,5,3,2,H+,1,3,4,0,1000,250.0,3,c09jt,301,test
513.0889415740967,4,0,1,5,3,2,H+,1,3,4,0,1000,250.0,3,c09jt,302,test
1073.0419158935547,4,0,1,5,3,2,H+,1,4,0,0,1000,250.0,4,c09jt,303,test
529.0591716766357,4,0,1,5,3,2,H+,1,1,2,0,1000,250.0,1,c09jt,304,test
448.559045791626,4,0,1,5,3,2,H+,1,1,2,0,1000,250.0,1,c09jt,305,test
1280.940055847168,4,0,1,5,3,2,H+,0,4,0,0,1000,250.0,0,c09jt,306,test
512.9978656768799,4,0,1,5,3,2,H+,1,1,2,0,1000,250.0,1,c09jt,307,test
512.9420757293701,4,0,1,5,3,2,H+,0,5,3,0,1000,250.0,2,c09jt,308,test
689.0170574188232,4,0,1,5,3,2,H+,1,2,5,0,1000,250.0,2,c09jt,309,test
752.8810501098633,4,0,1,5,3,2,H+,1,4,0,0,1000,250.0,4,c09jt,310,test
625.1788139343262,4,0,1,5,3,2,H+,1,2,5,0,1000,250.0,2,c09jt,311,test
1312.9799365997314,4,0,1,5,3,2,H+,1,3,4,0,1000,250.0,3,c09jt,312,test
464.993953704834,4,0,1,5,3,2,H+,1,5,3,0,1000,250.0,5,c09jt,313,test
464.9980068206787,4,0,1,5,3,2,H+,1,5,3,0,1000,250.0,5,c09jt,314,test
737.0460033416748,4,0,1,5,3,2,H+,1,3,4,0,1000,250.0,3,c09jt,315,test
416.9800281524658,4,0,1,5,3,2,H+,1,3,4,0,1000,250.0,3,c09jt,316,test
529.2041301727295,4,0,1,5,3,2,H+,1,5,3,0,1000,250.0,5,c09jt,317,test
545.0310707092285,4,0,1,5,3,2,H+,1,4,0,0,1000,250.0,4,c09jt,318,test
608.9990139007568,4,0,1,5,3,2,H+,1,3,4,0,1000,250.0,3,c09jt,319,test
481.0209274291992,4,0,1,5,3,2,H+,1,3,4,0,1000,250.0,3,c09jt,320,test
433.0739974975586,4,0,1,5,3,2,H+,1,3,4,0,1000,250.0,3,c09jt,321,test
480.90600967407227,4,0,1,5,3,2,H+,0,2,5,0,1000,250.0,5,c09jt,322,test
512.8459930419922,4,0,1,5,3,2,H+,1,4,0,0,1000,250.0,4,c09jt,323,test
593.0540561676025,4,0,1,5,3,2,H+,1,3,4,0,1000,250.0,3,c09jt,324,test
496.9170093536377,4,0,1,5,3,2,H+,1,0,1,0,1000,250.0,0,c09jt,325,test
704.8511505126953,4,0,1,5,3,2,H+,1,4,0,0,1000,250.0,4,c09jt,326,test
415.4481887817383,4,0,1,5,3,2,H+,1,5,3,0,1000,250.0,5,c09jt,327,test
561.007022857666,4,0,1,5,3,2,H+,1,1,2,0,1000,250.0,1,c09jt,328,test
480.89599609375,4,0,1,5,3,2,H+,0,2,5,0,1000,250.0,5,c09jt,329,test
640.8469676971436,4,0,1,5,3,2,H+,1,4,0,0,1000,250.0,4,c09jt,330,test
481.2150001525879,4,0,1,5,3,2,H+,1,5,3,0,1000,250.0,5,c09jt,331,test
672.9938983917236,4,0,1,5,3,2,H+,1,2,5,0,1000,250.0,2,c09jt,332,test
592.9088592529297,4,0,1,5,3,2,H+,1,3,4,0,1000,250.0,3,c09jt,333,test
497.04599380493164,4,0,1,5,3,2,H+,1,5,3,0,1000,250.0,5,c09jt,334,test
497.1160888671875,4,0,1,5,3,2,H+,1,1,2,0,1000,250.0,1,c09jt,335,test
529.0451049804688,4,0,1,5,3,2,H+,1,0,1,0,1000,250.0,0,c09jt,336,test
400.9420871734619,4,0,1,5,3,2,H+,1,5,3,0,1000,250.0,5,c09jt,337,test
542.7260398864746,4,0,1,5,3,2,H+,1,4,0,0,1000,250.0,4,c09jt,338,test
353.17206382751465,4,0,1,5,3,2,H+,0,0,1,0,1000,250.0,5,c09jt,339,test
785.1159572601318,4,0,1,5,3,2,H+,1,3,4,0,1000,250.0,3,c09jt,340,test
593.1198596954346,4,0,1,5,3,2,H+,1,4,0,0,1000,250.0,4,c09jt,341,test
625.0078678131104,4,0,1,5,3,2,H+,1,3,4,0,1000,250.0,3,c09jt,342,test
561.0260963439941,4,0,1,5,3,2,H+,0,2,5,0,1000,250.0,5,c09jt,343,test
497.19691276550293,4,0,1,5,3,2,H+,1,0,1,0,1000,250.0,0,c09jt,344,test
465.0149345397949,4,0,1,5,3,2,H+,1,5,3,0,1000,250.0,5,c09jt,345,test
513.1189823150635,4,0,1,5,3,2,H+,1,1,2,0,1000,250.0,1,c09jt,346,test
833.2018852233887,4,0,1,5,3,2,H+,1,2,5,0,1000,250.0,2,c09jt,347,test
526.8170833587646,4,0,1,5,3,2,H+,1,0,1,0,1000,250.0,0,c09jt,348,test
673.1038093566895,4,0,1,5,3,2,H+,1,4,0,0,1000,250.0,4,c09jt,349,test
465.17205238342285,4,0,1,5,3,2,H+,1,5,3,0,1000,250.0,5,c09jt,350,test
529.0980339050293,4,0,1,5,3,2,H+,1,0,1,0,1000,250.0,0,c09jt,351,test
465.238094329834,4,0,1,5,3,2,H+,1,1,2,0,1000,250.0,1,c09jt,352,test
416.0580635070801,4,0,1,5,3,2,H+,1,1,2,0,1000,250.0,1,c09jt,353,test
304.2731285095215,4,0,1,5,3,2,H+,1,1,2,0,1000,250.0,1,c09jt,354,test
287.98413276672363,4,0,1,5,3,2,H+,0,0,1,0,1000,250.0,1,c09jt,355,test
705.0321102142334,4,0,1,5,3,2,H+,1,3,4,0,1000,250.0,3,c09jt,356,test
560.9970092773438,4,0,1,5,3,2,H+,1,4,0,0,1000,250.0,4,c09jt,357,test
480.47399520874023,4,0,1,5,3,2,H+,0,4,0,0,1000,250.0,3,c09jt,358,test
544.9278354644775,4,0,1,5,3,2,H+,1,4,0,0,1000,250.0,4,c09jt,359,test
576.9429206848145,4,0,1,5,3,2,H+,1,3,4,0,1000,250.0,3,c09jt,360,test
512.9930973052979,4,0,1,5,3,2,H+,1,0,1,0,1000,250.0,0,c09jt,361,test
463.6249542236328,4,0,1,5,3,2,H+,1,5,3,0,1000,250.0,5,c09jt,362,test
449.0010738372803,4,0,1,5,3,2,H+,1,5,3,0,1000,250.0,5,c09jt,363,test
513.4270191192627,4,0,1,5,3,2,H+,1,4,0,0,1000,250.0,4,c09jt,364,test
465.00182151794434,4,0,1,5,3,2,H+,1,1,2,0,1000,250.0,1,c09jt,365,test
704.9310207366943,4,0,1,5,3,2,H+,1,2,5,0,1000,250.0,2,c09jt,366,test
752.9349327087402,4,0,1,5,3,2,H+,1,2,5,0,1000,250.0,2,c09jt,367,test
529.0029048919678,4,0,1,5,3,2,H+,1,4,0,0,1000,250.0,4,c09jt,368,test
625.0879764556885,4,0,1,5,3,2,H+,0,2,5,0,1000,250.0,1,c09jt,369,test
497.06006050109863,4,0,1,5,3,2,H+,1,4,0,0,1000,250.0,4,c09jt,370,test
545.1359748840332,4,0,1,5,3,2,H+,1,0,1,0,1000,250.0,0,c09jt,371,test
464.9951457977295,4,0,1,5,3,2,H+,1,5,3,0,1000,250.0,5,c09jt,372,test
512.930154800415,4,0,1,5,3,2,H+,1,0,1,0,1000,250.0,0,c09jt,373,test
497.0369338989258,4,0,1,5,3,2,H+,1,4,0,0,1000,250.0,4,c09jt,374,test
624.5748996734619,4,0,1,5,3,2,H+,1,2,5,0,1000,250.0,2,c09jt,375,test
992.9871559143066,4,0,1,5,3,2,H+,1,0,1,0,1000,250.0,0,c09jt,376,test
544.975996017456,4,0,1,5,3,2,H+,1,1,2,0,1000,250.0,1,c09jt,377,test
1281.0111045837402,4,0,1,5,3,2,H+,0,3,4,0,1000,250.0,4,c09jt,378,test
545.0060367584229,4,0,1,5,3,2,H+,1,3,4,0,1000,250.0,3,c09jt,379,test
528.9371013641357,4,0,1,5,3,2,H+,1,3,4,0,1000,250.0,3,c09jt,380,test
1168.8919067382812,4,0,1,5,3,2,H+,1,2,5,0,1000,250.0,2,c09jt,381,test
800.9030818939209,4,0,1,5,3,2,H+,1,2,5,0,1000,250.0,2,c09jt,382,test
832.8690528869629,4,0,1,5,3,2,H+,1,4,0,0,1000,250.0,4,c09jt,383,test
736.7889881134033,4,0,1,5,3,2,H+,1,0,1,0,1000,250.0,0,c09jt,384,test
592.4229621887207,4,0,1,5,3,2,H+,1,5,3,0,1000,250.0,5,c09jt,385,test
1520.8868980407715,4,0,1,5,3,2,H+,1,3,4,0,1000,250.0,3,c09jt,386,test
608.8259220123291,4,0,1,5,3,2,H+,1,0,1,0,1000,250.0,0,c09jt,387,test
576.8768787384033,4,0,1,5,3,2,H+,1,1,2,0,1000,250.0,1,c09jt,388,test
1041.0010814666748,4,0,1,5,3,2,H+,1,1,2,0,1000,250.0,1,c09jt,389,test
544.9321269989014,4,0,1,5,3,2,H+,1,5,3,0,1000,250.0,5,c09jt,390,test
1008.8479518890381,4,0,1,5,3,2,H+,1,2,5,0,1000,250.0,2,c09jt,391,test
737.1540069580078,4,0,1,5,3,2,H+,1,5,3,0,1000,250.0,5,c09jt,392,test
576.9531726837158,4,0,1,5,3,2,H+,1,0,1,0,1000,250.0,0,c09jt,393,test
672.7540493011475,4,0,1,5,3,2,H+,1,1,2,0,1000,250.0,1,c09jt,394,test
1120.8209991455078,4,0,1,5,3,2,H+,1,3,4,0,1000,250.0,3,c09jt,395,test
624.9449253082275,4,0,1,5,3,2,H+,1,5,3,0,1000,250.0,5,c09jt,396,test
560.945987701416,4,0,1,5,3,2,H+,1,0,1,0,1000,250.0,0,c09jt,397,test
1264.87398147583,4,0,1,5,3,2,H+,1,4,0,0,1000,250.0,4,c09jt,398,test
561.0110759735107,4,0,1,5,3,2,H+,1,0,1,0,1000,250.0,0,c09jt,399,test
656.9681167602539,4,0,1,5,3,2,H+,1,5,3,0,1000,250.0,5,c09jt,400,test
1152.9061794281006,4,0,1,5,3,2,H+,1,3,4,0,1000,250.0,3,c09jt,401,test
784.9359512329102,4,0,1,5,3,2,H+,1,3,4,0,1000,250.0,3,c09jt,402,test
801.0530471801758,4,0,1,5,3,2,H+,1,4,0,0,1000,250.0,4,c09jt,403,test
832.9241275787354,4,0,1,5,3,2,H+,1,4,0,0,1000,250.0,4,c09jt,404,test
544.9368953704834,4,0,1,5,3,2,H+,1,0,1,0,1000,250.0,0,c09jt,405,test
911.858081817627,4,0,1,5,3,2,H+,1,3,4,0,1000,250.0,3,c09jt,406,test
1152.8000831604004,4,0,1,5,3,2,H+,1,3,4,0,1000,250.0,3,c09jt,407,test
752.9399394989014,4,0,1,5,3,2,H+,1,2,5,0,1000,250.0,2,c09jt,408,test
976.9101142883301,4,0,1,5,3,2,H+,1,2,5,0,1000,250.0,2,c09jt,409,test
1168.9550876617432,4,0,1,5,3,2,H+,1,4,0,0,1000,250.0,4,c09jt,410,test
2192.3739910125732,4,0,1,5,3,2,H+,1,2,5,0,1000,250.0,2,c09jt,411,test
6529.069900512695,4,0,1,5,3,2,H+,1,4,0,0,1000,250.0,4,c09jt,412,test
753.1538009643555,4,0,1,5,3,2,H+,1,2,5,0,1000,250.0,2,c09jt,413,test
559.257984161377,4,0,1,5,3,2,H+,1,1,2,0,1000,250.0,1,c09jt,414,test
1009.030818939209,4,0,1,5,3,2,H+,1,0,1,0,1000,250.0,0,c09jt,415,test
449.0079879760742,4,0,1,5,3,2,H+,1,5,3,0,1000,250.0,5,c09jt,416,test
513.0150318145752,4,0,1,5,3,2,H+,1,0,1,0,1000,250.0,0,c09jt,417,test
624.2141723632812,4,0,1,5,3,2,H+,1,2,5,0,1000,250.0,2,c09jt,418,test
545.0561046600342,4,0,1,5,3,2,H+,1,1,2,0,1000,250.0,1,c09jt,419,test
1041.0430431365967,4,0,1,5,3,2,H+,1,3,4,0,1000,250.0,3,c09jt,420,test
498.02708625793457,4,0,1,5,3,2,H+,1,5,3,0,1000,250.0,5,c09jt,421,test
705.1289081573486,4,0,1,5,3,2,H+,1,2,5,0,1000,250.0,2,c09jt,422,test
512.9690170288086,4,0,1,5,3,2,H+,1,4,0,0,1000,250.0,4,c09jt,423,test
593.0230617523193,4,0,1,5,3,2,H+,1,3,4,0,1000,250.0,3,c09jt,424,test
512.8200054168701,4,0,1,5,3,2,H+,1,5,3,0,1000,250.0,5,c09jt,425,test
657.1650505065918,4,0,1,5,3,2,H+,0,3,4,0,1000,250.0,4,c09jt,426,test
496.16312980651855,4,0,1,5,3,2,H+,1,5,3,0,1000,250.0,5,c09jt,427,test
545.0379848480225,4,0,1,5,3,2,H+,1,1,2,0,1000,250.0,1,c09jt,428,test
576.9171714782715,4,0,1,5,3,2,H+,1,3,4,0,1000,250.0,3,c09jt,429,test
577.0480632781982,4,0,1,5,3,2,H+,1,5,3,0,1000,250.0,5,c09jt,430,test
593.062162399292,4,0,1,5,3,2,H+,1,3,4,0,1000,250.0,3,c09jt,431,test
559.9470138549805,4,0,1,5,3,2,H+,1,0,1,0,1000,250.0,0,c09jt,432,test
785.153865814209,4,0,1,5,3,2,H+,1,3,4,0,1000,250.0,3,c09jt,433,test
577.0738124847412,4,0,1,5,3,2,H+,1,0,1,0,1000,250.0,0,c09jt,434,test
590.709924697876,4,0,1,5,3,2,H+,1,1,2,0,1000,250.0,1,c09jt,435,test
448.9710330963135,4,0,1,5,3,2,H+,0,1,2,0,1000,250.0,0,c09jt,436,test
513.0729675292969,4,0,1,5,3,2,H+,1,5,3,0,1000,250.0,5,c09jt,437,test
1216.4828777313232,4,0,1,5,3,2,H+,1,4,0,0,1000,250.0,4,c09jt,438,test
464.8628234863281,4,0,1,5,3,2,H+,1,5,3,0,1000,250.0,5,c09jt,439,test
721.0640907287598,4,0,1,5,3,2,H+,1,3,4,0,1000,250.0,3,c09jt,440,test
593.1711196899414,4,0,1,5,3,2,H+,1,2,5,0,1000,250.0,2,c09jt,441,test
513.0259990692139,4,0,1,5,3,2,H+,1,1,2,0,1000,250.0,1,c09jt,442,test
528.9769172668457,4,0,1,5,3,2,H+,1,0,1,0,1000,250.0,0,c09jt,443,test
512.847900390625,4,0,1,5,3,2,H+,1,1,2,0,1000,250.0,1,c09jt,444,test
625.0128746032715,4,0,1,5,3,2,H+,1,5,3,0,1000,250.0,5,c09jt,445,test
624.8860359191895,4,0,1,5,3,2,H+,1,3,4,0,1000,250.0,3,c09jt,446,test
528.5890102386475,4,0,1,5,3,2,H+,1,1,2,0,1000,250.0,1,c09jt,447,test
561.0101222991943,4,0,1,5,3,2,H+,0,3,4,0,1000,250.0,4,c09jt,448,test
1104.9680709838867,4,0,1,5,3,2,H+,1,4,0,0,1000,250.0,4,c09jt,449,test
496.9749450683594,4,0,1,5,3,2,H+,1,5,3,0,1000,250.0,5,c09jt,450,test
832.9901695251465,4,0,1,5,3,2,H+,1,3,4,0,1000,250.0,3,c09jt,451,test
800.8019924163818,4,0,1,5,3,2,H+,1,3,4,0,1000,250.0,3,c09jt,452,test
512.6941204071045,4,0,1,5,3,2,H+,1,5,3,0,1000,250.0,5,c09jt,453,test
718.5931205749512,4,0,1,5,3,2,H+,1,0,1,0,1000,250.0,0,c09jt,454,test
528.764009475708,4,0,1,5,3,2,H+,1,1,2,0,1000,250.0,1,c09jt,455,test
448.9610195159912,4,0,1,5,3,2,H+,1,1,2,0,1000,250.0,1,c09jt,456,test
560.9650611877441,4,0,1,5,3,2,H+,1,4,0,0,1000,250.0,4,c09jt,457,test
494.6269989013672,4,0,1,5,3,2,H+,1,5,3,0,1000,250.0,5,c09jt,458,test
576.2641429901123,4,0,1,5,3,2,H+,1,0,1,0,1000,250.0,0,c09jt,459,test
512.9411220550537,4,0,1,5,3,2,H+,1,0,1,0,1000,250.0,0,c09jt,460,test
720.754861831665,4,0,1,5,3,2,H+,1,2,5,0,1000,250.0,2,c09jt,461,test
672.868013381958,4,0,1,5,3,2,H+,1,5,3,0,1000,250.0,5,c09jt,462,test
1376.8949508666992,4,0,1,5,3,2,H+,1,2,5,0,1000,250.0,2,c09jt,463,test
817.0349597930908,4,0,1,5,3,2,H+,1,4,0,0,1000,250.0,4,c09jt,464,test
913.0630493164062,4,0,1,5,3,2,H+,1,0,1,0,1000,250.0,0,c09jt,465,test
704.8630714416504,4,0,1,5,3,2,H+,1,3,4,0,1000,250.0,3,c09jt,466,test
560.8911514282227,4,0,1,5,3,2,H+,1,0,1,0,1000,250.0,0,c09jt,467,test
833.096981048584,4,0,1,5,3,2,H+,0,3,4,0,1000,250.0,4,c09jt,468,test
960.8938694000244,4,0,1,5,3,2,H+,1,4,0,0,1000,250.0,4,c09jt,469,test
1712.9700183868408,4,0,1,5,3,2,H+,1,3,4,0,1000,250.0,3,c09jt,470,test
2560.838222503662,4,0,1,5,3,2,H+,1,0,1,0,1000,250.0,0,c09jt,471,test
608.9239120483398,4,0,1,5,3,2,H+,1,1,2,0,1000,250.0,1,c09jt,472,test
737.1571063995361,4,0,1,5,3,2,H+,1,0,1,0,1000,250.0,0,c09jt,473,test
608.9119911193848,4,0,1,5,3,2,H+,1,2,5,0,1000,250.0,2,c09jt,474,test
832.9808712005615,4,0,1,5,3,2,H+,1,4,0,0,1000,250.0,4,c09jt,475,test
528.6250114440918,4,0,1,5,3,2,H+,1,5,3,0,1000,250.0,5,c09jt,476,test
1104.672908782959,4,0,1,5,3,2,H+,1,3,4,0,1000,250.0,3,c09jt,477,test
593.1618213653564,4,0,1,5,3,2,H+,1,5,3,0,1000,250.0,5,c09jt,478,test
832.5579166412354,4,0,1,5,3,2,H+,1,2,5,0,1000,250.0,2,c09jt,479,test
496.9179630279541,4,0,1,5,3,2,H+,1,0,1,0,1000,250.0,0,c09jt,480,test
496.9029426574707,4,0,1,5,3,2,H+,1,0,1,0,1000,250.0,0,c09jt,481,test
624.3610382080078,4,0,1,5,3,2,H+,1,2,5,0,1000,250.0,2,c09jt,482,test
464.7829532623291,4,0,1,5,3,2,H+,1,1,2,0,1000,250.0,1,c09jt,483,test
336.98296546936035,4,0,1,5,3,2,H+,1,1,2,0,1000,250.0,1,c09jt,484,test
1104.9377918243408,4,0,1,5,3,2,H+,1,4,0,0,1000,250.0,4,c09jt,485,test
512.840986251831,4,0,1,5,3,2,H+,1,0,1,0,1000,250.0,0,c09jt,486,test
464.9639129638672,4,0,1,5,3,2,H+,1,1,2,0,1000,250.0,1,c09jt,487,test
641.0062313079834,4,0,1,5,3,2,H+,1,2,5,0,1000,250.0,2,c09jt,488,test
528.9139747619629,4,0,1,5,3,2,H+,1,0,1,0,1000,250.0,0,c09jt,489,test
736.7191314697266,4,0,1,5,3,2,H+,1,4,0,0,1000,250.0,4,c09jt,490,test
480.6480407714844,4,0,1,5,3,2,H+,1,5,3,0,1000,250.0,5,c09jt,491,test
480.9908866882324,4,0,1,5,3,2,H+,1,1,2,0,1000,250.0,1,c09jt,492,test
576.869010925293,4,0,1,5,3,2,H+,1,4,0,0,1000,250.0,4,c09jt,493,test
512.9241943359375,4,0,1,5,3,2,H+,1,4,0,0,1000,250.0,4,c09jt,494,test
528.3539295196533,4,0,1,5,3,2,H+,0,2,5,0,1000,250.0,1,c09jt,495,test
768.7740325927734,4,0,1,5,3,2,H+,1,4,0,0,1000,250.0,4,c09jt,496,test
816.9369697570801,4,0,1,5,3,2,H+,1,4,0,0,1000,250.0,4,c09jt,497,test
593.0249691009521,4,0,1,5,3,2,H+,1,3,4,0,1000,250.0,3,c09jt,498,test
528.6819934844971,4,0,1,5,3,2,H+,1,4,0,0,1000,250.0,4,c09jt,499,test
