RT,SRmap_0,SRmap_1,SRmap_2,SRmap_3,SRmap_4,SRmap_5,condition,correct,correct_response,curstim,ms-precue,ms-prestimblank,ntrials,response,subject,trial,type
5664.3571853637695,2,5,0,1,3,4,H-,1,2,0,0,1000,250.0,2,C11MS,0,train
2304.6889305114746,2,5,0,1,3,4,H-,1,1,3,0,1000,250.0,1,C11MS,1,train
7201.029062271118,2,5,0,1,3,4,H-,1,0,2,0,1000,250.0,0,C11MS,2,train
4144.917011260986,2,5,0,1,3,4,H-,1,5,1,0,1000,250.0,5,C11MS,3,train
2144.1662311553955,2,5,0,1,3,4,H-,1,0,2,0,1000,250.0,0,C11MS,4,train
3328.188896179199,2,5,0,1,3,4,H-,1,4,5,0,1000,250.0,4,C11MS,5,train
1504.6720504760742,2,5,0,1,3,4,H-,1,1,3,0,1000,250.0,1,C11MS,6,train
1616.960048675537,2,5,0,1,3,4,H-,1,5,1,0,1000,250.0,5,C11MS,7,train
1952.6989459991455,2,5,0,1,3,4,H-,1,5,1,0,1000,250.0,5,C11MS,8,train
2528.748035430908,2,5,0,1,3,4,H-,1,1,3,0,1000,250.0,1,C11MS,9,train
1457.0720195770264,2,5,0,1,3,4,H-,1,1,3,0,1000,250.0,1,C11MS,10,train
1760.7989311218262,2,5,0,1,3,4,H-,1,4,5,0,1000,250.0,4,C11MS,11,train
1233.046054840088,2,5,0,1,3,4,H-,1,1,3,0,1000,250.0,1,C11MS,12,train
3216.794967651367,2,5,0,1,3,4,H-,1,0,2,0,1000,250.0,0,C11MS,13,train
1840.4150009155273,2,5,0,1,3,4,H-,1,1,3,0,1000,250.0,1,C11MS,14,train
4112.706899642944,2,5,0,1,3,4,H-,0,2,0,0,1000,250.0,1,C11MS,15,train
1313.0428791046143,2,5,0,1,3,4,H-,1,2,0,0,1000,250.0,2,C11MS,16,train
2384.7479820251465,2,5,0,1,3,4,H-,1,3,4,0,1000,250.0,3,C11MS,17,train
1456.7248821258545,2,5,0,1,3,4,H-,1,1,3,0,1000,250.0,1,C11MS,18,train
1648.688793182373,2,5,0,1,3,4,H-,1,4,5,0,1000,250.0,4,C11MS,19,train
783.8718891143799,2,5,0,1,3,4,H-,1,4,5,0,1000,250.0,4,C11MS,20,train
960.6161117553711,2,5,0,1,3,4,H-,1,4,5,0,1000,250.0,4,C11MS,21,train
1120.9869384765625,2,5,0,1,3,4,H-,1,1,3,0,1000,250.0,1,C11MS,22,train
1264.875888824463,2,5,0,1,3,4,H-,1,0,2,0,1000,250.0,0,C11MS,23,train
737.1289730072021,2,5,0,1,3,4,H-,1,1,3,0,1000,250.0,1,C11MS,24,train
1024.886131286621,2,5,0,1,3,4,H-,1,5,1,0,1000,250.0,5,C11MS,25,train
2208.6410522460938,2,5,0,1,3,4,H-,0,2,0,0,1000,250.0,1,C11MS,26,train
784.6899032592773,2,5,0,1,3,4,H-,1,5,1,0,1000,250.0,5,C11MS,27,train
1920.6199645996094,2,5,0,1,3,4,H-,0,2,0,0,1000,250.0,1,C11MS,28,train
9825.230836868286,2,5,0,1,3,4,H-,1,3,4,0,1000,250.0,3,C11MS,29,train
2320.695161819458,2,5,0,1,3,4,H-,1,2,0,0,1000,250.0,2,C11MS,30,train
1249.0410804748535,2,5,0,1,3,4,H-,1,2,0,0,1000,250.0,2,C11MS,31,train
3568.847894668579,2,5,0,1,3,4,H-,1,4,5,0,1000,250.0,4,C11MS,32,train
2495.5198764801025,2,5,0,1,3,4,H-,1,3,4,0,1000,250.0,3,C11MS,33,train
3296.403169631958,2,5,0,1,3,4,H-,1,4,5,0,1000,250.0,4,C11MS,34,train
881.2038898468018,2,5,0,1,3,4,H-,1,5,1,0,1000,250.0,5,C11MS,35,train
1520.510196685791,2,5,0,1,3,4,H-,1,3,4,0,1000,250.0,3,C11MS,36,train
1360.8639240264893,2,5,0,1,3,4,H-,1,3,4,0,1000,250.0,3,C11MS,37,train
2080.6431770324707,2,5,0,1,3,4,H-,1,4,5,0,1000,250.0,4,C11MS,38,train
1760.9748840332031,2,5,0,1,3,4,H-,1,0,2,0,1000,250.0,0,C11MS,39,train
704.9758434295654,2,5,0,1,3,4,H-,1,5,1,0,1000,250.0,5,C11MS,40,train
960.8349800109863,2,5,0,1,3,4,H-,1,0,2,0,1000,250.0,0,C11MS,41,train
688.9569759368896,2,5,0,1,3,4,H-,1,5,1,0,1000,250.0,5,C11MS,42,train
2320.8320140838623,2,5,0,1,3,4,H-,1,1,3,0,1000,250.0,1,C11MS,43,train
961.022138595581,2,5,0,1,3,4,H-,0,3,4,0,1000,250.0,4,C11MS,44,train
784.9581241607666,2,5,0,1,3,4,H-,1,1,3,0,1000,250.0,1,C11MS,45,train
2256.981134414673,2,5,0,1,3,4,H-,1,2,0,0,1000,250.0,2,C11MS,46,train
1857.1431636810303,2,5,0,1,3,4,H-,1,2,0,0,1000,250.0,2,C11MS,47,train
1408.8809490203857,2,5,0,1,3,4,H-,0,1,3,0,1000,250.0,4,C11MS,48,train
2815.927028656006,2,5,0,1,3,4,H-,1,2,0,0,1000,250.0,2,C11MS,49,train
1744.7919845581055,2,5,0,1,3,4,H-,1,2,0,0,1000,250.0,2,C11MS,50,train
976.8791198730469,2,5,0,1,3,4,H-,1,5,1,0,1000,250.0,5,C11MS,51,train
1104.7768592834473,2,5,0,1,3,4,H-,1,0,2,0,1000,250.0,0,C11MS,52,train
768.9309120178223,2,5,0,1,3,4,H-,1,1,3,0,1000,250.0,1,C11MS,53,train
992.9871559143066,2,5,0,1,3,4,H-,1,1,3,0,1000,250.0,1,C11MS,54,train
1216.7448997497559,2,5,0,1,3,4,H-,1,5,1,0,1000,250.0,5,C11MS,55,train
1136.795997619629,2,5,0,1,3,4,H-,1,1,3,0,1000,250.0,1,C11MS,56,train
832.7047824859619,2,5,0,1,3,4,H-,1,1,3,0,1000,250.0,1,C11MS,57,train
2576.774835586548,2,5,0,1,3,4,H-,0,2,0,0,1000,250.0,1,C11MS,58,train
832.8299522399902,2,5,0,1,3,4,H-,1,5,1,0,1000,250.0,5,C11MS,59,train
1249.1230964660645,2,5,0,1,3,4,H-,1,4,5,0,1000,250.0,4,C11MS,60,train
513.0219459533691,2,5,0,1,3,4,H-,0,2,0,0,1000,250.0,3,C11MS,61,train
2017.1308517456055,2,5,0,1,3,4,H-,1,3,4,0,1000,250.0,3,C11MS,62,train
1713.109016418457,2,5,0,1,3,4,H-,1,3,4,0,1000,250.0,3,C11MS,63,train
913.0468368530273,2,5,0,1,3,4,H-,1,5,1,0,1000,250.0,5,C11MS,64,train
977.2160053253174,2,5,0,1,3,4,H-,1,0,2,0,1000,250.0,0,C11MS,65,train
785.0849628448486,2,5,0,1,3,4,H-,1,5,1,0,1000,250.0,5,C11MS,66,train
816.230058670044,2,5,0,1,3,4,H-,1,0,2,0,1000,250.0,0,C11MS,67,train
800.9688854217529,2,5,0,1,3,4,H-,1,5,1,0,1000,250.0,5,C11MS,68,train
2112.826108932495,2,5,0,1,3,4,H-,1,4,5,0,1000,250.0,4,C11MS,69,train
2208.967924118042,2,5,0,1,3,4,H-,1,3,4,0,1000,250.0,3,C11MS,70,train
832.751989364624,2,5,0,1,3,4,H-,1,5,1,0,1000,250.0,5,C11MS,71,train
784.8231792449951,2,5,0,1,3,4,H-,1,0,2,0,1000,250.0,0,C11MS,72,train
960.6928825378418,2,5,0,1,3,4,H-,1,1,3,0,1000,250.0,1,C11MS,73,train
592.0801162719727,2,5,0,1,3,4,H-,0,1,3,0,1000,250.0,0,C11MS,74,train
960.8681201934814,2,5,0,1,3,4,H-,0,0,2,0,1000,250.0,5,C11MS,75,train
1426.0780811309814,2,5,0,1,3,4,H-,1,2,0,0,1000,250.0,2,C11MS,76,train
865.0000095367432,2,5,0,1,3,4,H-,0,4,5,0,1000,250.0,1,C11MS,77,train
800.8480072021484,2,5,0,1,3,4,H-,1,5,1,0,1000,250.0,5,C11MS,78,train
672.4879741668701,2,5,0,1,3,4,H-,1,0,2,0,1000,250.0,0,C11MS,79,train
1009.1798305511475,2,5,0,1,3,4,H-,0,2,0,0,1000,250.0,3,C11MS,80,train
1840.698003768921,2,5,0,1,3,4,H-,1,3,4,0,1000,250.0,3,C11MS,81,train
656.8441390991211,2,5,0,1,3,4,H-,1,0,2,0,1000,250.0,0,C11MS,82,train
1648.9620208740234,2,5,0,1,3,4,H-,0,1,3,0,1000,250.0,4,C11MS,83,train
881.0179233551025,2,5,0,1,3,4,H-,1,4,5,0,1000,250.0,4,C11MS,84,train
1089.003086090088,2,5,0,1,3,4,H-,1,3,4,0,1000,250.0,3,C11MS,85,train
655.6711196899414,2,5,0,1,3,4,H-,0,2,0,0,1000,250.0,1,C11MS,86,train
689.10813331604,2,5,0,1,3,4,H-,1,5,1,0,1000,250.0,5,C11MS,87,train
800.6761074066162,2,5,0,1,3,4,H-,1,5,1,0,1000,250.0,5,C11MS,88,train
1664.646863937378,2,5,0,1,3,4,H-,1,3,4,0,1000,250.0,3,C11MS,89,train
576.8351554870605,2,5,0,1,3,4,H-,1,3,4,0,1000,250.0,3,C11MS,90,train
912.5959873199463,2,5,0,1,3,4,H-,0,4,5,0,1000,250.0,1,C11MS,91,train
976.8719673156738,2,5,0,1,3,4,H-,1,3,4,0,1000,250.0,3,C11MS,92,train
1040.6601428985596,2,5,0,1,3,4,H-,1,3,4,0,1000,250.0,3,C11MS,93,train
608.8931560516357,2,5,0,1,3,4,H-,1,5,1,0,1000,250.0,5,C11MS,94,train
1472.620964050293,2,5,0,1,3,4,H-,0,3,4,0,1000,250.0,1,C11MS,95,train
784.7800254821777,2,5,0,1,3,4,H-,1,1,3,0,1000,250.0,1,C11MS,96,train
624.906063079834,2,5,0,1,3,4,H-,1,1,3,0,1000,250.0,1,C11MS,97,train
880.7001113891602,2,5,0,1,3,4,H-,1,4,5,0,1000,250.0,4,C11MS,98,train
672.976016998291,2,5,0,1,3,4,H-,1,4,5,0,1000,250.0,4,C11MS,99,train
703.8528919219971,2,5,0,1,3,4,H-,0,0,2,0,1000,250.0,5,C11MS,100,train
960.921049118042,2,5,0,1,3,4,H-,1,4,5,0,1000,250.0,4,C11MS,101,train
896.981954574585,2,5,0,1,3,4,H-,1,3,4,0,1000,250.0,3,C11MS,102,train
1216.9229984283447,2,5,0,1,3,4,H-,1,4,5,0,1000,250.0,4,C11MS,103,train
896.9190120697021,2,5,0,1,3,4,H-,1,5,1,0,1000,250.0,5,C11MS,104,train
656.71706199646,2,5,0,1,3,4,H-,1,5,1,0,1000,250.0,5,C11MS,105,train
800.908088684082,2,5,0,1,3,4,H-,1,3,4,0,1000,250.0,3,C11MS,106,train
2142.486810684204,2,5,0,1,3,4,H-,1,2,0,0,1000,250.0,2,C11MS,107,train
704.7410011291504,2,5,0,1,3,4,H-,1,2,0,0,1000,250.0,2,C11MS,108,train
624.9229907989502,2,5,0,1,3,4,H-,1,5,1,0,1000,250.0,5,C11MS,109,train
928.7068843841553,2,5,0,1,3,4,H-,1,2,0,0,1000,250.0,2,C11MS,110,train
592.7081108093262,2,5,0,1,3,4,H-,1,5,1,0,1000,250.0,5,C11MS,111,train
656.53395652771,2,5,0,1,3,4,H-,1,0,2,0,1000,250.0,0,C11MS,112,train
768.6519622802734,2,5,0,1,3,4,H-,1,0,2,0,1000,250.0,0,C11MS,113,train
848.8421440124512,2,5,0,1,3,4,H-,1,1,3,0,1000,250.0,1,C11MS,114,train
32.42611885070801,2,5,0,1,3,4,H-,0,1,3,0,1000,250.0,5,C11MS,115,train
544.9929237365723,2,5,0,1,3,4,H-,1,1,3,0,1000,250.0,1,C11MS,116,train
624.6340274810791,2,5,0,1,3,4,H-,1,1,3,0,1000,250.0,1,C11MS,117,train
1728.8379669189453,2,5,0,1,3,4,H-,0,2,0,0,1000,250.0,3,C11MS,118,train
1041.0161018371582,2,5,0,1,3,4,H-,1,2,0,0,1000,250.0,2,C11MS,119,train
928.961992263794,2,5,0,1,3,4,H-,1,3,4,0,1000,250.0,3,C11MS,120,train
640.7599449157715,2,5,0,1,3,4,H-,1,1,3,0,1000,250.0,1,C11MS,121,train
688.0800724029541,2,5,0,1,3,4,H-,0,3,4,0,1000,250.0,4,C11MS,122,train
704.7059535980225,2,5,0,1,3,4,H-,1,0,2,0,1000,250.0,0,C11MS,123,train
768.7888145446777,2,5,0,1,3,4,H-,1,0,2,0,1000,250.0,0,C11MS,124,train
1344.7749614715576,2,5,0,1,3,4,H-,1,4,5,0,1000,250.0,4,C11MS,125,train
720.1380729675293,2,5,0,1,3,4,H-,1,1,3,0,1000,250.0,1,C11MS,126,train
640.4991149902344,2,5,0,1,3,4,H-,1,5,1,0,1000,250.0,5,C11MS,127,train
1296.8509197235107,2,5,0,1,3,4,H-,1,4,5,0,1000,250.0,4,C11MS,128,train
960.7419967651367,2,5,0,1,3,4,H-,1,3,4,0,1000,250.0,3,C11MS,129,train
976.1531352996826,2,5,0,1,3,4,H-,0,0,2,0,1000,250.0,5,C11MS,130,train
176.59592628479004,2,5,0,1,3,4,H-,0,5,1,0,1000,250.0,4,C11MS,131,train
720.7379341125488,2,5,0,1,3,4,H-,1,1,3,0,1000,250.0,1,C11MS,132,train
849.9410152435303,2,5,0,1,3,4,H-,0,2,0,0,1000,250.0,3,C11MS,133,train
880.7320594787598,2,5,0,1,3,4,H-,0,0,2,0,1000,250.0,5,C11MS,134,train
656.8999290466309,2,5,0,1,3,4,H-,1,5,1,0,1000,250.0,5,C11MS,135,train
721.174955368042,2,5,0,1,3,4,H-,1,1,3,0,1000,250.0,1,C11MS,136,train
1536.402940750122,2,5,0,1,3,4,H-,1,0,2,0,1000,250.0,0,C11MS,137,train
622.7898597717285,2,5,0,1,3,4,H-,1,0,2,0,1000,250.0,0,C11MS,138,train
480.7770252227783,2,5,0,1,3,4,H-,1,0,2,0,1000,250.0,0,C11MS,139,train
416.64910316467285,2,5,0,1,3,4,H-,1,0,2,0,1000,250.0,0,C11MS,140,train
704.7228813171387,2,5,0,1,3,4,H-,1,1,3,0,1000,250.0,1,C11MS,141,train
1088.5810852050781,2,5,0,1,3,4,H-,1,3,4,0,1000,250.0,3,C11MS,142,train
640.7167911529541,2,5,0,1,3,4,H-,1,1,3,0,1000,250.0,1,C11MS,143,train
912.8191471099854,2,5,0,1,3,4,H-,1,3,4,0,1000,250.0,3,C11MS,144,train
672.1289157867432,2,5,0,1,3,4,H-,1,3,4,0,1000,250.0,3,C11MS,145,train
672.4498271942139,2,5,0,1,3,4,H-,1,0,2,0,1000,250.0,0,C11MS,146,train
671.515941619873,2,5,0,1,3,4,H-,1,3,4,0,1000,250.0,3,C11MS,147,train
1248.7280368804932,2,5,0,1,3,4,H-,1,4,5,0,1000,250.0,4,C11MS,148,train
688.8740062713623,2,5,0,1,3,4,H-,1,5,1,0,1000,250.0,5,C11MS,149,train
816.9219493865967,2,5,0,1,3,4,H-,1,0,2,0,1000,250.0,0,C11MS,150,train
1216.8338298797607,2,5,0,1,3,4,H-,0,2,0,0,1000,250.0,3,C11MS,151,train
1039.773941040039,2,5,0,1,3,4,H-,1,4,5,0,1000,250.0,4,C11MS,152,train
833.0488204956055,2,5,0,1,3,4,H-,0,3,4,0,1000,250.0,1,C11MS,153,train
768.9881324768066,2,5,0,1,3,4,H-,1,4,5,0,1000,250.0,4,C11MS,154,train
624.6800422668457,2,5,0,1,3,4,H-,1,5,1,0,1000,250.0,5,C11MS,155,train
1152.6639461517334,2,5,0,1,3,4,H-,1,3,4,0,1000,250.0,3,C11MS,156,train
528.4490585327148,2,5,0,1,3,4,H-,1,2,0,0,1000,250.0,2,C11MS,157,train
592.6849842071533,2,5,0,1,3,4,H-,1,0,2,0,1000,250.0,0,C11MS,158,train
800.2519607543945,2,5,0,1,3,4,H-,1,3,4,0,1000,250.0,3,C11MS,159,train
752.9010772705078,2,5,0,1,3,4,H-,0,2,0,0,1000,250.0,1,C11MS,160,train
1089.0769958496094,2,5,0,1,3,4,H-,1,4,5,0,1000,250.0,4,C11MS,161,train
719.1939353942871,2,5,0,1,3,4,H-,1,5,1,0,1000,250.0,5,C11MS,162,train
862.6880645751953,2,5,0,1,3,4,H-,1,2,0,0,1000,250.0,2,C11MS,163,train
960.6389999389648,2,5,0,1,3,4,H-,1,1,3,0,1000,250.0,1,C11MS,164,train
640.2921676635742,2,5,0,1,3,4,H-,1,1,3,0,1000,250.0,1,C11MS,165,train
654.120922088623,2,5,0,1,3,4,H-,1,0,2,0,1000,250.0,0,C11MS,166,train
816.7078495025635,2,5,0,1,3,4,H-,1,4,5,0,1000,250.0,4,C11MS,167,train
704.9460411071777,2,5,0,1,3,4,H-,1,4,5,0,1000,250.0,4,C11MS,168,train
704.1258811950684,2,5,0,1,3,4,H-,1,0,2,0,1000,250.0,0,C11MS,169,train
865.0498390197754,2,5,0,1,3,4,H-,0,3,4,0,1000,250.0,4,C11MS,170,train
720.606803894043,2,5,0,1,3,4,H-,1,1,3,0,1000,250.0,1,C11MS,171,train
1.7170906066894531,2,5,0,1,3,4,H-,0,0,2,0,1000,250.0,4,C11MS,172,train
496.8440532684326,2,5,0,1,3,4,H-,1,0,2,0,1000,250.0,0,C11MS,173,train
528.3310413360596,2,5,0,1,3,4,H-,1,5,1,0,1000,250.0,5,C11MS,174,train
864.5060062408447,2,5,0,1,3,4,H-,1,4,5,0,1000,250.0,4,C11MS,175,train
608.6540222167969,2,5,0,1,3,4,H-,1,4,5,0,1000,250.0,4,C11MS,176,train
336.8501663208008,2,5,0,1,3,4,H-,1,4,5,0,1000,250.0,4,C11MS,177,train
669.4450378417969,2,5,0,1,3,4,H-,1,0,2,0,1000,250.0,0,C11MS,178,train
944.5030689239502,2,5,0,1,3,4,H-,1,2,0,0,1000,250.0,2,C11MS,179,train
624.7241497039795,2,5,0,1,3,4,H-,1,1,3,0,1000,250.0,1,C11MS,180,train
624.8910427093506,2,5,0,1,3,4,H-,1,4,5,0,1000,250.0,4,C11MS,181,train
608.9608669281006,2,5,0,1,3,4,H-,1,1,3,0,1000,250.0,1,C11MS,182,train
656.5279960632324,2,5,0,1,3,4,H-,0,4,5,0,1000,250.0,1,C11MS,183,train
544.75998878479,2,5,0,1,3,4,H-,1,4,5,0,1000,250.0,4,C11MS,184,train
736.4609241485596,2,5,0,1,3,4,H-,1,0,2,0,1000,250.0,0,C11MS,185,train
608.7551116943359,2,5,0,1,3,4,H-,1,0,2,0,1000,250.0,0,C11MS,186,train
928.941011428833,2,5,0,1,3,4,H-,1,3,4,0,1000,250.0,3,C11MS,187,train
1136.9168758392334,2,5,0,1,3,4,H-,1,3,4,0,1000,250.0,3,C11MS,188,train
1088.8700485229492,2,5,0,1,3,4,H-,0,2,0,0,1000,250.0,1,C11MS,189,train
592.9279327392578,2,5,0,1,3,4,H-,1,5,1,0,1000,250.0,5,C11MS,190,train
927.778959274292,2,5,0,1,3,4,H-,1,3,4,0,1000,250.0,3,C11MS,191,train
640.6869888305664,2,5,0,1,3,4,H-,1,2,0,0,1000,250.0,2,C11MS,192,train
577.0819187164307,2,5,0,1,3,4,H-,1,5,1,0,1000,250.0,5,C11MS,193,train
576.9078731536865,2,5,0,1,3,4,H-,1,5,1,0,1000,250.0,5,C11MS,194,train
656.810998916626,2,5,0,1,3,4,H-,1,1,3,0,1000,250.0,1,C11MS,195,train
528.9039611816406,2,5,0,1,3,4,H-,1,5,1,0,1000,250.0,5,C11MS,196,train
928.3058643341064,2,5,0,1,3,4,H-,1,2,0,0,1000,250.0,2,C11MS,197,train
1088.6130332946777,2,5,0,1,3,4,H-,1,4,5,0,1000,250.0,4,C11MS,198,train
816.9519901275635,2,5,0,1,3,4,H-,1,2,0,0,1000,250.0,2,C11MS,199,train
528.6128520965576,2,5,0,1,3,4,H-,1,5,1,0,1000,250.0,5,C11MS,200,train
736.732006072998,2,5,0,1,3,4,H-,0,3,4,0,1000,250.0,2,C11MS,201,train
1104.4280529022217,2,5,0,1,3,4,H-,1,4,5,0,1000,250.0,4,C11MS,202,train
958.6489200592041,2,5,0,1,3,4,H-,1,3,4,0,1000,250.0,3,C11MS,203,train
704.369068145752,2,5,0,1,3,4,H-,0,2,0,0,1000,250.0,1,C11MS,204,train
768.9647674560547,2,5,0,1,3,4,H-,0,1,3,0,1000,250.0,2,C11MS,205,train
896.7020511627197,2,5,0,1,3,4,H-,1,2,0,0,1000,250.0,2,C11MS,206,train
560.6319904327393,2,5,0,1,3,4,H-,1,5,1,0,1000,250.0,5,C11MS,207,train
624.2480278015137,2,5,0,1,3,4,H-,1,0,2,0,1000,250.0,0,C11MS,208,train
785.038948059082,2,5,0,1,3,4,H-,1,2,0,0,1000,250.0,2,C11MS,209,train
672.778844833374,2,5,0,1,3,4,H-,1,5,1,0,1000,250.0,5,C11MS,210,train
464.8480415344238,2,5,0,1,3,4,H-,1,3,4,0,1000,250.0,3,C11MS,211,train
624.7239112854004,2,5,0,1,3,4,H-,1,5,1,0,1000,250.0,5,C11MS,212,train
576.988935470581,2,5,0,1,3,4,H-,1,0,2,0,1000,250.0,0,C11MS,213,train
1040.930986404419,2,5,0,1,3,4,H-,0,2,0,0,1000,250.0,4,C11MS,214,train
1312.4711513519287,2,5,0,1,3,4,H-,1,4,5,0,1000,250.0,4,C11MS,215,train
1344.4828987121582,2,5,0,1,3,4,H-,1,2,0,0,1000,250.0,2,C11MS,216,train
592.8299427032471,2,5,0,1,3,4,H-,1,5,1,0,1000,250.0,5,C11MS,217,train
625.0009536743164,2,5,0,1,3,4,H-,1,0,2,0,1000,250.0,0,C11MS,218,train
896.4300155639648,2,5,0,1,3,4,H-,1,2,0,0,1000,250.0,2,C11MS,219,train
704.6430110931396,2,5,0,1,3,4,H-,1,1,3,0,1000,250.0,1,C11MS,220,train
576.6880512237549,2,5,0,1,3,4,H-,1,0,2,0,1000,250.0,0,C11MS,221,train
976.6089916229248,2,5,0,1,3,4,H-,1,4,5,0,1000,250.0,4,C11MS,222,train
592.8740501403809,2,5,0,1,3,4,H-,1,1,3,0,1000,250.0,1,C11MS,223,train
1184.1530799865723,2,5,0,1,3,4,H-,1,2,0,0,1000,250.0,2,C11MS,224,train
590.648889541626,2,5,0,1,3,4,H-,1,1,3,0,1000,250.0,1,C11MS,225,train
1344.7439670562744,2,5,0,1,3,4,H-,1,2,0,0,1000,250.0,2,C11MS,226,train
960.5419635772705,2,5,0,1,3,4,H-,1,3,4,0,1000,250.0,3,C11MS,227,train
832.9000473022461,2,5,0,1,3,4,H-,1,3,4,0,1000,250.0,3,C11MS,228,train
960.7698917388916,2,5,0,1,3,4,H-,1,3,4,0,1000,250.0,3,C11MS,229,train
704.5881748199463,2,5,0,1,3,4,H-,1,0,2,0,1000,250.0,0,C11MS,230,train
703.4471035003662,2,5,0,1,3,4,H-,1,1,3,0,1000,250.0,1,C11MS,231,train
1248.1870651245117,2,5,0,1,3,4,H-,1,4,5,0,1000,250.0,4,C11MS,232,train
784.559965133667,2,5,0,1,3,4,H-,1,0,2,0,1000,250.0,0,C11MS,233,train
496.80304527282715,2,5,0,1,3,4,H-,1,5,1,0,1000,250.0,5,C11MS,234,train
1086.7109298706055,2,5,0,1,3,4,H-,1,2,0,0,1000,250.0,2,C11MS,235,train
672.8520393371582,2,5,0,1,3,4,H-,1,2,0,0,1000,250.0,2,C11MS,236,train
624.5360374450684,2,5,0,1,3,4,H-,1,0,2,0,1000,250.0,0,C11MS,237,train
864.922046661377,2,5,0,1,3,4,H-,1,3,4,0,1000,250.0,3,C11MS,238,train
848.8161563873291,2,5,0,1,3,4,H-,1,3,4,0,1000,250.0,3,C11MS,239,train
752.4809837341309,2,5,0,1,3,4,H-,1,3,4,0,1000,250.0,3,C11MS,240,train
848.5500812530518,2,5,0,1,3,4,H-,1,1,3,0,1000,250.0,1,C11MS,241,train
800.8160591125488,2,5,0,1,3,4,H-,1,4,5,0,1000,250.0,4,C11MS,242,train
704.6511173248291,2,5,0,1,3,4,H-,1,3,4,0,1000,250.0,3,C11MS,243,train
672.5978851318359,2,5,0,1,3,4,H-,1,5,1,0,1000,250.0,5,C11MS,244,train
784.4200134277344,2,5,0,1,3,4,H-,1,2,0,0,1000,250.0,2,C11MS,245,train
800.3640174865723,2,5,0,1,3,4,H-,1,4,5,0,1000,250.0,4,C11MS,246,train
624.9141693115234,2,5,0,1,3,4,H-,1,5,1,0,1000,250.0,5,C11MS,247,train
1136.7669105529785,2,5,0,1,3,4,H-,1,2,0,0,1000,250.0,2,C11MS,248,train
705.0018310546875,2,5,0,1,3,4,H-,1,0,2,0,1000,250.0,0,C11MS,249,train
4177.064895629883,4,1,2,3,0,5,H-,1,3,3,0,1000,250.0,3,C11MS,250,test
2496.7970848083496,4,1,2,3,0,5,H-,1,0,4,0,1000,250.0,0,C11MS,251,test
1664.829969406128,4,1,2,3,0,5,H-,0,4,0,0,1000,250.0,3,C11MS,252,test
1984.706163406372,4,1,2,3,0,5,H-,1,4,0,0,1000,250.0,4,C11MS,253,test
832.9558372497559,4,1,2,3,0,5,H-,0,1,1,0,1000,250.0,5,C11MS,254,test
2416.350841522217,4,1,2,3,0,5,H-,1,3,3,0,1000,250.0,3,C11MS,255,test
2240.478992462158,4,1,2,3,0,5,H-,1,0,4,0,1000,250.0,0,C11MS,256,test
2656.5849781036377,4,1,2,3,0,5,H-,1,3,3,0,1000,250.0,3,C11MS,257,test
624.4127750396729,4,1,2,3,0,5,H-,1,3,3,0,1000,250.0,3,C11MS,258,test
1453.6290168762207,4,1,2,3,0,5,H-,1,4,0,0,1000,250.0,4,C11MS,259,test
1248.795986175537,4,1,2,3,0,5,H-,0,3,3,0,1000,250.0,4,C11MS,260,test
1152.4109840393066,4,1,2,3,0,5,H-,1,3,3,0,1000,250.0,3,C11MS,261,test
1104.7279834747314,4,1,2,3,0,5,H-,0,5,5,0,1000,250.0,4,C11MS,262,test
1360.7439994812012,4,1,2,3,0,5,H-,1,4,0,0,1000,250.0,4,C11MS,263,test
1664.8058891296387,4,1,2,3,0,5,H-,0,0,4,0,1000,250.0,1,C11MS,264,test
704.6270370483398,4,1,2,3,0,5,H-,0,1,1,0,1000,250.0,0,C11MS,265,test
1888.427972793579,4,1,2,3,0,5,H-,1,3,3,0,1000,250.0,3,C11MS,266,test
784.6250534057617,4,1,2,3,0,5,H-,1,0,4,0,1000,250.0,0,C11MS,267,test
1648.6740112304688,4,1,2,3,0,5,H-,1,2,2,0,1000,250.0,2,C11MS,268,test
1232.740879058838,4,1,2,3,0,5,H-,1,2,2,0,1000,250.0,2,C11MS,269,test
800.602912902832,4,1,2,3,0,5,H-,1,0,4,0,1000,250.0,0,C11MS,270,test
2080.7759761810303,4,1,2,3,0,5,H-,1,3,3,0,1000,250.0,3,C11MS,271,test
1840.6519889831543,4,1,2,3,0,5,H-,1,5,5,0,1000,250.0,5,C11MS,272,test
816.3559436798096,4,1,2,3,0,5,H-,1,4,0,0,1000,250.0,4,C11MS,273,test
479.74395751953125,4,1,2,3,0,5,H-,1,5,5,0,1000,250.0,5,C11MS,274,test
800.8458614349365,4,1,2,3,0,5,H-,1,0,4,0,1000,250.0,0,C11MS,275,test
752.5038719177246,4,1,2,3,0,5,H-,1,0,4,0,1000,250.0,0,C11MS,276,test
2016.4082050323486,4,1,2,3,0,5,H-,1,3,3,0,1000,250.0,3,C11MS,277,test
880.8121681213379,4,1,2,3,0,5,H-,1,5,5,0,1000,250.0,5,C11MS,278,test
464.6430015563965,4,1,2,3,0,5,H-,1,5,5,0,1000,250.0,5,C11MS,279,test
528.5019874572754,4,1,2,3,0,5,H-,1,5,5,0,1000,250.0,5,C11MS,280,test
400.67410469055176,4,1,2,3,0,5,H-,1,5,5,0,1000,250.0,5,C11MS,281,test
736.6659641265869,4,1,2,3,0,5,H-,1,0,4,0,1000,250.0,0,C11MS,282,test
608.9489459991455,4,1,2,3,0,5,H-,1,5,5,0,1000,250.0,5,C11MS,283,test
1392.5871849060059,4,1,2,3,0,5,H-,1,2,2,0,1000,250.0,2,C11MS,284,test
1376.953125,4,1,2,3,0,5,H-,0,3,3,0,1000,250.0,4,C11MS,285,test
2528.887987136841,4,1,2,3,0,5,H-,1,4,0,0,1000,250.0,4,C11MS,286,test
992.7799701690674,4,1,2,3,0,5,H-,1,4,0,0,1000,250.0,4,C11MS,287,test
1376.452922821045,4,1,2,3,0,5,H-,1,3,3,0,1000,250.0,3,C11MS,288,test
720.5111980438232,4,1,2,3,0,5,H-,1,5,5,0,1000,250.0,5,C11MS,289,test
478.6210060119629,4,1,2,3,0,5,H-,0,3,3,0,1000,250.0,5,C11MS,290,test
1040.8589839935303,4,1,2,3,0,5,H-,1,4,0,0,1000,250.0,4,C11MS,291,test
1568.6731338500977,4,1,2,3,0,5,H-,1,1,1,0,1000,250.0,1,C11MS,292,test
800.6901741027832,4,1,2,3,0,5,H-,1,1,1,0,1000,250.0,1,C11MS,293,test
624.5510578155518,4,1,2,3,0,5,H-,1,5,5,0,1000,250.0,5,C11MS,294,test
1584.4531059265137,4,1,2,3,0,5,H-,1,3,3,0,1000,250.0,3,C11MS,295,test
1328.8109302520752,4,1,2,3,0,5,H-,1,2,2,0,1000,250.0,2,C11MS,296,test
1632.9421997070312,4,1,2,3,0,5,H-,1,1,1,0,1000,250.0,1,C11MS,297,test
816.9939517974854,4,1,2,3,0,5,H-,1,0,4,0,1000,250.0,0,C11MS,298,test
1264.4188404083252,4,1,2,3,0,5,H-,1,1,1,0,1000,250.0,1,C11MS,299,test
2016.706943511963,4,1,2,3,0,5,H-,1,5,5,0,1000,250.0,5,C11MS,300,test
1744.7400093078613,4,1,2,3,0,5,H-,1,3,3,0,1000,250.0,3,C11MS,301,test
656.872034072876,4,1,2,3,0,5,H-,1,3,3,0,1000,250.0,3,C11MS,302,test
640.4879093170166,4,1,2,3,0,5,H-,1,3,3,0,1000,250.0,3,C11MS,303,test
1201.0281085968018,4,1,2,3,0,5,H-,1,2,2,0,1000,250.0,2,C11MS,304,test
1632.9100131988525,4,1,2,3,0,5,H-,1,5,5,0,1000,250.0,5,C11MS,305,test
1536.6928577423096,4,1,2,3,0,5,H-,1,3,3,0,1000,250.0,3,C11MS,306,test
721.1339473724365,4,1,2,3,0,5,H-,1,0,4,0,1000,250.0,0,C11MS,307,test
576.9031047821045,4,1,2,3,0,5,H-,1,5,5,0,1000,250.0,5,C11MS,308,test
592.6110744476318,4,1,2,3,0,5,H-,1,5,5,0,1000,250.0,5,C11MS,309,test
592.926025390625,4,1,2,3,0,5,H-,1,5,5,0,1000,250.0,5,C11MS,310,test
848.5188484191895,4,1,2,3,0,5,H-,0,1,1,0,1000,250.0,0,C11MS,311,test
1104.8920154571533,4,1,2,3,0,5,H-,1,4,0,0,1000,250.0,4,C11MS,312,test
687.8261566162109,4,1,2,3,0,5,H-,1,4,0,0,1000,250.0,4,C11MS,313,test
736.6271018981934,4,1,2,3,0,5,H-,1,0,4,0,1000,250.0,0,C11MS,314,test
1248.9421367645264,4,1,2,3,0,5,H-,1,2,2,0,1000,250.0,2,C11MS,315,test
688.7331008911133,4,1,2,3,0,5,H-,1,2,2,0,1000,250.0,2,C11MS,316,test
976.9411087036133,4,1,2,3,0,5,H-,1,2,2,0,1000,250.0,2,C11MS,317,test
1136.686086654663,4,1,2,3,0,5,H-,1,3,3,0,1000,250.0,3,C11MS,318,test
2032.8269004821777,4,1,2,3,0,5,H-,1,1,1,0,1000,250.0,1,C11MS,319,test
896.6958522796631,4,1,2,3,0,5,H-,1,4,0,0,1000,250.0,4,C11MS,320,test
1008.552074432373,4,1,2,3,0,5,H-,1,5,5,0,1000,250.0,5,C11MS,321,test
576.7941474914551,4,1,2,3,0,5,H-,1,5,5,0,1000,250.0,5,C11MS,322,test
928.8539886474609,4,1,2,3,0,5,H-,1,1,1,0,1000,250.0,1,C11MS,323,test
944.5810317993164,4,1,2,3,0,5,H-,1,4,0,0,1000,250.0,4,C11MS,324,test
704.6818733215332,4,1,2,3,0,5,H-,1,5,5,0,1000,250.0,5,C11MS,325,test
1104.856014251709,4,1,2,3,0,5,H-,1,2,2,0,1000,250.0,2,C11MS,326,test
1040.834903717041,4,1,2,3,0,5,H-,1,5,5,0,1000,250.0,5,C11MS,327,test
1840.4960632324219,4,1,2,3,0,5,H-,1,1,1,0,1000,250.0,1,C11MS,328,test
1201.0419368743896,4,1,2,3,0,5,H-,1,1,1,0,1000,250.0,1,C11MS,329,test
496.81997299194336,4,1,2,3,0,5,H-,1,1,1,0,1000,250.0,1,C11MS,330,test
464.7519588470459,4,1,2,3,0,5,H-,1,1,1,0,1000,250.0,1,C11MS,331,test
736.9959354400635,4,1,2,3,0,5,H-,1,0,4,0,1000,250.0,0,C11MS,332,test
1568.2730674743652,4,1,2,3,0,5,H-,1,3,3,0,1000,250.0,3,C11MS,333,test
800.9130954742432,4,1,2,3,0,5,H-,1,4,0,0,1000,250.0,4,C11MS,334,test
1664.8361682891846,4,1,2,3,0,5,H-,1,1,1,0,1000,250.0,1,C11MS,335,test
1167.3221588134766,4,1,2,3,0,5,H-,1,2,2,0,1000,250.0,2,C11MS,336,test
1376.5840530395508,4,1,2,3,0,5,H-,1,3,3,0,1000,250.0,3,C11MS,337,test
1008.9111328125,4,1,2,3,0,5,H-,1,4,0,0,1000,250.0,4,C11MS,338,test
2065.584182739258,4,1,2,3,0,5,H-,1,5,5,0,1000,250.0,5,C11MS,339,test
784.5170497894287,4,1,2,3,0,5,H-,1,5,5,0,1000,250.0,5,C11MS,340,test
801.055908203125,4,1,2,3,0,5,H-,1,4,0,0,1000,250.0,4,C11MS,341,test
1184.485912322998,4,1,2,3,0,5,H-,0,1,1,0,1000,250.0,2,C11MS,342,test
928.5991191864014,4,1,2,3,0,5,H-,1,4,0,0,1000,250.0,4,C11MS,343,test
1408.6809158325195,4,1,2,3,0,5,H-,1,3,3,0,1000,250.0,3,C11MS,344,test
1552.8199672698975,4,1,2,3,0,5,H-,1,1,1,0,1000,250.0,1,C11MS,345,test
720.0610637664795,4,1,2,3,0,5,H-,1,2,2,0,1000,250.0,2,C11MS,346,test
896.569013595581,4,1,2,3,0,5,H-,1,2,2,0,1000,250.0,2,C11MS,347,test
529.062032699585,4,1,2,3,0,5,H-,1,2,2,0,1000,250.0,2,C11MS,348,test
880.5880546569824,4,1,2,3,0,5,H-,1,3,3,0,1000,250.0,3,C11MS,349,test
528.2199382781982,4,1,2,3,0,5,H-,1,3,3,0,1000,250.0,3,C11MS,350,test
1424.6418476104736,4,1,2,3,0,5,H-,1,1,1,0,1000,250.0,1,C11MS,351,test
704.8377990722656,4,1,2,3,0,5,H-,1,0,4,0,1000,250.0,0,C11MS,352,test
1038.9909744262695,4,1,2,3,0,5,H-,0,4,0,0,1000,250.0,3,C11MS,353,test
897.0317840576172,4,1,2,3,0,5,H-,1,2,2,0,1000,250.0,2,C11MS,354,test
1216.6001796722412,4,1,2,3,0,5,H-,1,3,3,0,1000,250.0,3,C11MS,355,test
896.691083908081,4,1,2,3,0,5,H-,1,3,3,0,1000,250.0,3,C11MS,356,test
1360.4991436004639,4,1,2,3,0,5,H-,1,1,1,0,1000,250.0,1,C11MS,357,test
1264.9071216583252,4,1,2,3,0,5,H-,1,1,1,0,1000,250.0,1,C11MS,358,test
1952.805995941162,4,1,2,3,0,5,H-,0,0,4,0,1000,250.0,4,C11MS,359,test
719.027042388916,4,1,2,3,0,5,H-,0,5,5,0,1000,250.0,4,C11MS,360,test
433.5179328918457,4,1,2,3,0,5,H-,0,5,5,0,1000,250.0,3,C11MS,361,test
960.7729911804199,4,1,2,3,0,5,H-,1,1,1,0,1000,250.0,1,C11MS,362,test
1008.8610649108887,4,1,2,3,0,5,H-,0,5,5,0,1000,250.0,4,C11MS,363,test
608.7601184844971,4,1,2,3,0,5,H-,1,5,5,0,1000,250.0,5,C11MS,364,test
576.4319896697998,4,1,2,3,0,5,H-,1,4,0,0,1000,250.0,4,C11MS,365,test
208.75000953674316,4,1,2,3,0,5,H-,0,4,0,0,1000,250.0,5,C11MS,366,test
669.6498394012451,4,1,2,3,0,5,H-,1,5,5,0,1000,250.0,5,C11MS,367,test
321.11406326293945,4,1,2,3,0,5,H-,0,2,2,0,1000,250.0,1,C11MS,368,test
256.9420337677002,4,1,2,3,0,5,H-,1,5,5,0,1000,250.0,5,C11MS,369,test
400.5858898162842,4,1,2,3,0,5,H-,1,5,5,0,1000,250.0,5,C11MS,370,test
240.37694931030273,4,1,2,3,0,5,H-,1,5,5,0,1000,250.0,5,C11MS,371,test
736.5272045135498,4,1,2,3,0,5,H-,0,3,3,0,1000,250.0,4,C11MS,372,test
16.941070556640625,4,1,2,3,0,5,H-,0,2,2,0,1000,250.0,3,C11MS,373,test
752.9571056365967,4,1,2,3,0,5,H-,1,0,4,0,1000,250.0,0,C11MS,374,test
832.3979377746582,4,1,2,3,0,5,H-,1,4,0,0,1000,250.0,4,C11MS,375,test
512.5789642333984,4,1,2,3,0,5,H-,1,0,4,0,1000,250.0,0,C11MS,376,test
640.4271125793457,4,1,2,3,0,5,H-,0,3,3,0,1000,250.0,4,C11MS,377,test
608.8941097259521,4,1,2,3,0,5,H-,1,4,0,0,1000,250.0,4,C11MS,378,test
640.8560276031494,4,1,2,3,0,5,H-,1,4,0,0,1000,250.0,4,C11MS,379,test
688.7831687927246,4,1,2,3,0,5,H-,1,1,1,0,1000,250.0,1,C11MS,380,test
704.8819065093994,4,1,2,3,0,5,H-,1,5,5,0,1000,250.0,5,C11MS,381,test
576.3897895812988,4,1,2,3,0,5,H-,1,1,1,0,1000,250.0,1,C11MS,382,test
193.31884384155273,4,1,2,3,0,5,H-,0,3,3,0,1000,250.0,5,C11MS,383,test
785.0301265716553,4,1,2,3,0,5,H-,1,1,1,0,1000,250.0,1,C11MS,384,test
656.3811302185059,4,1,2,3,0,5,H-,1,0,4,0,1000,250.0,0,C11MS,385,test
704.2460441589355,4,1,2,3,0,5,H-,1,1,1,0,1000,250.0,1,C11MS,386,test
1120.8040714263916,4,1,2,3,0,5,H-,1,4,0,0,1000,250.0,4,C11MS,387,test
848.7930297851562,4,1,2,3,0,5,H-,1,3,3,0,1000,250.0,3,C11MS,388,test
1185.0769519805908,4,1,2,3,0,5,H-,1,5,5,0,1000,250.0,5,C11MS,389,test
861.8450164794922,4,1,2,3,0,5,H-,1,4,0,0,1000,250.0,4,C11MS,390,test
960.874080657959,4,1,2,3,0,5,H-,1,2,2,0,1000,250.0,2,C11MS,391,test
736.9990348815918,4,1,2,3,0,5,H-,1,1,1,0,1000,250.0,1,C11MS,392,test
880.7229995727539,4,1,2,3,0,5,H-,1,1,1,0,1000,250.0,1,C11MS,393,test
528.7611484527588,4,1,2,3,0,5,H-,1,2,2,0,1000,250.0,2,C11MS,394,test
496.6161251068115,4,1,2,3,0,5,H-,1,1,1,0,1000,250.0,1,C11MS,395,test
752.9251575469971,4,1,2,3,0,5,H-,1,0,4,0,1000,250.0,0,C11MS,396,test
848.8819599151611,4,1,2,3,0,5,H-,1,4,0,0,1000,250.0,4,C11MS,397,test
272.8750705718994,4,1,2,3,0,5,H-,0,2,2,0,1000,250.0,5,C11MS,398,test
560.9409809112549,4,1,2,3,0,5,H-,1,5,5,0,1000,250.0,5,C11MS,399,test
1054.7080039978027,4,1,2,3,0,5,H-,1,2,2,0,1000,250.0,2,C11MS,400,test
1040.9660339355469,4,1,2,3,0,5,H-,0,3,3,0,1000,250.0,4,C11MS,401,test
752.4268627166748,4,1,2,3,0,5,H-,1,1,1,0,1000,250.0,1,C11MS,402,test
1024.8842239379883,4,1,2,3,0,5,H-,1,4,0,0,1000,250.0,4,C11MS,403,test
736.9630336761475,4,1,2,3,0,5,H-,1,4,0,0,1000,250.0,4,C11MS,404,test
320.16706466674805,4,1,2,3,0,5,H-,0,0,4,0,1000,250.0,4,C11MS,405,test
864.6390438079834,4,1,2,3,0,5,H-,1,3,3,0,1000,250.0,3,C11MS,406,test
944.8730945587158,4,1,2,3,0,5,H-,1,2,2,0,1000,250.0,2,C11MS,407,test
544.8460578918457,4,1,2,3,0,5,H-,0,2,2,0,1000,250.0,1,C11MS,408,test
880.9640407562256,4,1,2,3,0,5,H-,1,3,3,0,1000,250.0,3,C11MS,409,test
671.5700626373291,4,1,2,3,0,5,H-,1,3,3,0,1000,250.0,3,C11MS,410,test
976.5491485595703,4,1,2,3,0,5,H-,1,5,5,0,1000,250.0,5,C11MS,411,test
800.6730079650879,4,1,2,3,0,5,H-,1,1,1,0,1000,250.0,1,C11MS,412,test
672.5630760192871,4,1,2,3,0,5,H-,1,0,4,0,1000,250.0,0,C11MS,413,test
704.1440010070801,4,1,2,3,0,5,H-,1,0,4,0,1000,250.0,0,C11MS,414,test
848.2489585876465,4,1,2,3,0,5,H-,1,4,0,0,1000,250.0,4,C11MS,415,test
1696.0179805755615,4,1,2,3,0,5,H-,1,1,1,0,1000,250.0,1,C11MS,416,test
720.4339504241943,4,1,2,3,0,5,H-,1,5,5,0,1000,250.0,5,C11MS,417,test
1006.9561004638672,4,1,2,3,0,5,H-,1,3,3,0,1000,250.0,3,C11MS,418,test
913.0520820617676,4,1,2,3,0,5,H-,1,4,0,0,1000,250.0,4,C11MS,419,test
896.4090347290039,4,1,2,3,0,5,H-,1,2,2,0,1000,250.0,2,C11MS,420,test
656.486988067627,4,1,2,3,0,5,H-,1,0,4,0,1000,250.0,0,C11MS,421,test
624.9518394470215,4,1,2,3,0,5,H-,1,5,5,0,1000,250.0,5,C11MS,422,test
592.7481651306152,4,1,2,3,0,5,H-,1,5,5,0,1000,250.0,5,C11MS,423,test
544.8629856109619,4,1,2,3,0,5,H-,1,0,4,0,1000,250.0,0,C11MS,424,test
832.8640460968018,4,1,2,3,0,5,H-,1,2,2,0,1000,250.0,2,C11MS,425,test
736.3059520721436,4,1,2,3,0,5,H-,1,5,5,0,1000,250.0,5,C11MS,426,test
496.7639446258545,4,1,2,3,0,5,H-,1,5,5,0,1000,250.0,5,C11MS,427,test
928.5101890563965,4,1,2,3,0,5,H-,1,3,3,0,1000,250.0,3,C11MS,428,test
944.7200298309326,4,1,2,3,0,5,H-,1,3,3,0,1000,250.0,3,C11MS,429,test
800.7009029388428,4,1,2,3,0,5,H-,1,5,5,0,1000,250.0,5,C11MS,430,test
736.9518280029297,4,1,2,3,0,5,H-,1,2,2,0,1000,250.0,2,C11MS,431,test
622.4868297576904,4,1,2,3,0,5,H-,1,2,2,0,1000,250.0,2,C11MS,432,test
1040.8308506011963,4,1,2,3,0,5,H-,0,4,0,0,1000,250.0,5,C11MS,433,test
672.6200580596924,4,1,2,3,0,5,H-,1,0,4,0,1000,250.0,0,C11MS,434,test
672.6489067077637,4,1,2,3,0,5,H-,1,2,2,0,1000,250.0,2,C11MS,435,test
1024.320125579834,4,1,2,3,0,5,H-,0,1,1,0,1000,250.0,2,C11MS,436,test
704.8640251159668,4,1,2,3,0,5,H-,1,1,1,0,1000,250.0,1,C11MS,437,test
606.774091720581,4,1,2,3,0,5,H-,1,5,5,0,1000,250.0,5,C11MS,438,test
657.0489406585693,4,1,2,3,0,5,H-,1,1,1,0,1000,250.0,1,C11MS,439,test
784.2881679534912,4,1,2,3,0,5,H-,1,1,1,0,1000,250.0,1,C11MS,440,test
1168.6229705810547,4,1,2,3,0,5,H-,1,3,3,0,1000,250.0,3,C11MS,441,test
608.8480949401855,4,1,2,3,0,5,H-,1,0,4,0,1000,250.0,0,C11MS,442,test
592.1709537506104,4,1,2,3,0,5,H-,1,5,5,0,1000,250.0,5,C11MS,443,test
798.234224319458,4,1,2,3,0,5,H-,1,1,1,0,1000,250.0,1,C11MS,444,test
592.6628112792969,4,1,2,3,0,5,H-,1,0,4,0,1000,250.0,0,C11MS,445,test
656.8360328674316,4,1,2,3,0,5,H-,0,2,2,0,1000,250.0,1,C11MS,446,test
608.2520484924316,4,1,2,3,0,5,H-,1,5,5,0,1000,250.0,5,C11MS,447,test
560.8201026916504,4,1,2,3,0,5,H-,1,0,4,0,1000,250.0,0,C11MS,448,test
1600.5580425262451,4,1,2,3,0,5,H-,1,0,4,0,1000,250.0,0,C11MS,449,test
1136.760950088501,4,1,2,3,0,5,H-,1,2,2,0,1000,250.0,2,C11MS,450,test
576.850175857544,4,1,2,3,0,5,H-,1,2,2,0,1000,250.0,2,C11MS,451,test
926.4791011810303,4,1,2,3,0,5,H-,1,4,0,0,1000,250.0,4,C11MS,452,test
912.9030704498291,4,1,2,3,0,5,H-,1,2,2,0,1000,250.0,2,C11MS,453,test
606.6570281982422,4,1,2,3,0,5,H-,1,0,4,0,1000,250.0,0,C11MS,454,test
990.6418323516846,4,1,2,3,0,5,H-,1,3,3,0,1000,250.0,3,C11MS,455,test
609.1699600219727,4,1,2,3,0,5,H-,1,0,4,0,1000,250.0,0,C11MS,456,test
560.8949661254883,4,1,2,3,0,5,H-,1,0,4,0,1000,250.0,0,C11MS,457,test
736.5689277648926,4,1,2,3,0,5,H-,1,3,3,0,1000,250.0,3,C11MS,458,test
542.5219535827637,4,1,2,3,0,5,H-,1,0,4,0,1000,250.0,0,C11MS,459,test
0.14591217041015625,4,1,2,3,0,5,H-,0,0,4,0,1000,250.0,5,C11MS,460,test
608.9060306549072,4,1,2,3,0,5,H-,1,5,5,0,1000,250.0,5,C11MS,461,test
848.7770557403564,4,1,2,3,0,5,H-,1,3,3,0,1000,250.0,3,C11MS,462,test
752.5949478149414,4,1,2,3,0,5,H-,1,4,0,0,1000,250.0,4,C11MS,463,test
496.91200256347656,4,1,2,3,0,5,H-,1,4,0,0,1000,250.0,4,C11MS,464,test
992.9089546203613,4,1,2,3,0,5,H-,0,1,1,0,1000,250.0,2,C11MS,465,test
1168.9350605010986,4,1,2,3,0,5,H-,1,3,3,0,1000,250.0,3,C11MS,466,test
720.8237648010254,4,1,2,3,0,5,H-,1,1,1,0,1000,250.0,1,C11MS,467,test
640.7368183135986,4,1,2,3,0,5,H-,1,0,4,0,1000,250.0,0,C11MS,468,test
817.0468807220459,4,1,2,3,0,5,H-,1,5,5,0,1000,250.0,5,C11MS,469,test
880.591869354248,4,1,2,3,0,5,H-,1,2,2,0,1000,250.0,2,C11MS,470,test
765.6049728393555,4,1,2,3,0,5,H-,1,3,3,0,1000,250.0,3,C11MS,471,test
912.1310710906982,4,1,2,3,0,5,H-,0,5,5,0,1000,250.0,3,C11MS,472,test
656.8589210510254,4,1,2,3,0,5,H-,1,4,0,0,1000,250.0,4,C11MS,473,test
912.0070934295654,4,1,2,3,0,5,H-,0,5,5,0,1000,250.0,3,C11MS,474,test
1120.4850673675537,4,1,2,3,0,5,H-,1,2,2,0,1000,250.0,2,C11MS,475,test
751.8770694732666,4,1,2,3,0,5,H-,1,3,3,0,1000,250.0,3,C11MS,476,test
752.8889179229736,4,1,2,3,0,5,H-,1,4,0,0,1000,250.0,4,C11MS,477,test
736.9508743286133,4,1,2,3,0,5,H-,0,3,3,0,1000,250.0,1,C11MS,478,test
673.0160713195801,4,1,2,3,0,5,H-,1,0,4,0,1000,250.0,0,C11MS,479,test
1184.6158504486084,4,1,2,3,0,5,H-,1,5,5,0,1000,250.0,5,C11MS,480,test
752.6779174804688,4,1,2,3,0,5,H-,1,2,2,0,1000,250.0,2,C11MS,481,test
913.0628108978271,4,1,2,3,0,5,H-,1,3,3,0,1000,250.0,3,C11MS,482,test
798.1078624725342,4,1,2,3,0,5,H-,1,2,2,0,1000,250.0,2,C11MS,483,test
606.7600250244141,4,1,2,3,0,5,H-,1,0,4,0,1000,250.0,0,C11MS,484,test
783.4439277648926,4,1,2,3,0,5,H-,1,5,5,0,1000,250.0,5,C11MS,485,test
941.2469863891602,4,1,2,3,0,5,H-,0,1,1,0,1000,250.0,2,C11MS,486,test
609.0240478515625,4,1,2,3,0,5,H-,1,0,4,0,1000,250.0,0,C11MS,487,test
927.1011352539062,4,1,2,3,0,5,H-,1,3,3,0,1000,250.0,3,C11MS,488,test
621.6659545898438,4,1,2,3,0,5,H-,1,0,4,0,1000,250.0,0,C11MS,489,test
784.6381664276123,4,1,2,3,0,5,H-,1,4,0,0,1000,250.0,4,C11MS,490,test
896.6150283813477,4,1,2,3,0,5,H-,1,3,3,0,1000,250.0,3,C11MS,491,test
1088.6518955230713,4,1,2,3,0,5,H-,0,1,1,0,1000,250.0,2,C11MS,492,test
864.4120693206787,4,1,2,3,0,5,H-,1,5,5,0,1000,250.0,5,C11MS,493,test
573.3978748321533,4,1,2,3,0,5,H-,1,0,4,0,1000,250.0,0,C11MS,494,test
576.8811702728271,4,1,2,3,0,5,H-,1,0,4,0,1000,250.0,0,C11MS,495,test
336.64703369140625,4,1,2,3,0,5,H-,1,0,4,0,1000,250.0,0,C11MS,496,test
656.8169593811035,4,1,2,3,0,5,H-,1,5,5,0,1000,250.0,5,C11MS,497,test
896.5539932250977,4,1,2,3,0,5,H-,1,2,2,0,1000,250.0,2,C11MS,498,test
592.4310684204102,4,1,2,3,0,5,H-,1,0,4,0,1000,250.0,0,C11MS,499,test
