RT,SRmap_0,SRmap_1,SRmap_2,SRmap_3,SRmap_4,SRmap_5,condition,correct,correct_response,curstim,ms-precue,ms-prestimblank,ntrials,response,subject,trial,type
10383.031129837036,4,3,1,0,5,2,E-,1,3,1,400,600,250.0,3,d28se,0,train
143.47410202026367,4,3,1,0,5,2,E-,1,3,1,400,600,250.0,3,d28se,1,train
287.52899169921875,4,3,1,0,5,2,E-,0,2,5,400,600,250.0,0,d28se,2,train
287.6300811767578,4,3,1,0,5,2,E-,1,5,4,400,600,250.0,5,d28se,3,train
143.0220603942871,4,3,1,0,5,2,E-,1,0,3,400,600,250.0,0,d28se,4,train
239.53509330749512,4,3,1,0,5,2,E-,1,5,4,400,600,250.0,5,d28se,5,train
31.64196014404297,4,3,1,0,5,2,E-,1,0,3,400,600,250.0,0,d28se,6,train
95.6580638885498,4,3,1,0,5,2,E-,1,0,3,400,600,250.0,0,d28se,7,train
143.28479766845703,4,3,1,0,5,2,E-,0,5,4,400,600,250.0,3,d28se,8,train
239.58611488342285,4,3,1,0,5,2,E-,1,2,5,400,600,250.0,2,d28se,9,train
335.51597595214844,4,3,1,0,5,2,E-,1,5,4,400,600,250.0,5,d28se,10,train
399.4262218475342,4,3,1,0,5,2,E-,0,1,2,400,600,250.0,0,d28se,11,train
2143.7060832977295,4,3,1,0,5,2,E-,1,5,4,400,600,250.0,5,d28se,12,train
287.45007514953613,4,3,1,0,5,2,E-,1,0,3,400,600,250.0,0,d28se,13,train
2399.5611667633057,4,3,1,0,5,2,E-,1,3,1,400,600,250.0,3,d28se,14,train
463.4969234466553,4,3,1,0,5,2,E-,1,2,5,400,600,250.0,2,d28se,15,train
783.5679054260254,4,3,1,0,5,2,E-,1,3,1,400,600,250.0,3,d28se,16,train
671.6330051422119,4,3,1,0,5,2,E-,1,0,3,400,600,250.0,0,d28se,17,train
1103.672981262207,4,3,1,0,5,2,E-,1,5,4,400,600,250.0,5,d28se,18,train
1039.3199920654297,4,3,1,0,5,2,E-,0,4,0,400,600,250.0,5,d28se,19,train
527.7860164642334,4,3,1,0,5,2,E-,1,1,2,400,600,250.0,1,d28se,20,train
655.5428504943848,4,3,1,0,5,2,E-,1,4,0,400,600,250.0,4,d28se,21,train
399.9340534210205,4,3,1,0,5,2,E-,1,0,3,400,600,250.0,0,d28se,22,train
591.6659832000732,4,3,1,0,5,2,E-,1,5,4,400,600,250.0,5,d28se,23,train
495.66197395324707,4,3,1,0,5,2,E-,1,5,4,400,600,250.0,5,d28se,24,train
223.48308563232422,4,3,1,0,5,2,E-,1,0,3,400,600,250.0,0,d28se,25,train
367.9070472717285,4,3,1,0,5,2,E-,1,2,5,400,600,250.0,2,d28se,26,train
431.94103240966797,4,3,1,0,5,2,E-,1,4,0,400,600,250.0,4,d28se,27,train
303.8480281829834,4,3,1,0,5,2,E-,1,4,0,400,600,250.0,4,d28se,28,train
415.60983657836914,4,3,1,0,5,2,E-,1,2,5,400,600,250.0,2,d28se,29,train
176.0420799255371,4,3,1,0,5,2,E-,1,1,2,400,600,250.0,1,d28se,30,train
351.92108154296875,4,3,1,0,5,2,E-,1,4,0,400,600,250.0,4,d28se,31,train
223.65188598632812,4,3,1,0,5,2,E-,0,3,1,400,600,250.0,2,d28se,32,train
287.6248359680176,4,3,1,0,5,2,E-,1,2,5,400,600,250.0,2,d28se,33,train
111.62090301513672,4,3,1,0,5,2,E-,1,0,3,400,600,250.0,0,d28se,34,train
143.5379981994629,4,3,1,0,5,2,E-,1,5,4,400,600,250.0,5,d28se,35,train
495.60093879699707,4,3,1,0,5,2,E-,1,3,1,400,600,250.0,3,d28se,36,train
255.64098358154297,4,3,1,0,5,2,E-,1,1,2,400,600,250.0,1,d28se,37,train
351.66001319885254,4,3,1,0,5,2,E-,1,1,2,400,600,250.0,1,d28se,38,train
239.5181655883789,4,3,1,0,5,2,E-,1,5,4,400,600,250.0,5,d28se,39,train
543.6689853668213,4,3,1,0,5,2,E-,1,2,5,400,600,250.0,2,d28se,40,train
111.54007911682129,4,3,1,0,5,2,E-,1,0,3,400,600,250.0,0,d28se,41,train
479.6450138092041,4,3,1,0,5,2,E-,1,5,4,400,600,250.0,5,d28se,42,train
16.119003295898438,4,3,1,0,5,2,E-,1,4,0,400,600,250.0,4,d28se,43,train
192.01302528381348,4,3,1,0,5,2,E-,0,4,0,400,600,250.0,5,d28se,44,train
95.76606750488281,4,3,1,0,5,2,E-,1,5,4,400,600,250.0,5,d28se,45,train
255.6600570678711,4,3,1,0,5,2,E-,0,3,1,400,600,250.0,2,d28se,46,train
143.6769962310791,4,3,1,0,5,2,E-,1,0,3,400,600,250.0,0,d28se,47,train
239.5169734954834,4,3,1,0,5,2,E-,1,2,5,400,600,250.0,2,d28se,48,train
159.5151424407959,4,3,1,0,5,2,E-,1,1,2,400,600,250.0,1,d28se,49,train
159.55686569213867,4,3,1,0,5,2,E-,1,5,4,400,600,250.0,5,d28se,50,train
287.61911392211914,4,3,1,0,5,2,E-,1,5,4,400,600,250.0,5,d28se,51,train
111.65809631347656,4,3,1,0,5,2,E-,1,5,4,400,600,250.0,5,d28se,52,train
95.55387496948242,4,3,1,0,5,2,E-,1,5,4,400,600,250.0,5,d28se,53,train
63.62104415893555,4,3,1,0,5,2,E-,1,0,3,400,600,250.0,0,d28se,54,train
79.54812049865723,4,3,1,0,5,2,E-,1,1,2,400,600,250.0,1,d28se,55,train
191.5569305419922,4,3,1,0,5,2,E-,1,5,4,400,600,250.0,5,d28se,56,train
431.5629005432129,4,3,1,0,5,2,E-,1,4,0,400,600,250.0,4,d28se,57,train
303.6630153656006,4,3,1,0,5,2,E-,1,1,2,400,600,250.0,1,d28se,58,train
367.4449920654297,4,3,1,0,5,2,E-,1,3,1,400,600,250.0,3,d28se,59,train
127.3808479309082,4,3,1,0,5,2,E-,1,0,3,400,600,250.0,0,d28se,60,train
1007.5221061706543,4,3,1,0,5,2,E-,1,1,2,400,600,250.0,1,d28se,61,train
31.75210952758789,4,3,1,0,5,2,E-,1,2,5,400,600,250.0,2,d28se,62,train
79.84209060668945,4,3,1,0,5,2,E-,1,0,3,400,600,250.0,0,d28se,63,train
527.5790691375732,4,3,1,0,5,2,E-,1,4,0,400,600,250.0,4,d28se,64,train
0.06604194641113281,4,3,1,0,5,2,E-,1,4,0,400,600,250.0,4,d28se,65,train
287.80317306518555,4,3,1,0,5,2,E-,1,2,5,400,600,250.0,2,d28se,66,train
208.10914039611816,4,3,1,0,5,2,E-,1,3,1,400,600,250.0,3,d28se,67,train
41.20492935180664,4,3,1,0,5,2,E-,1,0,3,400,600,250.0,0,d28se,68,train
127.58398056030273,4,3,1,0,5,2,E-,1,3,1,400,600,250.0,3,d28se,69,train
543.5700416564941,4,3,1,0,5,2,E-,1,3,1,400,600,250.0,3,d28se,70,train
463.6838436126709,4,3,1,0,5,2,E-,1,5,4,400,600,250.0,5,d28se,71,train
415.53592681884766,4,3,1,0,5,2,E-,1,1,2,400,600,250.0,1,d28se,72,train
0.052928924560546875,4,3,1,0,5,2,E-,1,0,3,400,600,250.0,0,d28se,73,train
47.608137130737305,4,3,1,0,5,2,E-,1,0,3,400,600,250.0,0,d28se,74,train
79.65493202209473,4,3,1,0,5,2,E-,1,0,3,400,600,250.0,0,d28se,75,train
79.56600189208984,4,3,1,0,5,2,E-,1,1,2,400,600,250.0,1,d28se,76,train
1343.6059951782227,4,3,1,0,5,2,E-,1,0,3,400,600,250.0,0,d28se,77,train
63.63201141357422,4,3,1,0,5,2,E-,1,2,5,400,600,250.0,2,d28se,78,train
207.48519897460938,4,3,1,0,5,2,E-,1,4,0,400,600,250.0,4,d28se,79,train
175.54020881652832,4,3,1,0,5,2,E-,1,1,2,400,600,250.0,1,d28se,80,train
31.640052795410156,4,3,1,0,5,2,E-,1,0,3,400,600,250.0,0,d28se,81,train
159.48987007141113,4,3,1,0,5,2,E-,1,1,2,400,600,250.0,1,d28se,82,train
191.54906272888184,4,3,1,0,5,2,E-,1,4,0,400,600,250.0,4,d28se,83,train
31.608104705810547,4,3,1,0,5,2,E-,1,4,0,400,600,250.0,4,d28se,84,train
223.5729694366455,4,3,1,0,5,2,E-,1,2,5,400,600,250.0,2,d28se,85,train
111.49191856384277,4,3,1,0,5,2,E-,1,5,4,400,600,250.0,5,d28se,86,train
31.567811965942383,4,3,1,0,5,2,E-,1,5,4,400,600,250.0,5,d28se,87,train
191.4839744567871,4,3,1,0,5,2,E-,1,1,2,400,600,250.0,1,d28se,88,train
191.6208267211914,4,3,1,0,5,2,E-,1,0,3,400,600,250.0,0,d28se,89,train
303.64489555358887,4,3,1,0,5,2,E-,1,3,1,400,600,250.0,3,d28se,90,train
735.4941368103027,4,3,1,0,5,2,E-,1,1,2,400,600,250.0,1,d28se,91,train
79.05983924865723,4,3,1,0,5,2,E-,1,2,5,400,600,250.0,2,d28se,92,train
47.724008560180664,4,3,1,0,5,2,E-,1,5,4,400,600,250.0,5,d28se,93,train
319.6849822998047,4,3,1,0,5,2,E-,0,3,1,400,600,250.0,2,d28se,94,train
127.61116027832031,4,3,1,0,5,2,E-,1,3,1,400,600,250.0,3,d28se,95,train
47.6078987121582,4,3,1,0,5,2,E-,1,3,1,400,600,250.0,3,d28se,96,train
111.56702041625977,4,3,1,0,5,2,E-,1,1,2,400,600,250.0,1,d28se,97,train
351.4719009399414,4,3,1,0,5,2,E-,1,4,0,400,600,250.0,4,d28se,98,train
95.50094604492188,4,3,1,0,5,2,E-,1,2,5,400,600,250.0,2,d28se,99,train
79.53906059265137,4,3,1,0,5,2,E-,1,2,5,400,600,250.0,2,d28se,100,train
79.75983619689941,4,3,1,0,5,2,E-,1,3,1,400,600,250.0,3,d28se,101,train
63.36212158203125,4,3,1,0,5,2,E-,1,5,4,400,600,250.0,5,d28se,102,train
127.5320053100586,4,3,1,0,5,2,E-,1,2,5,400,600,250.0,2,d28se,103,train
0.05507469177246094,4,3,1,0,5,2,E-,1,0,3,400,600,250.0,0,d28se,104,train
239.50600624084473,4,3,1,0,5,2,E-,1,3,1,400,600,250.0,3,d28se,105,train
335.47496795654297,4,3,1,0,5,2,E-,1,4,0,400,600,250.0,4,d28se,106,train
63.68398666381836,4,3,1,0,5,2,E-,1,0,3,400,600,250.0,0,d28se,107,train
351.6261577606201,4,3,1,0,5,2,E-,1,2,5,400,600,250.0,2,d28se,108,train
0.051975250244140625,4,3,1,0,5,2,E-,1,2,5,400,600,250.0,2,d28se,109,train
95.5040454864502,4,3,1,0,5,2,E-,1,5,4,400,600,250.0,5,d28se,110,train
47.56593704223633,4,3,1,0,5,2,E-,1,1,2,400,600,250.0,1,d28se,111,train
143.49102973937988,4,3,1,0,5,2,E-,1,3,1,400,600,250.0,3,d28se,112,train
175.57883262634277,4,3,1,0,5,2,E-,1,2,5,400,600,250.0,2,d28se,113,train
47.66511917114258,4,3,1,0,5,2,E-,1,1,2,400,600,250.0,1,d28se,114,train
95.63612937927246,4,3,1,0,5,2,E-,1,5,4,400,600,250.0,5,d28se,115,train
15.571832656860352,4,3,1,0,5,2,E-,1,1,2,400,600,250.0,1,d28se,116,train
143.64981651306152,4,3,1,0,5,2,E-,1,5,4,400,600,250.0,5,d28se,117,train
47.653913497924805,4,3,1,0,5,2,E-,0,2,5,400,600,250.0,1,d28se,118,train
223.6020565032959,4,3,1,0,5,2,E-,1,3,1,400,600,250.0,3,d28se,119,train
271.5878486633301,4,3,1,0,5,2,E-,1,3,1,400,600,250.0,3,d28se,120,train
95.68405151367188,4,3,1,0,5,2,E-,1,5,4,400,600,250.0,5,d28se,121,train
15.62809944152832,4,3,1,0,5,2,E-,1,0,3,400,600,250.0,0,d28se,122,train
127.57611274719238,4,3,1,0,5,2,E-,1,2,5,400,600,250.0,2,d28se,123,train
719.6710109710693,4,3,1,0,5,2,E-,1,5,4,400,600,250.0,5,d28se,124,train
239.72296714782715,4,3,1,0,5,2,E-,1,3,1,400,600,250.0,3,d28se,125,train
223.49095344543457,4,3,1,0,5,2,E-,1,4,0,400,600,250.0,4,d28se,126,train
111.5880012512207,4,3,1,0,5,2,E-,1,5,4,400,600,250.0,5,d28se,127,train
255.53297996520996,4,3,1,0,5,2,E-,1,3,1,400,600,250.0,3,d28se,128,train
63.5991096496582,4,3,1,0,5,2,E-,1,0,3,400,600,250.0,0,d28se,129,train
143.5689926147461,4,3,1,0,5,2,E-,1,3,1,400,600,250.0,3,d28se,130,train
143.5680389404297,4,3,1,0,5,2,E-,1,3,1,400,600,250.0,3,d28se,131,train
159.60288047790527,4,3,1,0,5,2,E-,1,5,4,400,600,250.0,5,d28se,132,train
271.5768814086914,4,3,1,0,5,2,E-,1,4,0,400,600,250.0,4,d28se,133,train
143.5070037841797,4,3,1,0,5,2,E-,1,0,3,400,600,250.0,0,d28se,134,train
127.6237964630127,4,3,1,0,5,2,E-,0,2,5,400,600,250.0,3,d28se,135,train
191.62487983703613,4,3,1,0,5,2,E-,1,5,4,400,600,250.0,5,d28se,136,train
159.54208374023438,4,3,1,0,5,2,E-,1,2,5,400,600,250.0,2,d28se,137,train
255.5520534515381,4,3,1,0,5,2,E-,1,4,0,400,600,250.0,4,d28se,138,train
527.5528430938721,4,3,1,0,5,2,E-,1,3,1,400,600,250.0,3,d28se,139,train
159.62910652160645,4,3,1,0,5,2,E-,1,5,4,400,600,250.0,5,d28se,140,train
255.71489334106445,4,3,1,0,5,2,E-,1,2,5,400,600,250.0,2,d28se,141,train
95.58796882629395,4,3,1,0,5,2,E-,1,2,5,400,600,250.0,2,d28se,142,train
79.70809936523438,4,3,1,0,5,2,E-,1,5,4,400,600,250.0,5,d28se,143,train
95.51501274108887,4,3,1,0,5,2,E-,1,2,5,400,600,250.0,2,d28se,144,train
191.56694412231445,4,3,1,0,5,2,E-,1,4,0,400,600,250.0,4,d28se,145,train
63.645124435424805,4,3,1,0,5,2,E-,1,5,4,400,600,250.0,5,d28se,146,train
31.558990478515625,4,3,1,0,5,2,E-,1,2,5,400,600,250.0,2,d28se,147,train
47.71590232849121,4,3,1,0,5,2,E-,1,1,2,400,600,250.0,1,d28se,148,train
543.6899662017822,4,3,1,0,5,2,E-,1,2,5,400,600,250.0,2,d28se,149,train
15.746116638183594,4,3,1,0,5,2,E-,1,1,2,400,600,250.0,1,d28se,150,train
191.5750503540039,4,3,1,0,5,2,E-,1,4,0,400,600,250.0,4,d28se,151,train
63.320159912109375,4,3,1,0,5,2,E-,1,1,2,400,600,250.0,1,d28se,152,train
15.702009201049805,4,3,1,0,5,2,E-,1,0,3,400,600,250.0,0,d28se,153,train
15.619039535522461,4,3,1,0,5,2,E-,0,3,1,400,600,250.0,1,d28se,154,train
47.67489433288574,4,3,1,0,5,2,E-,1,1,2,400,600,250.0,1,d28se,155,train
47.532081604003906,4,3,1,0,5,2,E-,1,1,2,400,600,250.0,1,d28se,156,train
63.67802619934082,4,3,1,0,5,2,E-,1,5,4,400,600,250.0,5,d28se,157,train
63.42005729675293,4,3,1,0,5,2,E-,1,5,4,400,600,250.0,5,d28se,158,train
191.56789779663086,4,3,1,0,5,2,E-,1,3,1,400,600,250.0,3,d28se,159,train
159.4829559326172,4,3,1,0,5,2,E-,1,3,1,400,600,250.0,3,d28se,160,train
95.68405151367188,4,3,1,0,5,2,E-,1,2,5,400,600,250.0,2,d28se,161,train
47.544002532958984,4,3,1,0,5,2,E-,1,0,3,400,600,250.0,0,d28se,162,train
63.55094909667969,4,3,1,0,5,2,E-,1,3,1,400,600,250.0,3,d28se,163,train
63.623905181884766,4,3,1,0,5,2,E-,1,1,2,400,600,250.0,1,d28se,164,train
191.4529800415039,4,3,1,0,5,2,E-,1,2,5,400,600,250.0,2,d28se,165,train
31.71992301940918,4,3,1,0,5,2,E-,1,5,4,400,600,250.0,5,d28se,166,train
239.53485488891602,4,3,1,0,5,2,E-,1,3,1,400,600,250.0,3,d28se,167,train
335.58082580566406,4,3,1,0,5,2,E-,1,4,0,400,600,250.0,4,d28se,168,train
63.56692314147949,4,3,1,0,5,2,E-,1,5,4,400,600,250.0,5,d28se,169,train
415.53401947021484,4,3,1,0,5,2,E-,1,3,1,400,600,250.0,3,d28se,170,train
111.5870475769043,4,3,1,0,5,2,E-,1,2,5,400,600,250.0,2,d28se,171,train
95.55196762084961,4,3,1,0,5,2,E-,1,2,5,400,600,250.0,2,d28se,172,train
335.5240821838379,4,3,1,0,5,2,E-,1,2,5,400,600,250.0,2,d28se,173,train
127.6850700378418,4,3,1,0,5,2,E-,1,5,4,400,600,250.0,5,d28se,174,train
63.546180725097656,4,3,1,0,5,2,E-,1,4,0,400,600,250.0,4,d28se,175,train
95.66712379455566,4,3,1,0,5,2,E-,1,0,3,400,600,250.0,0,d28se,176,train
79.19907569885254,4,3,1,0,5,2,E-,1,0,3,400,600,250.0,0,d28se,177,train
63.70711326599121,4,3,1,0,5,2,E-,1,5,4,400,600,250.0,5,d28se,178,train
383.56494903564453,4,3,1,0,5,2,E-,1,4,0,400,600,250.0,4,d28se,179,train
255.64908981323242,4,3,1,0,5,2,E-,1,3,1,400,600,250.0,3,d28se,180,train
0.05412101745605469,4,3,1,0,5,2,E-,1,3,1,400,600,250.0,3,d28se,181,train
47.64509201049805,4,3,1,0,5,2,E-,1,5,4,400,600,250.0,5,d28se,182,train
143.7389850616455,4,3,1,0,5,2,E-,1,2,5,400,600,250.0,2,d28se,183,train
111.8619441986084,4,3,1,0,5,2,E-,0,4,0,400,600,250.0,3,d28se,184,train
303.6332130432129,4,3,1,0,5,2,E-,1,3,1,400,600,250.0,3,d28se,185,train
47.724008560180664,4,3,1,0,5,2,E-,1,0,3,400,600,250.0,0,d28se,186,train
191.5881633758545,4,3,1,0,5,2,E-,1,3,1,400,600,250.0,3,d28se,187,train
47.55902290344238,4,3,1,0,5,2,E-,1,0,3,400,600,250.0,0,d28se,188,train
399.50013160705566,4,3,1,0,5,2,E-,1,2,5,400,600,250.0,2,d28se,189,train
79.7719955444336,4,3,1,0,5,2,E-,1,5,4,400,600,250.0,5,d28se,190,train
79.56981658935547,4,3,1,0,5,2,E-,1,1,2,400,600,250.0,1,d28se,191,train
111.74297332763672,4,3,1,0,5,2,E-,1,3,1,400,600,250.0,3,d28se,192,train
79.70118522644043,4,3,1,0,5,2,E-,1,5,4,400,600,250.0,5,d28se,193,train
15.559911727905273,4,3,1,0,5,2,E-,0,4,0,400,600,250.0,2,d28se,194,train
31.666040420532227,4,3,1,0,5,2,E-,1,5,4,400,600,250.0,5,d28se,195,train
431.49805068969727,4,3,1,0,5,2,E-,1,2,5,400,600,250.0,2,d28se,196,train
47.64509201049805,4,3,1,0,5,2,E-,1,3,1,400,600,250.0,3,d28se,197,train
63.57598304748535,4,3,1,0,5,2,E-,1,0,3,400,600,250.0,0,d28se,198,train
223.5431671142578,4,3,1,0,5,2,E-,1,2,5,400,600,250.0,2,d28se,199,train
143.75019073486328,4,3,1,0,5,2,E-,1,0,3,400,600,250.0,0,d28se,200,train
15.583992004394531,4,3,1,0,5,2,E-,1,0,3,400,600,250.0,0,d28se,201,train
1391.3509845733643,4,3,1,0,5,2,E-,1,1,2,400,600,250.0,1,d28se,202,train
319.6549415588379,4,3,1,0,5,2,E-,1,3,1,400,600,250.0,3,d28se,203,train
431.549072265625,4,3,1,0,5,2,E-,1,1,2,400,600,250.0,1,d28se,204,train
143.43595504760742,4,3,1,0,5,2,E-,0,2,5,400,600,250.0,3,d28se,205,train
15.52891731262207,4,3,1,0,5,2,E-,1,0,3,400,600,250.0,0,d28se,206,train
175.60815811157227,4,3,1,0,5,2,E-,1,2,5,400,600,250.0,2,d28se,207,train
79.5888900756836,4,3,1,0,5,2,E-,1,0,3,400,600,250.0,0,d28se,208,train
127.53891944885254,4,3,1,0,5,2,E-,1,5,4,400,600,250.0,5,d28se,209,train
143.53585243225098,4,3,1,0,5,2,E-,1,2,5,400,600,250.0,2,d28se,210,train
111.58084869384766,4,3,1,0,5,2,E-,1,0,3,400,600,250.0,0,d28se,211,train
255.50603866577148,4,3,1,0,5,2,E-,1,3,1,400,600,250.0,3,d28se,212,train
79.59198951721191,4,3,1,0,5,2,E-,1,1,2,400,600,250.0,1,d28se,213,train
143.6300277709961,4,3,1,0,5,2,E-,1,2,5,400,600,250.0,2,d28se,214,train
223.5279083251953,4,3,1,0,5,2,E-,1,5,4,400,600,250.0,5,d28se,215,train
591.2778377532959,4,3,1,0,5,2,E-,1,4,0,400,600,250.0,4,d28se,216,train
207.48496055603027,4,3,1,0,5,2,E-,1,0,3,400,600,250.0,0,d28se,217,train
334.8231315612793,4,3,1,0,5,2,E-,1,1,2,400,600,250.0,1,d28se,218,train
271.61097526550293,4,3,1,0,5,2,E-,1,0,3,400,600,250.0,0,d28se,219,train
558.6390495300293,4,3,1,0,5,2,E-,1,1,2,400,600,250.0,1,d28se,220,train
255.54203987121582,4,3,1,0,5,2,E-,1,2,5,400,600,250.0,2,d28se,221,train
1231.5990924835205,4,3,1,0,5,2,E-,1,0,3,400,600,250.0,0,d28se,222,train
687.5429153442383,4,3,1,0,5,2,E-,1,1,2,400,600,250.0,1,d28se,223,train
79.61702346801758,4,3,1,0,5,2,E-,1,0,3,400,600,250.0,0,d28se,224,train
287.68396377563477,4,3,1,0,5,2,E-,1,5,4,400,600,250.0,5,d28se,225,train
143.56589317321777,4,3,1,0,5,2,E-,1,4,0,400,600,250.0,4,d28se,226,train
255.45907020568848,4,3,1,0,5,2,E-,1,0,3,400,600,250.0,0,d28se,227,train
303.67016792297363,4,3,1,0,5,2,E-,1,0,3,400,600,250.0,0,d28se,228,train
335.60991287231445,4,3,1,0,5,2,E-,1,4,0,400,600,250.0,4,d28se,229,train
223.54507446289062,4,3,1,0,5,2,E-,1,4,0,400,600,250.0,4,d28se,230,train
95.55602073669434,4,3,1,0,5,2,E-,1,4,0,400,600,250.0,4,d28se,231,train
335.3080749511719,4,3,1,0,5,2,E-,1,2,5,400,600,250.0,2,d28se,232,train
255.54609298706055,4,3,1,0,5,2,E-,1,2,5,400,600,250.0,2,d28se,233,train
47.5311279296875,4,3,1,0,5,2,E-,1,4,0,400,600,250.0,4,d28se,234,train
95.65114974975586,4,3,1,0,5,2,E-,1,5,4,400,600,250.0,5,d28se,235,train
47.204017639160156,4,3,1,0,5,2,E-,1,4,0,400,600,250.0,4,d28se,236,train
159.5921516418457,4,3,1,0,5,2,E-,1,5,4,400,600,250.0,5,d28se,237,train
95.59297561645508,4,3,1,0,5,2,E-,1,5,4,400,600,250.0,5,d28se,238,train
271.55399322509766,4,3,1,0,5,2,E-,1,5,4,400,600,250.0,5,d28se,239,train
366.8649196624756,4,3,1,0,5,2,E-,1,2,5,400,600,250.0,2,d28se,240,train
223.54507446289062,4,3,1,0,5,2,E-,1,2,5,400,600,250.0,2,d28se,241,train
527.7259349822998,4,3,1,0,5,2,E-,1,3,1,400,600,250.0,3,d28se,242,train
79.75983619689941,4,3,1,0,5,2,E-,1,3,1,400,600,250.0,3,d28se,243,train
271.30603790283203,4,3,1,0,5,2,E-,1,5,4,400,600,250.0,5,d28se,244,train
143.7230110168457,4,3,1,0,5,2,E-,1,3,1,400,600,250.0,3,d28se,245,train
175.3988265991211,4,3,1,0,5,2,E-,1,5,4,400,600,250.0,5,d28se,246,train
399.6250629425049,4,3,1,0,5,2,E-,1,4,0,400,600,250.0,4,d28se,247,train
239.46690559387207,4,3,1,0,5,2,E-,1,5,4,400,600,250.0,5,d28se,248,train
223.54888916015625,4,3,1,0,5,2,E-,1,0,3,400,600,250.0,0,d28se,249,train
2384.7479820251465,5,3,2,0,4,1,E-,1,5,0,0,1000,250.0,5,d28se,250,test
464.9970531463623,5,3,2,0,4,1,E-,1,5,0,0,1000,250.0,5,d28se,251,test
400.94804763793945,5,3,2,0,4,1,E-,0,1,5,0,1000,250.0,0,d28se,252,test
672.8808879852295,5,3,2,0,4,1,E-,0,2,2,0,1000,250.0,1,d28se,253,test
1104.875087738037,5,3,2,0,4,1,E-,1,2,2,0,1000,250.0,2,d28se,254,test
992.8030967712402,5,3,2,0,4,1,E-,1,4,4,0,1000,250.0,4,d28se,255,test
1088.9790058135986,5,3,2,0,4,1,E-,1,1,5,0,1000,250.0,1,d28se,256,test
576.765775680542,5,3,2,0,4,1,E-,1,1,5,0,1000,250.0,1,d28se,257,test
1472.675085067749,5,3,2,0,4,1,E-,1,4,4,0,1000,250.0,4,d28se,258,test
656.8620204925537,5,3,2,0,4,1,E-,1,4,4,0,1000,250.0,4,d28se,259,test
592.7488803863525,5,3,2,0,4,1,E-,1,1,5,0,1000,250.0,1,d28se,260,test
656.9809913635254,5,3,2,0,4,1,E-,0,3,1,0,1000,250.0,2,d28se,261,test
752.9430389404297,5,3,2,0,4,1,E-,1,2,2,0,1000,250.0,2,d28se,262,test
1376.9171237945557,5,3,2,0,4,1,E-,0,2,2,0,1000,250.0,3,d28se,263,test
640.9790515899658,5,3,2,0,4,1,E-,1,2,2,0,1000,250.0,2,d28se,264,test
1216.7420387268066,5,3,2,0,4,1,E-,1,0,3,0,1000,250.0,0,d28se,265,test
816.8609142303467,5,3,2,0,4,1,E-,1,3,1,0,1000,250.0,3,d28se,266,test
592.9558277130127,5,3,2,0,4,1,E-,0,4,4,0,1000,250.0,5,d28se,267,test
928.9309978485107,5,3,2,0,4,1,E-,1,3,1,0,1000,250.0,3,d28se,268,test
1568.76802444458,5,3,2,0,4,1,E-,1,5,0,0,1000,250.0,5,d28se,269,test
976.8249988555908,5,3,2,0,4,1,E-,0,5,0,0,1000,250.0,0,d28se,270,test
560.8720779418945,5,3,2,0,4,1,E-,1,4,4,0,1000,250.0,4,d28se,271,test
737.0240688323975,5,3,2,0,4,1,E-,1,0,3,0,1000,250.0,0,d28se,272,test
704.8637866973877,5,3,2,0,4,1,E-,1,3,1,0,1000,250.0,3,d28se,273,test
816.8199062347412,5,3,2,0,4,1,E-,1,2,2,0,1000,250.0,2,d28se,274,test
656.7330360412598,5,3,2,0,4,1,E-,1,2,2,0,1000,250.0,2,d28se,275,test
688.6320114135742,5,3,2,0,4,1,E-,1,4,4,0,1000,250.0,4,d28se,276,test
720.7870483398438,5,3,2,0,4,1,E-,1,4,4,0,1000,250.0,4,d28se,277,test
736.9189262390137,5,3,2,0,4,1,E-,1,2,2,0,1000,250.0,2,d28se,278,test
640.9339904785156,5,3,2,0,4,1,E-,1,0,3,0,1000,250.0,0,d28se,279,test
1056.9441318511963,5,3,2,0,4,1,E-,1,3,1,0,1000,250.0,3,d28se,280,test
928.5800457000732,5,3,2,0,4,1,E-,1,3,1,0,1000,250.0,3,d28se,281,test
944.847822189331,5,3,2,0,4,1,E-,1,1,5,0,1000,250.0,1,d28se,282,test
1136.8191242218018,5,3,2,0,4,1,E-,1,5,0,0,1000,250.0,5,d28se,283,test
1072.9148387908936,5,3,2,0,4,1,E-,1,3,1,0,1000,250.0,3,d28se,284,test
800.8110523223877,5,3,2,0,4,1,E-,0,1,5,0,1000,250.0,0,d28se,285,test
896.9500064849854,5,3,2,0,4,1,E-,1,4,4,0,1000,250.0,4,d28se,286,test
1248.8229274749756,5,3,2,0,4,1,E-,1,2,2,0,1000,250.0,2,d28se,287,test
1312.777042388916,5,3,2,0,4,1,E-,1,5,0,0,1000,250.0,5,d28se,288,test
704.840898513794,5,3,2,0,4,1,E-,0,1,5,0,1000,250.0,0,d28se,289,test
1008.8920593261719,5,3,2,0,4,1,E-,1,5,0,0,1000,250.0,5,d28se,290,test
672.8949546813965,5,3,2,0,4,1,E-,1,3,1,0,1000,250.0,3,d28se,291,test
1088.9770984649658,5,3,2,0,4,1,E-,1,2,2,0,1000,250.0,2,d28se,292,test
784.7471237182617,5,3,2,0,4,1,E-,1,3,1,0,1000,250.0,3,d28se,293,test
864.8719787597656,5,3,2,0,4,1,E-,0,4,4,0,1000,250.0,5,d28se,294,test
1089.0600681304932,5,3,2,0,4,1,E-,1,3,1,0,1000,250.0,3,d28se,295,test
1072.8662014007568,5,3,2,0,4,1,E-,1,0,3,0,1000,250.0,0,d28se,296,test
960.7951641082764,5,3,2,0,4,1,E-,1,5,0,0,1000,250.0,5,d28se,297,test
1024.9390602111816,5,3,2,0,4,1,E-,1,4,4,0,1000,250.0,4,d28se,298,test
704.9450874328613,5,3,2,0,4,1,E-,1,3,1,0,1000,250.0,3,d28se,299,test
640.9080028533936,5,3,2,0,4,1,E-,1,0,3,0,1000,250.0,0,d28se,300,test
608.8409423828125,5,3,2,0,4,1,E-,1,3,1,0,1000,250.0,3,d28se,301,test
752.8128623962402,5,3,2,0,4,1,E-,1,2,2,0,1000,250.0,2,d28se,302,test
512.9489898681641,5,3,2,0,4,1,E-,1,2,2,0,1000,250.0,2,d28se,303,test
560.8761310577393,5,3,2,0,4,1,E-,0,1,5,0,1000,250.0,0,d28se,304,test
560.8618259429932,5,3,2,0,4,1,E-,0,2,2,0,1000,250.0,3,d28se,305,test
592.9138660430908,5,3,2,0,4,1,E-,1,1,5,0,1000,250.0,1,d28se,306,test
1024.8568058013916,5,3,2,0,4,1,E-,1,5,0,0,1000,250.0,5,d28se,307,test
592.7798748016357,5,3,2,0,4,1,E-,1,3,1,0,1000,250.0,3,d28se,308,test
1024.9059200286865,5,3,2,0,4,1,E-,1,3,1,0,1000,250.0,3,d28se,309,test
592.785120010376,5,3,2,0,4,1,E-,1,0,3,0,1000,250.0,0,d28se,310,test
784.8560810089111,5,3,2,0,4,1,E-,1,2,2,0,1000,250.0,2,d28se,311,test
1456.7768573760986,5,3,2,0,4,1,E-,1,4,4,0,1000,250.0,4,d28se,312,test
960.8471393585205,5,3,2,0,4,1,E-,1,4,4,0,1000,250.0,4,d28se,313,test
720.8878993988037,5,3,2,0,4,1,E-,1,4,4,0,1000,250.0,4,d28se,314,test
816.7879581451416,5,3,2,0,4,1,E-,1,4,4,0,1000,250.0,4,d28se,315,test
1312.8018379211426,5,3,2,0,4,1,E-,1,5,0,0,1000,250.0,5,d28se,316,test
688.8220310211182,5,3,2,0,4,1,E-,1,0,3,0,1000,250.0,0,d28se,317,test
752.7689933776855,5,3,2,0,4,1,E-,1,2,2,0,1000,250.0,2,d28se,318,test
720.8139896392822,5,3,2,0,4,1,E-,1,1,5,0,1000,250.0,1,d28se,319,test
704.7719955444336,5,3,2,0,4,1,E-,1,2,2,0,1000,250.0,2,d28se,320,test
672.7409362792969,5,3,2,0,4,1,E-,1,0,3,0,1000,250.0,0,d28se,321,test
1201.0540962219238,5,3,2,0,4,1,E-,1,0,3,0,1000,250.0,0,d28se,322,test
960.9599113464355,5,3,2,0,4,1,E-,1,0,3,0,1000,250.0,0,d28se,323,test
816.8511390686035,5,3,2,0,4,1,E-,1,0,3,0,1000,250.0,0,d28se,324,test
1040.9200191497803,5,3,2,0,4,1,E-,1,2,2,0,1000,250.0,2,d28se,325,test
1072.7880001068115,5,3,2,0,4,1,E-,1,3,1,0,1000,250.0,3,d28se,326,test
928.8840293884277,5,3,2,0,4,1,E-,1,4,4,0,1000,250.0,4,d28se,327,test
768.8329219818115,5,3,2,0,4,1,E-,1,5,0,0,1000,250.0,5,d28se,328,test
2208.729028701782,5,3,2,0,4,1,E-,1,0,3,0,1000,250.0,0,d28se,329,test
609.0199947357178,5,3,2,0,4,1,E-,1,3,1,0,1000,250.0,3,d28se,330,test
864.7639751434326,5,3,2,0,4,1,E-,1,1,5,0,1000,250.0,1,d28se,331,test
928.9810657501221,5,3,2,0,4,1,E-,1,4,4,0,1000,250.0,4,d28se,332,test
768.9480781555176,5,3,2,0,4,1,E-,1,3,1,0,1000,250.0,3,d28se,333,test
800.9848594665527,5,3,2,0,4,1,E-,1,2,2,0,1000,250.0,2,d28se,334,test
1008.8610649108887,5,3,2,0,4,1,E-,1,4,4,0,1000,250.0,4,d28se,335,test
656.9089889526367,5,3,2,0,4,1,E-,1,3,1,0,1000,250.0,3,d28se,336,test
816.7891502380371,5,3,2,0,4,1,E-,1,2,2,0,1000,250.0,2,d28se,337,test
1328.874111175537,5,3,2,0,4,1,E-,1,4,4,0,1000,250.0,4,d28se,338,test
1008.8300704956055,5,3,2,0,4,1,E-,0,5,0,0,1000,250.0,1,d28se,339,test
672.8420257568359,5,3,2,0,4,1,E-,1,2,2,0,1000,250.0,2,d28se,340,test
1424.8521327972412,5,3,2,0,4,1,E-,1,1,5,0,1000,250.0,1,d28se,341,test
576.9350528717041,5,3,2,0,4,1,E-,1,0,3,0,1000,250.0,0,d28se,342,test
576.6351222991943,5,3,2,0,4,1,E-,1,2,2,0,1000,250.0,2,d28se,343,test
608.7379455566406,5,3,2,0,4,1,E-,1,0,3,0,1000,250.0,0,d28se,344,test
609.0519428253174,5,3,2,0,4,1,E-,1,5,0,0,1000,250.0,5,d28se,345,test
720.9508419036865,5,3,2,0,4,1,E-,1,4,4,0,1000,250.0,4,d28se,346,test
609.011173248291,5,3,2,0,4,1,E-,1,3,1,0,1000,250.0,3,d28se,347,test
592.8099155426025,5,3,2,0,4,1,E-,0,4,4,0,1000,250.0,5,d28se,348,test
673.0060577392578,5,3,2,0,4,1,E-,1,5,0,0,1000,250.0,5,d28se,349,test
848.8821983337402,5,3,2,0,4,1,E-,1,4,4,0,1000,250.0,4,d28se,350,test
880.9289932250977,5,3,2,0,4,1,E-,1,0,3,0,1000,250.0,0,d28se,351,test
640.4910087585449,5,3,2,0,4,1,E-,1,1,5,0,1000,250.0,1,d28se,352,test
688.9021396636963,5,3,2,0,4,1,E-,1,3,1,0,1000,250.0,3,d28se,353,test
720.9057807922363,5,3,2,0,4,1,E-,1,1,5,0,1000,250.0,1,d28se,354,test
1152.9819965362549,5,3,2,0,4,1,E-,1,5,0,0,1000,250.0,5,d28se,355,test
1392.8320407867432,5,3,2,0,4,1,E-,1,4,4,0,1000,250.0,4,d28se,356,test
784.843921661377,5,3,2,0,4,1,E-,1,2,2,0,1000,250.0,2,d28se,357,test
784.9240303039551,5,3,2,0,4,1,E-,1,4,4,0,1000,250.0,4,d28se,358,test
2944.68092918396,5,3,2,0,4,1,E-,1,2,2,0,1000,250.0,2,d28se,359,test
1296.792984008789,5,3,2,0,4,1,E-,1,1,5,0,1000,250.0,1,d28se,360,test
1009.0739727020264,5,3,2,0,4,1,E-,1,3,1,0,1000,250.0,3,d28se,361,test
784.9109172821045,5,3,2,0,4,1,E-,1,0,3,0,1000,250.0,0,d28se,362,test
800.7569313049316,5,3,2,0,4,1,E-,1,5,0,0,1000,250.0,5,d28se,363,test
816.9558048248291,5,3,2,0,4,1,E-,1,4,4,0,1000,250.0,4,d28se,364,test
784.661054611206,5,3,2,0,4,1,E-,1,1,5,0,1000,250.0,1,d28se,365,test
1393.0089473724365,5,3,2,0,4,1,E-,1,5,0,0,1000,250.0,5,d28se,366,test
880.932092666626,5,3,2,0,4,1,E-,1,4,4,0,1000,250.0,4,d28se,367,test
752.5229454040527,5,3,2,0,4,1,E-,1,3,1,0,1000,250.0,3,d28se,368,test
704.8661708831787,5,3,2,0,4,1,E-,1,3,1,0,1000,250.0,3,d28se,369,test
1472.8219509124756,5,3,2,0,4,1,E-,0,4,4,0,1000,250.0,5,d28se,370,test
993.088960647583,5,3,2,0,4,1,E-,1,3,1,0,1000,250.0,3,d28se,371,test
1089.5600318908691,5,3,2,0,4,1,E-,1,1,5,0,1000,250.0,1,d28se,372,test
1200.6587982177734,5,3,2,0,4,1,E-,1,1,5,0,1000,250.0,1,d28se,373,test
1136.8701457977295,5,3,2,0,4,1,E-,1,2,2,0,1000,250.0,2,d28se,374,test
880.795955657959,5,3,2,0,4,1,E-,1,2,2,0,1000,250.0,2,d28se,375,test
672.8391647338867,5,3,2,0,4,1,E-,0,5,0,0,1000,250.0,1,d28se,376,test
1072.9739665985107,5,3,2,0,4,1,E-,1,4,4,0,1000,250.0,4,d28se,377,test
576.8101215362549,5,3,2,0,4,1,E-,1,1,5,0,1000,250.0,1,d28se,378,test
560.9338283538818,5,3,2,0,4,1,E-,1,1,5,0,1000,250.0,1,d28se,379,test
864.96901512146,5,3,2,0,4,1,E-,1,4,4,0,1000,250.0,4,d28se,380,test
688.74192237854,5,3,2,0,4,1,E-,1,3,1,0,1000,250.0,3,d28se,381,test
689.0020370483398,5,3,2,0,4,1,E-,1,0,3,0,1000,250.0,0,d28se,382,test
656.7978858947754,5,3,2,0,4,1,E-,1,1,5,0,1000,250.0,1,d28se,383,test
641.010046005249,5,3,2,0,4,1,E-,1,5,0,0,1000,250.0,5,d28se,384,test
736.8440628051758,5,3,2,0,4,1,E-,0,1,5,0,1000,250.0,0,d28se,385,test
689.0439987182617,5,3,2,0,4,1,E-,0,4,4,0,1000,250.0,5,d28se,386,test
768.9371109008789,5,3,2,0,4,1,E-,1,2,2,0,1000,250.0,2,d28se,387,test
832.9141139984131,5,3,2,0,4,1,E-,1,0,3,0,1000,250.0,0,d28se,388,test
881.0930252075195,5,3,2,0,4,1,E-,1,2,2,0,1000,250.0,2,d28se,389,test
736.8438243865967,5,3,2,0,4,1,E-,1,3,1,0,1000,250.0,3,d28se,390,test
656.775951385498,5,3,2,0,4,1,E-,0,4,4,0,1000,250.0,5,d28se,391,test
881.1018466949463,5,3,2,0,4,1,E-,1,4,4,0,1000,250.0,4,d28se,392,test
624.7749328613281,5,3,2,0,4,1,E-,1,3,1,0,1000,250.0,3,d28se,393,test
976.9349098205566,5,3,2,0,4,1,E-,1,2,2,0,1000,250.0,2,d28se,394,test
656.8269729614258,5,3,2,0,4,1,E-,1,3,1,0,1000,250.0,3,d28se,395,test
1168.8361167907715,5,3,2,0,4,1,E-,1,2,2,0,1000,250.0,2,d28se,396,test
1680.7820796966553,5,3,2,0,4,1,E-,1,1,5,0,1000,250.0,1,d28se,397,test
1664.7460460662842,5,3,2,0,4,1,E-,1,4,4,0,1000,250.0,4,d28se,398,test
848.7510681152344,5,3,2,0,4,1,E-,1,5,0,0,1000,250.0,5,d28se,399,test
768.9430713653564,5,3,2,0,4,1,E-,1,0,3,0,1000,250.0,0,d28se,400,test
960.8650207519531,5,3,2,0,4,1,E-,1,0,3,0,1000,250.0,0,d28se,401,test
976.8469333648682,5,3,2,0,4,1,E-,0,5,0,0,1000,250.0,1,d28se,402,test
736.9298934936523,5,3,2,0,4,1,E-,1,3,1,0,1000,250.0,3,d28se,403,test
640.8219337463379,5,3,2,0,4,1,E-,1,1,5,0,1000,250.0,1,d28se,404,test
1664.872169494629,5,3,2,0,4,1,E-,1,0,3,0,1000,250.0,0,d28se,405,test
608.773946762085,5,3,2,0,4,1,E-,1,3,1,0,1000,250.0,3,d28se,406,test
1072.6778507232666,5,3,2,0,4,1,E-,1,0,3,0,1000,250.0,0,d28se,407,test
960.9091281890869,5,3,2,0,4,1,E-,1,4,4,0,1000,250.0,4,d28se,408,test
768.9650058746338,5,3,2,0,4,1,E-,1,2,2,0,1000,250.0,2,d28se,409,test
1024.8169898986816,5,3,2,0,4,1,E-,1,0,3,0,1000,250.0,0,d28se,410,test
752.8531551361084,5,3,2,0,4,1,E-,1,4,4,0,1000,250.0,4,d28se,411,test
976.8111705780029,5,3,2,0,4,1,E-,1,1,5,0,1000,250.0,1,d28se,412,test
961.082935333252,5,3,2,0,4,1,E-,1,5,0,0,1000,250.0,5,d28se,413,test
1057.0189952850342,5,3,2,0,4,1,E-,1,4,4,0,1000,250.0,4,d28se,414,test
976.9411087036133,5,3,2,0,4,1,E-,1,2,2,0,1000,250.0,2,d28se,415,test
1200.711965560913,5,3,2,0,4,1,E-,1,1,5,0,1000,250.0,1,d28se,416,test
1344.64693069458,5,3,2,0,4,1,E-,1,3,1,0,1000,250.0,3,d28se,417,test
528.7590026855469,5,3,2,0,4,1,E-,1,2,2,0,1000,250.0,2,d28se,418,test
881.0179233551025,5,3,2,0,4,1,E-,1,1,5,0,1000,250.0,1,d28se,419,test
1344.6180820465088,5,3,2,0,4,1,E-,1,1,5,0,1000,250.0,1,d28se,420,test
592.9129123687744,5,3,2,0,4,1,E-,1,2,2,0,1000,250.0,2,d28se,421,test
960.881233215332,5,3,2,0,4,1,E-,1,1,5,0,1000,250.0,1,d28se,422,test
896.9578742980957,5,3,2,0,4,1,E-,1,4,4,0,1000,250.0,4,d28se,423,test
592.8101539611816,5,3,2,0,4,1,E-,1,0,3,0,1000,250.0,0,d28se,424,test
893.5608863830566,5,3,2,0,4,1,E-,1,0,3,0,1000,250.0,0,d28se,425,test
1264.7621631622314,5,3,2,0,4,1,E-,0,4,4,0,1000,250.0,5,d28se,426,test
657.1559906005859,5,3,2,0,4,1,E-,1,3,1,0,1000,250.0,3,d28se,427,test
720.9198474884033,5,3,2,0,4,1,E-,1,2,2,0,1000,250.0,2,d28se,428,test
736.7701530456543,5,3,2,0,4,1,E-,1,3,1,0,1000,250.0,3,d28se,429,test
752.8390884399414,5,3,2,0,4,1,E-,1,3,1,0,1000,250.0,3,d28se,430,test
1024.691104888916,5,3,2,0,4,1,E-,1,0,3,0,1000,250.0,0,d28se,431,test
1184.8480701446533,5,3,2,0,4,1,E-,1,4,4,0,1000,250.0,4,d28se,432,test
832.8428268432617,5,3,2,0,4,1,E-,1,2,2,0,1000,250.0,2,d28se,433,test
1312.8352165222168,5,3,2,0,4,1,E-,1,5,0,0,1000,250.0,5,d28se,434,test
736.9248867034912,5,3,2,0,4,1,E-,1,5,0,0,1000,250.0,5,d28se,435,test
864.8221492767334,5,3,2,0,4,1,E-,1,3,1,0,1000,250.0,3,d28se,436,test
833.0409526824951,5,3,2,0,4,1,E-,1,2,2,0,1000,250.0,2,d28se,437,test
1328.7711143493652,5,3,2,0,4,1,E-,1,4,4,0,1000,250.0,4,d28se,438,test
928.2050132751465,5,3,2,0,4,1,E-,1,2,2,0,1000,250.0,2,d28se,439,test
1056.9751262664795,5,3,2,0,4,1,E-,1,0,3,0,1000,250.0,0,d28se,440,test
688.8959407806396,5,3,2,0,4,1,E-,1,1,5,0,1000,250.0,1,d28se,441,test
1649.0788459777832,5,3,2,0,4,1,E-,1,5,0,0,1000,250.0,5,d28se,442,test
784.9950790405273,5,3,2,0,4,1,E-,1,2,2,0,1000,250.0,2,d28se,443,test
768.9800262451172,5,3,2,0,4,1,E-,1,3,1,0,1000,250.0,3,d28se,444,test
913.0651950836182,5,3,2,0,4,1,E-,1,5,0,0,1000,250.0,5,d28se,445,test
753.0028820037842,5,3,2,0,4,1,E-,1,5,0,0,1000,250.0,5,d28se,446,test
528.9959907531738,5,3,2,0,4,1,E-,1,5,0,0,1000,250.0,5,d28se,447,test
1168.7660217285156,5,3,2,0,4,1,E-,1,1,5,0,1000,250.0,1,d28se,448,test
640.873908996582,5,3,2,0,4,1,E-,1,5,0,0,1000,250.0,5,d28se,449,test
832.8850269317627,5,3,2,0,4,1,E-,1,2,2,0,1000,250.0,2,d28se,450,test
640.8748626708984,5,3,2,0,4,1,E-,1,5,0,0,1000,250.0,5,d28se,451,test
1152.6811122894287,5,3,2,0,4,1,E-,1,4,4,0,1000,250.0,4,d28se,452,test
816.9279098510742,5,3,2,0,4,1,E-,1,2,2,0,1000,250.0,2,d28se,453,test
1024.8000621795654,5,3,2,0,4,1,E-,1,4,4,0,1000,250.0,4,d28se,454,test
1072.8938579559326,5,3,2,0,4,1,E-,1,2,2,0,1000,250.0,2,d28se,455,test
752.7539730072021,5,3,2,0,4,1,E-,1,2,2,0,1000,250.0,2,d28se,456,test
736.7751598358154,5,3,2,0,4,1,E-,1,0,3,0,1000,250.0,0,d28se,457,test
944.7610378265381,5,3,2,0,4,1,E-,1,3,1,0,1000,250.0,3,d28se,458,test
752.9511451721191,5,3,2,0,4,1,E-,1,3,1,0,1000,250.0,3,d28se,459,test
528.8279056549072,5,3,2,0,4,1,E-,0,2,2,0,1000,250.0,3,d28se,460,test
849.0409851074219,5,3,2,0,4,1,E-,1,4,4,0,1000,250.0,4,d28se,461,test
624.7739791870117,5,3,2,0,4,1,E-,1,3,1,0,1000,250.0,3,d28se,462,test
768.7439918518066,5,3,2,0,4,1,E-,1,0,3,0,1000,250.0,0,d28se,463,test
832.8959941864014,5,3,2,0,4,1,E-,1,5,0,0,1000,250.0,5,d28se,464,test
1616.7969703674316,5,3,2,0,4,1,E-,1,2,2,0,1000,250.0,2,d28se,465,test
1104.809045791626,5,3,2,0,4,1,E-,1,1,5,0,1000,250.0,1,d28se,466,test
1232.936143875122,5,3,2,0,4,1,E-,1,3,1,0,1000,250.0,3,d28se,467,test
784.8129272460938,5,3,2,0,4,1,E-,1,2,2,0,1000,250.0,2,d28se,468,test
768.9580917358398,5,3,2,0,4,1,E-,1,0,3,0,1000,250.0,0,d28se,469,test
656.9240093231201,5,3,2,0,4,1,E-,1,5,0,0,1000,250.0,5,d28se,470,test
1072.8940963745117,5,3,2,0,4,1,E-,0,5,0,0,1000,250.0,1,d28se,471,test
704.8139572143555,5,3,2,0,4,1,E-,1,2,2,0,1000,250.0,2,d28se,472,test
1137.0189189910889,5,3,2,0,4,1,E-,0,4,4,0,1000,250.0,5,d28se,473,test
785.1030826568604,5,3,2,0,4,1,E-,1,5,0,0,1000,250.0,5,d28se,474,test
688.9820098876953,5,3,2,0,4,1,E-,1,4,4,0,1000,250.0,4,d28se,475,test
1328.7789821624756,5,3,2,0,4,1,E-,1,5,0,0,1000,250.0,5,d28se,476,test
784.8520278930664,5,3,2,0,4,1,E-,1,1,5,0,1000,250.0,1,d28se,477,test
752.8519630432129,5,3,2,0,4,1,E-,1,0,3,0,1000,250.0,0,d28se,478,test
4064.784049987793,5,3,2,0,4,1,E-,1,0,3,0,1000,250.0,0,d28se,479,test
848.7858772277832,5,3,2,0,4,1,E-,1,3,1,0,1000,250.0,3,d28se,480,test
657.0498943328857,5,3,2,0,4,1,E-,1,1,5,0,1000,250.0,1,d28se,481,test
816.9350624084473,5,3,2,0,4,1,E-,1,2,2,0,1000,250.0,2,d28se,482,test
576.984167098999,5,3,2,0,4,1,E-,1,3,1,0,1000,250.0,3,d28se,483,test
880.7580471038818,5,3,2,0,4,1,E-,1,0,3,0,1000,250.0,0,d28se,484,test
608.9260578155518,5,3,2,0,4,1,E-,1,3,1,0,1000,250.0,3,d28se,485,test
704.9648761749268,5,3,2,0,4,1,E-,1,1,5,0,1000,250.0,1,d28se,486,test
1616.7781352996826,5,3,2,0,4,1,E-,1,4,4,0,1000,250.0,4,d28se,487,test
608.9379787445068,5,3,2,0,4,1,E-,1,2,2,0,1000,250.0,2,d28se,488,test
592.6380157470703,5,3,2,0,4,1,E-,1,1,5,0,1000,250.0,1,d28se,489,test
1296.785831451416,5,3,2,0,4,1,E-,1,5,0,0,1000,250.0,5,d28se,490,test
720.92604637146,5,3,2,0,4,1,E-,1,4,4,0,1000,250.0,4,d28se,491,test
1120.9080219268799,5,3,2,0,4,1,E-,1,1,5,0,1000,250.0,1,d28se,492,test
673.0310916900635,5,3,2,0,4,1,E-,1,2,2,0,1000,250.0,2,d28se,493,test
1072.892189025879,5,3,2,0,4,1,E-,1,4,4,0,1000,250.0,4,d28se,494,test
704.7469615936279,5,3,2,0,4,1,E-,1,0,3,0,1000,250.0,0,d28se,495,test
912.8909111022949,5,3,2,0,4,1,E-,1,0,3,0,1000,250.0,0,d28se,496,test
768.8639163970947,5,3,2,0,4,1,E-,1,4,4,0,1000,250.0,4,d28se,497,test
704.9410343170166,5,3,2,0,4,1,E-,1,5,0,0,1000,250.0,5,d28se,498,test
560.9099864959717,5,3,2,0,4,1,E-,1,5,0,0,1000,250.0,5,d28se,499,test
