RT,SRmap_0,SRmap_1,SRmap_2,SRmap_3,SRmap_4,SRmap_5,condition,correct,correct_response,curstim,ms-precue,ms-prestimblank,ntrials,response,subject,trial,type
846.5220928192139,2,1,3,0,5,4,E+,1,2,0,400,600,250.0,2,E19JW,0,train
127.6249885559082,2,1,3,0,5,4,E+,1,0,3,400,600,250.0,0,E19JW,1,train
175.76193809509277,2,1,3,0,5,4,E+,1,2,0,400,600,250.0,2,E19JW,2,train
207.7329158782959,2,1,3,0,5,4,E+,1,2,0,400,600,250.0,2,E19JW,3,train
207.73816108703613,2,1,3,0,5,4,E+,1,1,1,400,600,250.0,1,E19JW,4,train
1455.7080268859863,2,1,3,0,5,4,E+,1,5,4,400,600,250.0,5,E19JW,5,train
591.2599563598633,2,1,3,0,5,4,E+,1,2,0,400,600,250.0,2,E19JW,6,train
1375.2491474151611,2,1,3,0,5,4,E+,1,3,2,400,600,250.0,3,E19JW,7,train
239.20416831970215,2,1,3,0,5,4,E+,1,2,0,400,600,250.0,2,E19JW,8,train
239.22395706176758,2,1,3,0,5,4,E+,1,2,0,400,600,250.0,2,E19JW,9,train
287.5690460205078,2,1,3,0,5,4,E+,1,5,4,400,600,250.0,5,E19JW,10,train
927.6020526885986,2,1,3,0,5,4,E+,1,1,1,400,600,250.0,1,E19JW,11,train
847.2189903259277,2,1,3,0,5,4,E+,1,1,1,400,600,250.0,1,E19JW,12,train
703.5181522369385,2,1,3,0,5,4,E+,1,0,3,400,600,250.0,0,E19JW,13,train
879.8389434814453,2,1,3,0,5,4,E+,1,2,0,400,600,250.0,2,E19JW,14,train
735.8260154724121,2,1,3,0,5,4,E+,1,1,1,400,600,250.0,1,E19JW,15,train
751.4979839324951,2,1,3,0,5,4,E+,1,5,4,400,600,250.0,5,E19JW,16,train
639.8389339447021,2,1,3,0,5,4,E+,1,5,4,400,600,250.0,5,E19JW,17,train
623.7499713897705,2,1,3,0,5,4,E+,1,0,3,400,600,250.0,0,E19JW,18,train
799.976110458374,2,1,3,0,5,4,E+,1,2,0,400,600,250.0,2,E19JW,19,train
575.8481025695801,2,1,3,0,5,4,E+,1,5,4,400,600,250.0,5,E19JW,20,train
559.8230361938477,2,1,3,0,5,4,E+,1,3,2,400,600,250.0,3,E19JW,21,train
1023.7579345703125,2,1,3,0,5,4,E+,1,4,5,400,600,250.0,4,E19JW,22,train
272.0181941986084,2,1,3,0,5,4,E+,1,2,0,400,600,250.0,2,E19JW,23,train
111.82403564453125,2,1,3,0,5,4,E+,1,2,0,400,600,250.0,2,E19JW,24,train
287.74213790893555,2,1,3,0,5,4,E+,1,4,5,400,600,250.0,4,E19JW,25,train
111.84406280517578,2,1,3,0,5,4,E+,1,1,1,400,600,250.0,1,E19JW,26,train
127.88081169128418,2,1,3,0,5,4,E+,0,4,5,400,600,250.0,2,E19JW,27,train
799.8168468475342,2,1,3,0,5,4,E+,1,0,3,400,600,250.0,0,E19JW,28,train
351.72414779663086,2,1,3,0,5,4,E+,1,4,5,400,600,250.0,4,E19JW,29,train
207.7171802520752,2,1,3,0,5,4,E+,1,1,1,400,600,250.0,1,E19JW,30,train
175.7500171661377,2,1,3,0,5,4,E+,1,4,5,400,600,250.0,4,E19JW,31,train
351.72295570373535,2,1,3,0,5,4,E+,1,2,0,400,600,250.0,2,E19JW,32,train
207.27205276489258,2,1,3,0,5,4,E+,1,5,4,400,600,250.0,5,E19JW,33,train
207.89003372192383,2,1,3,0,5,4,E+,1,0,3,400,600,250.0,0,E19JW,34,train
223.73104095458984,2,1,3,0,5,4,E+,1,2,0,400,600,250.0,2,E19JW,35,train
0.02288818359375,2,1,3,0,5,4,E+,1,1,1,400,600,250.0,1,E19JW,36,train
127.95686721801758,2,1,3,0,5,4,E+,1,5,4,400,600,250.0,5,E19JW,37,train
80.01899719238281,2,1,3,0,5,4,E+,0,3,2,400,600,250.0,2,E19JW,38,train
143.69606971740723,2,1,3,0,5,4,E+,1,0,3,400,600,250.0,0,E19JW,39,train
111.90319061279297,2,1,3,0,5,4,E+,1,5,4,400,600,250.0,5,E19JW,40,train
80.01494407653809,2,1,3,0,5,4,E+,1,5,4,400,600,250.0,5,E19JW,41,train
31.92901611328125,2,1,3,0,5,4,E+,1,5,4,400,600,250.0,5,E19JW,42,train
191.85900688171387,2,1,3,0,5,4,E+,0,3,2,400,600,250.0,2,E19JW,43,train
79.82897758483887,2,1,3,0,5,4,E+,1,0,3,400,600,250.0,0,E19JW,44,train
47.901153564453125,2,1,3,0,5,4,E+,1,1,1,400,600,250.0,1,E19JW,45,train
351.2401580810547,2,1,3,0,5,4,E+,1,4,5,400,600,250.0,4,E19JW,46,train
127.48408317565918,2,1,3,0,5,4,E+,1,0,3,400,600,250.0,0,E19JW,47,train
303.22790145874023,2,1,3,0,5,4,E+,1,3,2,400,600,250.0,3,E19JW,48,train
239.3488883972168,2,1,3,0,5,4,E+,1,1,1,400,600,250.0,1,E19JW,49,train
255.47289848327637,2,1,3,0,5,4,E+,1,3,2,400,600,250.0,3,E19JW,50,train
143.3877944946289,2,1,3,0,5,4,E+,1,3,2,400,600,250.0,3,E19JW,51,train
239.31193351745605,2,1,3,0,5,4,E+,0,4,5,400,600,250.0,5,E19JW,52,train
447.48902320861816,2,1,3,0,5,4,E+,1,0,3,400,600,250.0,0,E19JW,53,train
47.40500450134277,2,1,3,0,5,4,E+,1,0,3,400,600,250.0,0,E19JW,54,train
207.28111267089844,2,1,3,0,5,4,E+,1,4,5,400,600,250.0,4,E19JW,55,train
159.50608253479004,2,1,3,0,5,4,E+,1,5,4,400,600,250.0,5,E19JW,56,train
415.2259826660156,2,1,3,0,5,4,E+,1,1,1,400,600,250.0,1,E19JW,57,train
239.17317390441895,2,1,3,0,5,4,E+,1,4,5,400,600,250.0,4,E19JW,58,train
799.3800640106201,2,1,3,0,5,4,E+,1,4,5,400,600,250.0,4,E19JW,59,train
79.25701141357422,2,1,3,0,5,4,E+,1,0,3,400,600,250.0,0,E19JW,60,train
415.41218757629395,2,1,3,0,5,4,E+,1,2,0,400,600,250.0,2,E19JW,61,train
175.0199794769287,2,1,3,0,5,4,E+,1,1,1,400,600,250.0,1,E19JW,62,train
159.73186492919922,2,1,3,0,5,4,E+,1,3,2,400,600,250.0,3,E19JW,63,train
79.91886138916016,2,1,3,0,5,4,E+,1,0,3,400,600,250.0,0,E19JW,64,train
159.80911254882812,2,1,3,0,5,4,E+,1,5,4,400,600,250.0,5,E19JW,65,train
207.84997940063477,2,1,3,0,5,4,E+,0,4,5,400,600,250.0,3,E19JW,66,train
319.9129104614258,2,1,3,0,5,4,E+,1,2,0,400,600,250.0,2,E19JW,67,train
159.81388092041016,2,1,3,0,5,4,E+,1,4,5,400,600,250.0,4,E19JW,68,train
351.79615020751953,2,1,3,0,5,4,E+,1,5,4,400,600,250.0,5,E19JW,69,train
207.7350616455078,2,1,3,0,5,4,E+,1,4,5,400,600,250.0,4,E19JW,70,train
223.77610206604004,2,1,3,0,5,4,E+,1,2,0,400,600,250.0,2,E19JW,71,train
175.7969856262207,2,1,3,0,5,4,E+,1,1,1,400,600,250.0,1,E19JW,72,train
207.43298530578613,2,1,3,0,5,4,E+,1,5,4,400,600,250.0,5,E19JW,73,train
447.6318359375,2,1,3,0,5,4,E+,1,2,0,400,600,250.0,2,E19JW,74,train
143.7540054321289,2,1,3,0,5,4,E+,1,0,3,400,600,250.0,0,E19JW,75,train
79.87809181213379,2,1,3,0,5,4,E+,1,1,1,400,600,250.0,1,E19JW,76,train
479.949951171875,2,1,3,0,5,4,E+,1,2,0,400,600,250.0,2,E19JW,77,train
239.87507820129395,2,1,3,0,5,4,E+,1,0,3,400,600,250.0,0,E19JW,78,train
223.86693954467773,2,1,3,0,5,4,E+,1,4,5,400,600,250.0,4,E19JW,79,train
831.8581581115723,2,1,3,0,5,4,E+,1,3,2,400,600,250.0,3,E19JW,80,train
159.70683097839355,2,1,3,0,5,4,E+,1,3,2,400,600,250.0,3,E19JW,81,train
495.95189094543457,2,1,3,0,5,4,E+,1,2,0,400,600,250.0,2,E19JW,82,train
271.79598808288574,2,1,3,0,5,4,E+,1,0,3,400,600,250.0,0,E19JW,83,train
255.79118728637695,2,1,3,0,5,4,E+,1,5,4,400,600,250.0,5,E19JW,84,train
64.01491165161133,2,1,3,0,5,4,E+,1,0,3,400,600,250.0,0,E19JW,85,train
63.34090232849121,2,1,3,0,5,4,E+,1,1,1,400,600,250.0,1,E19JW,86,train
143.83411407470703,2,1,3,0,5,4,E+,1,0,3,400,600,250.0,0,E19JW,87,train
79.39910888671875,2,1,3,0,5,4,E+,0,4,5,400,600,250.0,5,E19JW,88,train
351.848840713501,2,1,3,0,5,4,E+,1,2,0,400,600,250.0,2,E19JW,89,train
63.93098831176758,2,1,3,0,5,4,E+,1,2,0,400,600,250.0,2,E19JW,90,train
95.94297409057617,2,1,3,0,5,4,E+,1,0,3,400,600,250.0,0,E19JW,91,train
111.88507080078125,2,1,3,0,5,4,E+,1,0,3,400,600,250.0,0,E19JW,92,train
271.87585830688477,2,1,3,0,5,4,E+,1,4,5,400,600,250.0,4,E19JW,93,train
63.91096115112305,2,1,3,0,5,4,E+,1,2,0,400,600,250.0,2,E19JW,94,train
719.8388576507568,2,1,3,0,5,4,E+,1,4,5,400,600,250.0,4,E19JW,95,train
111.79995536804199,2,1,3,0,5,4,E+,1,5,4,400,600,250.0,5,E19JW,96,train
191.8339729309082,2,1,3,0,5,4,E+,1,4,5,400,600,250.0,4,E19JW,97,train
303.53593826293945,2,1,3,0,5,4,E+,1,5,4,400,600,250.0,5,E19JW,98,train
383.84294509887695,2,1,3,0,5,4,E+,1,1,1,400,600,250.0,1,E19JW,99,train
79.91313934326172,2,1,3,0,5,4,E+,1,5,4,400,600,250.0,5,E19JW,100,train
367.7520751953125,2,1,3,0,5,4,E+,1,0,3,400,600,250.0,0,E19JW,101,train
95.74103355407715,2,1,3,0,5,4,E+,1,5,4,400,600,250.0,5,E19JW,102,train
399.8589515686035,2,1,3,0,5,4,E+,1,3,2,400,600,250.0,3,E19JW,103,train
111.92107200622559,2,1,3,0,5,4,E+,1,5,4,400,600,250.0,5,E19JW,104,train
143.79382133483887,2,1,3,0,5,4,E+,1,1,1,400,600,250.0,1,E19JW,105,train
527.8120040893555,2,1,3,0,5,4,E+,1,1,1,400,600,250.0,1,E19JW,106,train
111.76800727844238,2,1,3,0,5,4,E+,1,1,1,400,600,250.0,1,E19JW,107,train
207.74006843566895,2,1,3,0,5,4,E+,1,0,3,400,600,250.0,0,E19JW,108,train
207.46207237243652,2,1,3,0,5,4,E+,1,5,4,400,600,250.0,5,E19JW,109,train
191.7550563812256,2,1,3,0,5,4,E+,1,1,1,400,600,250.0,1,E19JW,110,train
863.7979030609131,2,1,3,0,5,4,E+,1,3,2,400,600,250.0,3,E19JW,111,train
671.349048614502,2,1,3,0,5,4,E+,1,1,1,400,600,250.0,1,E19JW,112,train
351.8052101135254,2,1,3,0,5,4,E+,1,4,5,400,600,250.0,4,E19JW,113,train
655.9209823608398,2,1,3,0,5,4,E+,1,4,5,400,600,250.0,4,E19JW,114,train
159.7609519958496,2,1,3,0,5,4,E+,1,1,1,400,600,250.0,1,E19JW,115,train
111.43112182617188,2,1,3,0,5,4,E+,1,4,5,400,600,250.0,4,E19JW,116,train
111.86790466308594,2,1,3,0,5,4,E+,1,1,1,400,600,250.0,1,E19JW,117,train
79.31017875671387,2,1,3,0,5,4,E+,1,4,5,400,600,250.0,4,E19JW,118,train
383.91900062561035,2,1,3,0,5,4,E+,1,1,1,400,600,250.0,1,E19JW,119,train
0.030994415283203125,2,1,3,0,5,4,E+,1,4,5,400,600,250.0,4,E19JW,120,train
735.9428405761719,2,1,3,0,5,4,E+,1,1,1,400,600,250.0,1,E19JW,121,train
207.76820182800293,2,1,3,0,5,4,E+,1,5,4,400,600,250.0,5,E19JW,122,train
47.96004295349121,2,1,3,0,5,4,E+,1,0,3,400,600,250.0,0,E19JW,123,train
95.95894813537598,2,1,3,0,5,4,E+,1,1,1,400,600,250.0,1,E19JW,124,train
127.79903411865234,2,1,3,0,5,4,E+,0,3,2,400,600,250.0,2,E19JW,125,train
207.9298496246338,2,1,3,0,5,4,E+,1,4,5,400,600,250.0,4,E19JW,126,train
175.04382133483887,2,1,3,0,5,4,E+,0,3,2,400,600,250.0,2,E19JW,127,train
751.2190341949463,2,1,3,0,5,4,E+,1,5,4,400,600,250.0,5,E19JW,128,train
831.3591480255127,2,1,3,0,5,4,E+,1,2,0,400,600,250.0,2,E19JW,129,train
207.06605911254883,2,1,3,0,5,4,E+,1,0,3,400,600,250.0,0,E19JW,130,train
431.3240051269531,2,1,3,0,5,4,E+,1,1,1,400,600,250.0,1,E19JW,131,train
495.26405334472656,2,1,3,0,5,4,E+,1,1,1,400,600,250.0,1,E19JW,132,train
383.40187072753906,2,1,3,0,5,4,E+,1,4,5,400,600,250.0,4,E19JW,133,train
879.5998096466064,2,1,3,0,5,4,E+,1,3,2,400,600,250.0,3,E19JW,134,train
479.4919490814209,2,1,3,0,5,4,E+,1,2,0,400,600,250.0,2,E19JW,135,train
207.3190212249756,2,1,3,0,5,4,E+,1,0,3,400,600,250.0,0,E19JW,136,train
79.36501502990723,2,1,3,0,5,4,E+,1,1,1,400,600,250.0,1,E19JW,137,train
271.2368965148926,2,1,3,0,5,4,E+,1,5,4,400,600,250.0,5,E19JW,138,train
367.3219680786133,2,1,3,0,5,4,E+,1,3,2,400,600,250.0,3,E19JW,139,train
239.3500804901123,2,1,3,0,5,4,E+,0,2,0,400,600,250.0,1,E19JW,140,train
159.40594673156738,2,1,3,0,5,4,E+,1,1,1,400,600,250.0,1,E19JW,141,train
175.4300594329834,2,1,3,0,5,4,E+,1,0,3,400,600,250.0,0,E19JW,142,train
143.2209014892578,2,1,3,0,5,4,E+,1,0,3,400,600,250.0,0,E19JW,143,train
383.3808898925781,2,1,3,0,5,4,E+,1,5,4,400,600,250.0,5,E19JW,144,train
127.3188591003418,2,1,3,0,5,4,E+,1,2,0,400,600,250.0,2,E19JW,145,train
143.4040069580078,2,1,3,0,5,4,E+,1,5,4,400,600,250.0,5,E19JW,146,train
383.29505920410156,2,1,3,0,5,4,E+,0,4,5,400,600,250.0,3,E19JW,147,train
255.24497032165527,2,1,3,0,5,4,E+,1,1,1,400,600,250.0,1,E19JW,148,train
207.46088027954102,2,1,3,0,5,4,E+,1,2,0,400,600,250.0,2,E19JW,149,train
207.35812187194824,2,1,3,0,5,4,E+,1,5,4,400,600,250.0,5,E19JW,150,train
431.4150810241699,2,1,3,0,5,4,E+,1,3,2,400,600,250.0,3,E19JW,151,train
127.31385231018066,2,1,3,0,5,4,E+,1,0,3,400,600,250.0,0,E19JW,152,train
223.6800193786621,2,1,3,0,5,4,E+,1,0,3,400,600,250.0,0,E19JW,153,train
287.2650623321533,2,1,3,0,5,4,E+,1,4,5,400,600,250.0,4,E19JW,154,train
303.4679889678955,2,1,3,0,5,4,E+,1,3,2,400,600,250.0,3,E19JW,155,train
447.282075881958,2,1,3,0,5,4,E+,1,4,5,400,600,250.0,4,E19JW,156,train
111.53888702392578,2,1,3,0,5,4,E+,1,1,1,400,600,250.0,1,E19JW,157,train
79.4529914855957,2,1,3,0,5,4,E+,1,1,1,400,600,250.0,1,E19JW,158,train
79.45680618286133,2,1,3,0,5,4,E+,1,1,1,400,600,250.0,1,E19JW,159,train
2015.2738094329834,2,1,3,0,5,4,E+,1,0,3,400,600,250.0,0,E19JW,160,train
175.28295516967773,2,1,3,0,5,4,E+,1,5,4,400,600,250.0,5,E19JW,161,train
351.672887802124,2,1,3,0,5,4,E+,1,2,0,400,600,250.0,2,E19JW,162,train
159.3949794769287,2,1,3,0,5,4,E+,1,0,3,400,600,250.0,0,E19JW,163,train
447.4310874938965,2,1,3,0,5,4,E+,1,2,0,400,600,250.0,2,E19JW,164,train
271.40212059020996,2,1,3,0,5,4,E+,1,0,3,400,600,250.0,0,E19JW,165,train
191.27583503723145,2,1,3,0,5,4,E+,1,2,0,400,600,250.0,2,E19JW,166,train
63.497066497802734,2,1,3,0,5,4,E+,1,4,5,400,600,250.0,4,E19JW,167,train
303.18713188171387,2,1,3,0,5,4,E+,1,5,4,400,600,250.0,5,E19JW,168,train
607.3489189147949,2,1,3,0,5,4,E+,1,1,1,400,600,250.0,1,E19JW,169,train
1103.3298969268799,2,1,3,0,5,4,E+,1,2,0,400,600,250.0,2,E19JW,170,train
111.46998405456543,2,1,3,0,5,4,E+,1,0,3,400,600,250.0,0,E19JW,171,train
191.3011074066162,2,1,3,0,5,4,E+,1,5,4,400,600,250.0,5,E19JW,172,train
287.36305236816406,2,1,3,0,5,4,E+,1,5,4,400,600,250.0,5,E19JW,173,train
239.29286003112793,2,1,3,0,5,4,E+,1,5,4,400,600,250.0,5,E19JW,174,train
287.2459888458252,2,1,3,0,5,4,E+,1,2,0,400,600,250.0,2,E19JW,175,train
319.37313079833984,2,1,3,0,5,4,E+,1,4,5,400,600,250.0,4,E19JW,176,train
431.2739372253418,2,1,3,0,5,4,E+,1,1,1,400,600,250.0,1,E19JW,177,train
239.28499221801758,2,1,3,0,5,4,E+,1,2,0,400,600,250.0,2,E19JW,178,train
223.5848903656006,2,1,3,0,5,4,E+,1,4,5,400,600,250.0,4,E19JW,179,train
190.9310817718506,2,1,3,0,5,4,E+,1,5,4,400,600,250.0,5,E19JW,180,train
207.92317390441895,2,1,3,0,5,4,E+,1,1,1,400,600,250.0,1,E19JW,181,train
335.8759880065918,2,1,3,0,5,4,E+,1,5,4,400,600,250.0,5,E19JW,182,train
175.7209300994873,2,1,3,0,5,4,E+,1,0,3,400,600,250.0,0,E19JW,183,train
639.5359039306641,2,1,3,0,5,4,E+,1,4,5,400,600,250.0,4,E19JW,184,train
255.7239532470703,2,1,3,0,5,4,E+,1,0,3,400,600,250.0,0,E19JW,185,train
1055.8340549468994,2,1,3,0,5,4,E+,0,4,5,400,600,250.0,3,E19JW,186,train
319.97179985046387,2,1,3,0,5,4,E+,1,4,5,400,600,250.0,4,E19JW,187,train
15.836000442504883,2,1,3,0,5,4,E+,1,4,5,400,600,250.0,4,E19JW,188,train
191.31088256835938,2,1,3,0,5,4,E+,1,3,2,400,600,250.0,3,E19JW,189,train
0.05698204040527344,2,1,3,0,5,4,E+,1,2,0,400,600,250.0,2,E19JW,190,train
255.3868293762207,2,1,3,0,5,4,E+,0,3,2,400,600,250.0,2,E19JW,191,train
911.2288951873779,2,1,3,0,5,4,E+,1,4,5,400,600,250.0,4,E19JW,192,train
143.2638168334961,2,1,3,0,5,4,E+,1,4,5,400,600,250.0,4,E19JW,193,train
255.3849220275879,2,1,3,0,5,4,E+,1,2,0,400,600,250.0,2,E19JW,194,train
431.21910095214844,2,1,3,0,5,4,E+,1,3,2,400,600,250.0,3,E19JW,195,train
95.27993202209473,2,1,3,0,5,4,E+,1,4,5,400,600,250.0,4,E19JW,196,train
127.36701965332031,2,1,3,0,5,4,E+,1,4,5,400,600,250.0,4,E19JW,197,train
159.66200828552246,2,1,3,0,5,4,E+,1,5,4,400,600,250.0,5,E19JW,198,train
191.9119358062744,2,1,3,0,5,4,E+,1,1,1,400,600,250.0,1,E19JW,199,train
1216.2120342254639,2,1,3,0,5,4,E+,1,5,4,400,600,250.0,5,E19JW,200,train
111.88507080078125,2,1,3,0,5,4,E+,1,5,4,400,600,250.0,5,E19JW,201,train
207.81397819519043,2,1,3,0,5,4,E+,1,4,5,400,600,250.0,4,E19JW,202,train
223.7389087677002,2,1,3,0,5,4,E+,1,0,3,400,600,250.0,0,E19JW,203,train
335.7729911804199,2,1,3,0,5,4,E+,0,3,2,400,600,250.0,4,E19JW,204,train
143.72611045837402,2,1,3,0,5,4,E+,1,0,3,400,600,250.0,0,E19JW,205,train
287.708044052124,2,1,3,0,5,4,E+,1,4,5,400,600,250.0,4,E19JW,206,train
271.8198299407959,2,1,3,0,5,4,E+,1,4,5,400,600,250.0,4,E19JW,207,train
271.7549800872803,2,1,3,0,5,4,E+,1,4,5,400,600,250.0,4,E19JW,208,train
191.864013671875,2,1,3,0,5,4,E+,1,4,5,400,600,250.0,4,E19JW,209,train
383.85510444641113,2,1,3,0,5,4,E+,1,2,0,400,600,250.0,2,E19JW,210,train
287.8570556640625,2,1,3,0,5,4,E+,1,4,5,400,600,250.0,4,E19JW,211,train
527.9850959777832,2,1,3,0,5,4,E+,1,2,0,400,600,250.0,2,E19JW,212,train
47.972917556762695,2,1,3,0,5,4,E+,1,3,2,400,600,250.0,3,E19JW,213,train
31.419992446899414,2,1,3,0,5,4,E+,1,3,2,400,600,250.0,3,E19JW,214,train
143.97096633911133,2,1,3,0,5,4,E+,1,0,3,400,600,250.0,0,E19JW,215,train
111.56415939331055,2,1,3,0,5,4,E+,1,1,1,400,600,250.0,1,E19JW,216,train
255.80906867980957,2,1,3,0,5,4,E+,1,5,4,400,600,250.0,5,E19JW,217,train
159.53707695007324,2,1,3,0,5,4,E+,1,1,1,400,600,250.0,1,E19JW,218,train
191.87688827514648,2,1,3,0,5,4,E+,1,2,0,400,600,250.0,2,E19JW,219,train
111.46402359008789,2,1,3,0,5,4,E+,1,1,1,400,600,250.0,1,E19JW,220,train
191.9100284576416,2,1,3,0,5,4,E+,1,2,0,400,600,250.0,2,E19JW,221,train
47.850847244262695,2,1,3,0,5,4,E+,1,1,1,400,600,250.0,1,E19JW,222,train
111.9239330291748,2,1,3,0,5,4,E+,1,0,3,400,600,250.0,0,E19JW,223,train
143.76306533813477,2,1,3,0,5,4,E+,1,0,3,400,600,250.0,0,E19JW,224,train
303.82299423217773,2,1,3,0,5,4,E+,1,2,0,400,600,250.0,2,E19JW,225,train
223.74296188354492,2,1,3,0,5,4,E+,1,3,2,400,600,250.0,3,E19JW,226,train
223.94418716430664,2,1,3,0,5,4,E+,1,2,0,400,600,250.0,2,E19JW,227,train
399.8119831085205,2,1,3,0,5,4,E+,1,4,5,400,600,250.0,4,E19JW,228,train
319.20909881591797,2,1,3,0,5,4,E+,1,1,1,400,600,250.0,1,E19JW,229,train
655.3101539611816,2,1,3,0,5,4,E+,1,4,5,400,600,250.0,4,E19JW,230,train
255.54299354553223,2,1,3,0,5,4,E+,1,5,4,400,600,250.0,5,E19JW,231,train
255.22398948669434,2,1,3,0,5,4,E+,1,0,3,400,600,250.0,0,E19JW,232,train
159.24477577209473,2,1,3,0,5,4,E+,1,5,4,400,600,250.0,5,E19JW,233,train
175.19617080688477,2,1,3,0,5,4,E+,1,4,5,400,600,250.0,4,E19JW,234,train
143.7089443206787,2,1,3,0,5,4,E+,1,2,0,400,600,250.0,2,E19JW,235,train
159.55781936645508,2,1,3,0,5,4,E+,1,0,3,400,600,250.0,0,E19JW,236,train
207.9930305480957,2,1,3,0,5,4,E+,1,2,0,400,600,250.0,2,E19JW,237,train
111.7711067199707,2,1,3,0,5,4,E+,1,4,5,400,600,250.0,4,E19JW,238,train
1279.7749042510986,2,1,3,0,5,4,E+,1,3,2,400,600,250.0,3,E19JW,239,train
159.76595878601074,2,1,3,0,5,4,E+,1,2,0,400,600,250.0,2,E19JW,240,train
79.42581176757812,2,1,3,0,5,4,E+,1,2,0,400,600,250.0,2,E19JW,241,train
63.41409683227539,2,1,3,0,5,4,E+,1,2,0,400,600,250.0,2,E19JW,242,train
143.31507682800293,2,1,3,0,5,4,E+,1,1,1,400,600,250.0,1,E19JW,243,train
2495.1210021972656,2,1,3,0,5,4,E+,1,0,3,400,600,250.0,0,E19JW,244,train
271.29220962524414,2,1,3,0,5,4,E+,1,3,2,400,600,250.0,3,E19JW,245,train
399.49893951416016,2,1,3,0,5,4,E+,1,4,5,400,600,250.0,4,E19JW,246,train
143.5098648071289,2,1,3,0,5,4,E+,1,4,5,400,600,250.0,4,E19JW,247,train
175.35710334777832,2,1,3,0,5,4,E+,1,5,4,400,600,250.0,5,E19JW,248,train
111.33503913879395,2,1,3,0,5,4,E+,1,4,5,400,600,250.0,4,E19JW,249,train
1440.51194190979,2,1,3,0,5,4,E+,1,5,4,0,1000,250.0,5,E19JW,250,test
1680.833101272583,2,1,3,0,5,4,E+,1,0,3,0,1000,250.0,0,E19JW,251,test
912.2908115386963,2,1,3,0,5,4,E+,1,0,3,0,1000,250.0,0,E19JW,252,test
944.6969032287598,2,1,3,0,5,4,E+,0,4,5,0,1000,250.0,3,E19JW,253,test
1168.5700416564941,2,1,3,0,5,4,E+,1,4,5,0,1000,250.0,4,E19JW,254,test
784.5699787139893,2,1,3,0,5,4,E+,1,0,3,0,1000,250.0,0,E19JW,255,test
832.4999809265137,2,1,3,0,5,4,E+,1,2,0,0,1000,250.0,2,E19JW,256,test
464.601993560791,2,1,3,0,5,4,E+,1,5,4,0,1000,250.0,5,E19JW,257,test
832.9448699951172,2,1,3,0,5,4,E+,1,5,4,0,1000,250.0,5,E19JW,258,test
704.5400142669678,2,1,3,0,5,4,E+,1,1,1,0,1000,250.0,1,E19JW,259,test
1136.8401050567627,2,1,3,0,5,4,E+,1,2,0,0,1000,250.0,2,E19JW,260,test
1600.5570888519287,2,1,3,0,5,4,E+,1,4,5,0,1000,250.0,4,E19JW,261,test
1248.687982559204,2,1,3,0,5,4,E+,1,2,0,0,1000,250.0,2,E19JW,262,test
704.6418190002441,2,1,3,0,5,4,E+,1,1,1,0,1000,250.0,1,E19JW,263,test
864.5830154418945,2,1,3,0,5,4,E+,1,5,4,0,1000,250.0,5,E19JW,264,test
1600.6100177764893,2,1,3,0,5,4,E+,1,4,5,0,1000,250.0,4,E19JW,265,test
640.733003616333,2,1,3,0,5,4,E+,0,3,2,0,1000,250.0,1,E19JW,266,test
656.6557884216309,2,1,3,0,5,4,E+,1,3,2,0,1000,250.0,3,E19JW,267,test
512.5720500946045,2,1,3,0,5,4,E+,1,3,2,0,1000,250.0,3,E19JW,268,test
1264.7500038146973,2,1,3,0,5,4,E+,1,5,4,0,1000,250.0,5,E19JW,269,test
1024.2838859558105,2,1,3,0,5,4,E+,1,4,5,0,1000,250.0,4,E19JW,270,test
688.6310577392578,2,1,3,0,5,4,E+,1,0,3,0,1000,250.0,0,E19JW,271,test
656.6789150238037,2,1,3,0,5,4,E+,1,1,1,0,1000,250.0,1,E19JW,272,test
2224.6880531311035,2,1,3,0,5,4,E+,1,4,5,0,1000,250.0,4,E19JW,273,test
784.5640182495117,2,1,3,0,5,4,E+,1,3,2,0,1000,250.0,3,E19JW,274,test
1040.6479835510254,2,1,3,0,5,4,E+,1,5,4,0,1000,250.0,5,E19JW,275,test
1280.7610034942627,2,1,3,0,5,4,E+,0,4,5,0,1000,250.0,0,E19JW,276,test
1728.5048961639404,2,1,3,0,5,4,E+,1,4,5,0,1000,250.0,4,E19JW,277,test
944.5521831512451,2,1,3,0,5,4,E+,1,2,0,0,1000,250.0,2,E19JW,278,test
544.4982051849365,2,1,3,0,5,4,E+,1,3,2,0,1000,250.0,3,E19JW,279,test
1184.4189167022705,2,1,3,0,5,4,E+,1,3,2,0,1000,250.0,3,E19JW,280,test
1376.4739036560059,2,1,3,0,5,4,E+,1,4,5,0,1000,250.0,4,E19JW,281,test
624.47190284729,2,1,3,0,5,4,E+,1,5,4,0,1000,250.0,5,E19JW,282,test
752.4850368499756,2,1,3,0,5,4,E+,1,3,2,0,1000,250.0,3,E19JW,283,test
704.4529914855957,2,1,3,0,5,4,E+,1,1,1,0,1000,250.0,1,E19JW,284,test
1024.8000621795654,2,1,3,0,5,4,E+,1,4,5,0,1000,250.0,4,E19JW,285,test
704.5910358428955,2,1,3,0,5,4,E+,1,3,2,0,1000,250.0,3,E19JW,286,test
528.4850597381592,2,1,3,0,5,4,E+,1,3,2,0,1000,250.0,3,E19JW,287,test
880.9871673583984,2,1,3,0,5,4,E+,1,5,4,0,1000,250.0,5,E19JW,288,test
1664.8969650268555,2,1,3,0,5,4,E+,1,2,0,0,1000,250.0,2,E19JW,289,test
704.9310207366943,2,1,3,0,5,4,E+,1,1,1,0,1000,250.0,1,E19JW,290,test
817.0859813690186,2,1,3,0,5,4,E+,0,2,0,0,1000,250.0,5,E19JW,291,test
560.7681274414062,2,1,3,0,5,4,E+,1,5,4,0,1000,250.0,5,E19JW,292,test
704.8630714416504,2,1,3,0,5,4,E+,1,1,1,0,1000,250.0,1,E19JW,293,test
656.9991111755371,2,1,3,0,5,4,E+,1,1,1,0,1000,250.0,1,E19JW,294,test
720.7798957824707,2,1,3,0,5,4,E+,1,2,0,0,1000,250.0,2,E19JW,295,test
2432.9090118408203,2,1,3,0,5,4,E+,1,2,0,0,1000,250.0,2,E19JW,296,test
656.8319797515869,2,1,3,0,5,4,E+,1,1,1,0,1000,250.0,1,E19JW,297,test
704.9350738525391,2,1,3,0,5,4,E+,1,0,3,0,1000,250.0,0,E19JW,298,test
1104.9690246582031,2,1,3,0,5,4,E+,1,3,2,0,1000,250.0,3,E19JW,299,test
7281.142950057983,2,1,3,0,5,4,E+,1,4,5,0,1000,250.0,4,E19JW,300,test
993.009090423584,2,1,3,0,5,4,E+,1,4,5,0,1000,250.0,4,E19JW,301,test
689.1248226165771,2,1,3,0,5,4,E+,1,1,1,0,1000,250.0,1,E19JW,302,test
1009.1171264648438,2,1,3,0,5,4,E+,1,2,0,0,1000,250.0,2,E19JW,303,test
673.0620861053467,2,1,3,0,5,4,E+,1,5,4,0,1000,250.0,5,E19JW,304,test
1360.9919548034668,2,1,3,0,5,4,E+,1,2,0,0,1000,250.0,2,E19JW,305,test
1553.0540943145752,2,1,3,0,5,4,E+,1,4,5,0,1000,250.0,4,E19JW,306,test
1057.1279525756836,2,1,3,0,5,4,E+,1,4,5,0,1000,250.0,4,E19JW,307,test
1488.9788627624512,2,1,3,0,5,4,E+,1,2,0,0,1000,250.0,2,E19JW,308,test
609.0080738067627,2,1,3,0,5,4,E+,1,1,1,0,1000,250.0,1,E19JW,309,test
944.9679851531982,2,1,3,0,5,4,E+,1,3,2,0,1000,250.0,3,E19JW,310,test
1024.967908859253,2,1,3,0,5,4,E+,1,4,5,0,1000,250.0,4,E19JW,311,test
656.9099426269531,2,1,3,0,5,4,E+,1,5,4,0,1000,250.0,5,E19JW,312,test
1152.8069972991943,2,1,3,0,5,4,E+,1,5,4,0,1000,250.0,5,E19JW,313,test
1520.8499431610107,2,1,3,0,5,4,E+,1,4,5,0,1000,250.0,4,E19JW,314,test
1264.8341655731201,2,1,3,0,5,4,E+,1,0,3,0,1000,250.0,0,E19JW,315,test
992.9518699645996,2,1,3,0,5,4,E+,1,1,1,0,1000,250.0,1,E19JW,316,test
881.0579776763916,2,1,3,0,5,4,E+,1,0,3,0,1000,250.0,0,E19JW,317,test
945.0809955596924,2,1,3,0,5,4,E+,1,3,2,0,1000,250.0,3,E19JW,318,test
1536.8850231170654,2,1,3,0,5,4,E+,1,0,3,0,1000,250.0,0,E19JW,319,test
832.9188823699951,2,1,3,0,5,4,E+,1,4,5,0,1000,250.0,4,E19JW,320,test
672.9130744934082,2,1,3,0,5,4,E+,1,5,4,0,1000,250.0,5,E19JW,321,test
576.801061630249,2,1,3,0,5,4,E+,1,1,1,0,1000,250.0,1,E19JW,322,test
753.0579566955566,2,1,3,0,5,4,E+,1,4,5,0,1000,250.0,4,E19JW,323,test
721.107006072998,2,1,3,0,5,4,E+,1,4,5,0,1000,250.0,4,E19JW,324,test
3104.9251556396484,2,1,3,0,5,4,E+,1,3,2,0,1000,250.0,3,E19JW,325,test
736.6299629211426,2,1,3,0,5,4,E+,1,1,1,0,1000,250.0,1,E19JW,326,test
640.8710479736328,2,1,3,0,5,4,E+,1,5,4,0,1000,250.0,5,E19JW,327,test
625.0050067901611,2,1,3,0,5,4,E+,1,0,3,0,1000,250.0,0,E19JW,328,test
672.5571155548096,2,1,3,0,5,4,E+,1,5,4,0,1000,250.0,5,E19JW,329,test
785.0420475006104,2,1,3,0,5,4,E+,1,3,2,0,1000,250.0,3,E19JW,330,test
625.0729560852051,2,1,3,0,5,4,E+,1,1,1,0,1000,250.0,1,E19JW,331,test
608.9260578155518,2,1,3,0,5,4,E+,1,5,4,0,1000,250.0,5,E19JW,332,test
1121.0129261016846,2,1,3,0,5,4,E+,1,4,5,0,1000,250.0,4,E19JW,333,test
1137.0749473571777,2,1,3,0,5,4,E+,1,2,0,0,1000,250.0,2,E19JW,334,test
609.0340614318848,2,1,3,0,5,4,E+,1,1,1,0,1000,250.0,1,E19JW,335,test
1136.9130611419678,2,1,3,0,5,4,E+,1,2,0,0,1000,250.0,2,E19JW,336,test
1393.1090831756592,2,1,3,0,5,4,E+,0,4,5,0,1000,250.0,3,E19JW,337,test
704.4198513031006,2,1,3,0,5,4,E+,1,4,5,0,1000,250.0,4,E19JW,338,test
1889.01686668396,2,1,3,0,5,4,E+,1,2,0,0,1000,250.0,2,E19JW,339,test
800.9679317474365,2,1,3,0,5,4,E+,1,5,4,0,1000,250.0,5,E19JW,340,test
2800.9378910064697,2,1,3,0,5,4,E+,1,2,0,0,1000,250.0,2,E19JW,341,test
1712.8310203552246,2,1,3,0,5,4,E+,1,2,0,0,1000,250.0,2,E19JW,342,test
912.9390716552734,2,1,3,0,5,4,E+,1,0,3,0,1000,250.0,0,E19JW,343,test
913.0899906158447,2,1,3,0,5,4,E+,1,2,0,0,1000,250.0,2,E19JW,344,test
449.0969181060791,2,1,3,0,5,4,E+,1,2,0,0,1000,250.0,2,E19JW,345,test
737.0660305023193,2,1,3,0,5,4,E+,1,5,4,0,1000,250.0,5,E19JW,346,test
944.922924041748,2,1,3,0,5,4,E+,1,1,1,0,1000,250.0,1,E19JW,347,test
1456.9740295410156,2,1,3,0,5,4,E+,1,3,2,0,1000,250.0,3,E19JW,348,test
1361.072063446045,2,1,3,0,5,4,E+,1,4,5,0,1000,250.0,4,E19JW,349,test
1280.7300090789795,2,1,3,0,5,4,E+,1,2,0,0,1000,250.0,2,E19JW,350,test
769.0157890319824,2,1,3,0,5,4,E+,1,2,0,0,1000,250.0,2,E19JW,351,test
4225.103139877319,2,1,3,0,5,4,E+,1,1,1,0,1000,250.0,1,E19JW,352,test
672.9271411895752,2,1,3,0,5,4,E+,1,5,4,0,1000,250.0,5,E19JW,353,test
833.172082901001,2,1,3,0,5,4,E+,1,3,2,0,1000,250.0,3,E19JW,354,test
641.0830020904541,2,1,3,0,5,4,E+,1,0,3,0,1000,250.0,0,E19JW,355,test
672.9369163513184,2,1,3,0,5,4,E+,1,3,2,0,1000,250.0,3,E19JW,356,test
1696.9149112701416,2,1,3,0,5,4,E+,1,4,5,0,1000,250.0,4,E19JW,357,test
896.9600200653076,2,1,3,0,5,4,E+,1,1,1,0,1000,250.0,1,E19JW,358,test
736.4280223846436,2,1,3,0,5,4,E+,1,3,2,0,1000,250.0,3,E19JW,359,test
1073.0528831481934,2,1,3,0,5,4,E+,1,0,3,0,1000,250.0,0,E19JW,360,test
1025.0740051269531,2,1,3,0,5,4,E+,1,3,2,0,1000,250.0,3,E19JW,361,test
961.1611366271973,2,1,3,0,5,4,E+,1,2,0,0,1000,250.0,2,E19JW,362,test
657.1240425109863,2,1,3,0,5,4,E+,1,0,3,0,1000,250.0,0,E19JW,363,test
672.9061603546143,2,1,3,0,5,4,E+,1,5,4,0,1000,250.0,5,E19JW,364,test
625.0519752502441,2,1,3,0,5,4,E+,1,5,4,0,1000,250.0,5,E19JW,365,test
672.9350090026855,2,1,3,0,5,4,E+,1,3,2,0,1000,250.0,3,E19JW,366,test
672.6279258728027,2,1,3,0,5,4,E+,1,1,1,0,1000,250.0,1,E19JW,367,test
1601.0780334472656,2,1,3,0,5,4,E+,1,5,4,0,1000,250.0,5,E19JW,368,test
944.9479579925537,2,1,3,0,5,4,E+,1,2,0,0,1000,250.0,2,E19JW,369,test
1824.4919776916504,2,1,3,0,5,4,E+,0,0,3,0,1000,250.0,1,E19JW,370,test
913.1090641021729,2,1,3,0,5,4,E+,1,3,2,0,1000,250.0,3,E19JW,371,test
800.990104675293,2,1,3,0,5,4,E+,0,1,1,0,1000,250.0,0,E19JW,372,test
961.1701965332031,2,1,3,0,5,4,E+,1,3,2,0,1000,250.0,3,E19JW,373,test
769.1271305084229,2,1,3,0,5,4,E+,1,1,1,0,1000,250.0,1,E19JW,374,test
720.8881378173828,2,1,3,0,5,4,E+,0,3,2,0,1000,250.0,1,E19JW,375,test
849.0970134735107,2,1,3,0,5,4,E+,1,2,0,0,1000,250.0,2,E19JW,376,test
704.9298286437988,2,1,3,0,5,4,E+,1,5,4,0,1000,250.0,5,E19JW,377,test
1105.1640510559082,2,1,3,0,5,4,E+,1,2,0,0,1000,250.0,2,E19JW,378,test
2720.8709716796875,2,1,3,0,5,4,E+,1,3,2,0,1000,250.0,3,E19JW,379,test
961.0090255737305,2,1,3,0,5,4,E+,1,4,5,0,1000,250.0,4,E19JW,380,test
624.8960494995117,2,1,3,0,5,4,E+,1,1,1,0,1000,250.0,1,E19JW,381,test
689.1140937805176,2,1,3,0,5,4,E+,1,5,4,0,1000,250.0,5,E19JW,382,test
1297.0871925354004,2,1,3,0,5,4,E+,1,2,0,0,1000,250.0,2,E19JW,383,test
1409.1029167175293,2,1,3,0,5,4,E+,1,3,2,0,1000,250.0,3,E19JW,384,test
6208.961009979248,2,1,3,0,5,4,E+,1,5,4,0,1000,250.0,5,E19JW,385,test
1408.9128971099854,2,1,3,0,5,4,E+,1,4,5,0,1000,250.0,4,E19JW,386,test
656.9609642028809,2,1,3,0,5,4,E+,1,1,1,0,1000,250.0,1,E19JW,387,test
704.010009765625,2,1,3,0,5,4,E+,1,5,4,0,1000,250.0,5,E19JW,388,test
688.8549327850342,2,1,3,0,5,4,E+,1,5,4,0,1000,250.0,5,E19JW,389,test
529.0360450744629,2,1,3,0,5,4,E+,1,5,4,0,1000,250.0,5,E19JW,390,test
1169.0938472747803,2,1,3,0,5,4,E+,1,0,3,0,1000,250.0,0,E19JW,391,test
689.0709400177002,2,1,3,0,5,4,E+,1,0,3,0,1000,250.0,0,E19JW,392,test
1217.0650959014893,2,1,3,0,5,4,E+,1,3,2,0,1000,250.0,3,E19JW,393,test
1792.8330898284912,2,1,3,0,5,4,E+,1,4,5,0,1000,250.0,4,E19JW,394,test
672.590970993042,2,1,3,0,5,4,E+,1,5,4,0,1000,250.0,5,E19JW,395,test
768.9509391784668,2,1,3,0,5,4,E+,1,0,3,0,1000,250.0,0,E19JW,396,test
880.9549808502197,2,1,3,0,5,4,E+,1,3,2,0,1000,250.0,3,E19JW,397,test
944.9481964111328,2,1,3,0,5,4,E+,1,4,5,0,1000,250.0,4,E19JW,398,test
657.0439338684082,2,1,3,0,5,4,E+,1,5,4,0,1000,250.0,5,E19JW,399,test
785.0720882415771,2,1,3,0,5,4,E+,1,0,3,0,1000,250.0,0,E19JW,400,test
705.0349712371826,2,1,3,0,5,4,E+,1,5,4,0,1000,250.0,5,E19JW,401,test
6241.09411239624,2,1,3,0,5,4,E+,1,0,3,0,1000,250.0,0,E19JW,402,test
704.6360969543457,2,1,3,0,5,4,E+,1,3,2,0,1000,250.0,3,E19JW,403,test
1104.9649715423584,2,1,3,0,5,4,E+,1,4,5,0,1000,250.0,4,E19JW,404,test
640.9480571746826,2,1,3,0,5,4,E+,1,0,3,0,1000,250.0,0,E19JW,405,test
1025.1069068908691,2,1,3,0,5,4,E+,1,0,3,0,1000,250.0,0,E19JW,406,test
592.9341316223145,2,1,3,0,5,4,E+,1,5,4,0,1000,250.0,5,E19JW,407,test
689.0759468078613,2,1,3,0,5,4,E+,1,1,1,0,1000,250.0,1,E19JW,408,test
1744.9679374694824,2,1,3,0,5,4,E+,1,5,4,0,1000,250.0,5,E19JW,409,test
608.8809967041016,2,1,3,0,5,4,E+,1,1,1,0,1000,250.0,1,E19JW,410,test
816.9469833374023,2,1,3,0,5,4,E+,1,2,0,0,1000,250.0,2,E19JW,411,test
944.9501037597656,2,1,3,0,5,4,E+,1,4,5,0,1000,250.0,4,E19JW,412,test
1200.7348537445068,2,1,3,0,5,4,E+,1,0,3,0,1000,250.0,0,E19JW,413,test
720.958948135376,2,1,3,0,5,4,E+,1,5,4,0,1000,250.0,5,E19JW,414,test
785.088062286377,2,1,3,0,5,4,E+,1,0,3,0,1000,250.0,0,E19JW,415,test
784.8608493804932,2,1,3,0,5,4,E+,1,2,0,0,1000,250.0,2,E19JW,416,test
1440.4890537261963,2,1,3,0,5,4,E+,1,2,0,0,1000,250.0,2,E19JW,417,test
512.9551887512207,2,1,3,0,5,4,E+,1,2,0,0,1000,250.0,2,E19JW,418,test
737.0059490203857,2,1,3,0,5,4,E+,1,5,4,0,1000,250.0,5,E19JW,419,test
2369.0850734710693,2,1,3,0,5,4,E+,1,2,0,0,1000,250.0,2,E19JW,420,test
4656.975984573364,2,1,3,0,5,4,E+,1,0,3,0,1000,250.0,0,E19JW,421,test
864.9551868438721,2,1,3,0,5,4,E+,1,3,2,0,1000,250.0,3,E19JW,422,test
576.4341354370117,2,1,3,0,5,4,E+,1,0,3,0,1000,250.0,0,E19JW,423,test
705.049991607666,2,1,3,0,5,4,E+,1,0,3,0,1000,250.0,0,E19JW,424,test
2032.961130142212,2,1,3,0,5,4,E+,1,5,4,0,1000,250.0,5,E19JW,425,test
1104.9277782440186,2,1,3,0,5,4,E+,1,1,1,0,1000,250.0,1,E19JW,426,test
816.9219493865967,2,1,3,0,5,4,E+,1,4,5,0,1000,250.0,4,E19JW,427,test
1473.0119705200195,2,1,3,0,5,4,E+,1,5,4,0,1000,250.0,5,E19JW,428,test
816.9348239898682,2,1,3,0,5,4,E+,1,0,3,0,1000,250.0,0,E19JW,429,test
1104.9790382385254,2,1,3,0,5,4,E+,1,3,2,0,1000,250.0,3,E19JW,430,test
1440.924882888794,2,1,3,0,5,4,E+,1,4,5,0,1000,250.0,4,E19JW,431,test
2833.120822906494,2,1,3,0,5,4,E+,0,5,4,0,1000,250.0,4,E19JW,432,test
928.7710189819336,2,1,3,0,5,4,E+,1,4,5,0,1000,250.0,4,E19JW,433,test
3232.9890727996826,2,1,3,0,5,4,E+,1,5,4,0,1000,250.0,5,E19JW,434,test
656.8870544433594,2,1,3,0,5,4,E+,1,5,4,0,1000,250.0,5,E19JW,435,test
1681.0569763183594,2,1,3,0,5,4,E+,1,3,2,0,1000,250.0,3,E19JW,436,test
816.929817199707,2,1,3,0,5,4,E+,1,0,3,0,1000,250.0,0,E19JW,437,test
816.925048828125,2,1,3,0,5,4,E+,1,3,2,0,1000,250.0,3,E19JW,438,test
656.7659378051758,2,1,3,0,5,4,E+,1,1,1,0,1000,250.0,1,E19JW,439,test
817.0108795166016,2,1,3,0,5,4,E+,1,2,0,0,1000,250.0,2,E19JW,440,test
817.1570301055908,2,1,3,0,5,4,E+,1,5,4,0,1000,250.0,5,E19JW,441,test
480.90386390686035,2,1,3,0,5,4,E+,1,5,4,0,1000,250.0,5,E19JW,442,test
912.8060340881348,2,1,3,0,5,4,E+,1,1,1,0,1000,250.0,1,E19JW,443,test
609.0538501739502,2,1,3,0,5,4,E+,1,0,3,0,1000,250.0,0,E19JW,444,test
640.7470703125,2,1,3,0,5,4,E+,1,0,3,0,1000,250.0,0,E19JW,445,test
1168.5898303985596,2,1,3,0,5,4,E+,1,4,5,0,1000,250.0,4,E19JW,446,test
880.6850910186768,2,1,3,0,5,4,E+,1,3,2,0,1000,250.0,3,E19JW,447,test
801.1209964752197,2,1,3,0,5,4,E+,1,0,3,0,1000,250.0,0,E19JW,448,test
737.0009422302246,2,1,3,0,5,4,E+,1,5,4,0,1000,250.0,5,E19JW,449,test
641.0989761352539,2,1,3,0,5,4,E+,1,0,3,0,1000,250.0,0,E19JW,450,test
737.023115158081,2,1,3,0,5,4,E+,1,5,4,0,1000,250.0,5,E19JW,451,test
1025.1381397247314,2,1,3,0,5,4,E+,1,1,1,0,1000,250.0,1,E19JW,452,test
576.9989490509033,2,1,3,0,5,4,E+,1,0,3,0,1000,250.0,0,E19JW,453,test
3121.0238933563232,2,1,3,0,5,4,E+,1,4,5,0,1000,250.0,4,E19JW,454,test
656.7518711090088,2,1,3,0,5,4,E+,1,1,1,0,1000,250.0,1,E19JW,455,test
801.0940551757812,2,1,3,0,5,4,E+,1,0,3,0,1000,250.0,0,E19JW,456,test
2336.9998931884766,2,1,3,0,5,4,E+,1,3,2,0,1000,250.0,3,E19JW,457,test
768.9211368560791,2,1,3,0,5,4,E+,1,5,4,0,1000,250.0,5,E19JW,458,test
913.079023361206,2,1,3,0,5,4,E+,1,4,5,0,1000,250.0,4,E19JW,459,test
768.8210010528564,2,1,3,0,5,4,E+,1,1,1,0,1000,250.0,1,E19JW,460,test
752.997875213623,2,1,3,0,5,4,E+,1,5,4,0,1000,250.0,5,E19JW,461,test
721.0052013397217,2,1,3,0,5,4,E+,1,5,4,0,1000,250.0,5,E19JW,462,test
656.7080020904541,2,1,3,0,5,4,E+,1,0,3,0,1000,250.0,0,E19JW,463,test
1281.0938358306885,2,1,3,0,5,4,E+,1,4,5,0,1000,250.0,4,E19JW,464,test
977.1058559417725,2,1,3,0,5,4,E+,1,2,0,0,1000,250.0,2,E19JW,465,test
720.9889888763428,2,1,3,0,5,4,E+,1,5,4,0,1000,250.0,5,E19JW,466,test
3552.9048442840576,2,1,3,0,5,4,E+,1,0,3,0,1000,250.0,0,E19JW,467,test
1248.9700317382812,2,1,3,0,5,4,E+,1,5,4,0,1000,250.0,5,E19JW,468,test
609.138011932373,2,1,3,0,5,4,E+,1,0,3,0,1000,250.0,0,E19JW,469,test
704.9548625946045,2,1,3,0,5,4,E+,1,0,3,0,1000,250.0,0,E19JW,470,test
848.5870361328125,2,1,3,0,5,4,E+,1,4,5,0,1000,250.0,4,E19JW,471,test
545.1340675354004,2,1,3,0,5,4,E+,1,4,5,0,1000,250.0,4,E19JW,472,test
897.0818519592285,2,1,3,0,5,4,E+,1,1,1,0,1000,250.0,1,E19JW,473,test
753.105878829956,2,1,3,0,5,4,E+,1,5,4,0,1000,250.0,5,E19JW,474,test
736.9449138641357,2,1,3,0,5,4,E+,1,4,5,0,1000,250.0,4,E19JW,475,test
912.9509925842285,2,1,3,0,5,4,E+,1,2,0,0,1000,250.0,2,E19JW,476,test
721.1050987243652,2,1,3,0,5,4,E+,1,1,1,0,1000,250.0,1,E19JW,477,test
1408.9851379394531,2,1,3,0,5,4,E+,1,3,2,0,1000,250.0,3,E19JW,478,test
912.9951000213623,2,1,3,0,5,4,E+,1,0,3,0,1000,250.0,0,E19JW,479,test
641.0510540008545,2,1,3,0,5,4,E+,1,5,4,0,1000,250.0,5,E19JW,480,test
921.9229221343994,2,1,3,0,5,4,E+,1,4,5,0,1000,250.0,4,E19JW,481,test
769.010066986084,2,1,3,0,5,4,E+,1,0,3,0,1000,250.0,0,E19JW,482,test
977.1378040313721,2,1,3,0,5,4,E+,1,2,0,0,1000,250.0,2,E19JW,483,test
752.9489994049072,2,1,3,0,5,4,E+,1,1,1,0,1000,250.0,1,E19JW,484,test
816.8959617614746,2,1,3,0,5,4,E+,1,2,0,0,1000,250.0,2,E19JW,485,test
704.8981189727783,2,1,3,0,5,4,E+,1,0,3,0,1000,250.0,0,E19JW,486,test
784.9929332733154,2,1,3,0,5,4,E+,1,3,2,0,1000,250.0,3,E19JW,487,test
609.0869903564453,2,1,3,0,5,4,E+,1,1,1,0,1000,250.0,1,E19JW,488,test
1153.005838394165,2,1,3,0,5,4,E+,1,4,5,0,1000,250.0,4,E19JW,489,test
640.7029628753662,2,1,3,0,5,4,E+,1,3,2,0,1000,250.0,3,E19JW,490,test
529.0830135345459,2,1,3,0,5,4,E+,1,3,2,0,1000,250.0,3,E19JW,491,test
528.5770893096924,2,1,3,0,5,4,E+,1,3,2,0,1000,250.0,3,E19JW,492,test
720.9601402282715,2,1,3,0,5,4,E+,1,3,2,0,1000,250.0,3,E19JW,493,test
801.0909557342529,2,1,3,0,5,4,E+,1,4,5,0,1000,250.0,4,E19JW,494,test
448.9250183105469,2,1,3,0,5,4,E+,0,2,0,0,1000,250.0,4,E19JW,495,test
961.0331058502197,2,1,3,0,5,4,E+,1,0,3,0,1000,250.0,0,E19JW,496,test
945.051908493042,2,1,3,0,5,4,E+,1,0,3,0,1000,250.0,0,E19JW,497,test
736.9542121887207,2,1,3,0,5,4,E+,1,1,1,0,1000,250.0,1,E19JW,498,test
1233.0849170684814,2,1,3,0,5,4,E+,1,2,0,0,1000,250.0,2,E19JW,499,test
