RT,SRmap_0,SRmap_1,SRmap_2,SRmap_3,SRmap_4,SRmap_5,condition,correct,correct_response,curstim,ms-precue,ms-prestimblank,ntrials,response,subject,trial,type
4464.57314491272,2,3,0,4,1,5,H-,1,2,0,0,1000,250.0,2,C06WL,0,train
1296.7190742492676,2,3,0,4,1,5,H-,1,5,5,0,1000,250.0,5,C06WL,1,train
1138.2830142974854,2,3,0,4,1,5,H-,0,1,4,0,1000,250.0,0,C06WL,2,train
2640.836000442505,2,3,0,4,1,5,H-,1,2,0,0,1000,250.0,2,C06WL,3,train
976.8450260162354,2,3,0,4,1,5,H-,1,1,4,0,1000,250.0,1,C06WL,4,train
1585.129976272583,2,3,0,4,1,5,H-,1,5,5,0,1000,250.0,5,C06WL,5,train
977.7200222015381,2,3,0,4,1,5,H-,1,4,3,0,1000,250.0,4,C06WL,6,train
657.0761203765869,2,3,0,4,1,5,H-,1,2,0,0,1000,250.0,2,C06WL,7,train
593.0750370025635,2,3,0,4,1,5,H-,1,5,5,0,1000,250.0,5,C06WL,8,train
801.1629581451416,2,3,0,4,1,5,H-,1,4,3,0,1000,250.0,4,C06WL,9,train
944.8721408843994,2,3,0,4,1,5,H-,1,4,3,0,1000,250.0,4,C06WL,10,train
752.7849674224854,2,3,0,4,1,5,H-,1,2,0,0,1000,250.0,2,C06WL,11,train
720.39794921875,2,3,0,4,1,5,H-,0,4,3,0,1000,250.0,5,C06WL,12,train
576.4949321746826,2,3,0,4,1,5,H-,1,4,3,0,1000,250.0,4,C06WL,13,train
1169.1129207611084,2,3,0,4,1,5,H-,1,3,1,0,1000,250.0,3,C06WL,14,train
657.066822052002,2,3,0,4,1,5,H-,0,4,3,0,1000,250.0,5,C06WL,15,train
784.9957942962646,2,3,0,4,1,5,H-,1,5,5,0,1000,250.0,5,C06WL,16,train
577.1310329437256,2,3,0,4,1,5,H-,1,0,2,0,1000,250.0,0,C06WL,17,train
977.0081043243408,2,3,0,4,1,5,H-,1,2,0,0,1000,250.0,2,C06WL,18,train
593.116044998169,2,3,0,4,1,5,H-,1,0,2,0,1000,250.0,0,C06WL,19,train
608.9138984680176,2,3,0,4,1,5,H-,1,5,5,0,1000,250.0,5,C06WL,20,train
1185.1270198822021,2,3,0,4,1,5,H-,1,1,4,0,1000,250.0,1,C06WL,21,train
673.1350421905518,2,3,0,4,1,5,H-,1,2,0,0,1000,250.0,2,C06WL,22,train
672.9960441589355,2,3,0,4,1,5,H-,1,4,3,0,1000,250.0,4,C06WL,23,train
720.64208984375,2,3,0,4,1,5,H-,1,1,4,0,1000,250.0,1,C06WL,24,train
593.0430889129639,2,3,0,4,1,5,H-,0,3,1,0,1000,250.0,0,C06WL,25,train
801.0470867156982,2,3,0,4,1,5,H-,1,4,3,0,1000,250.0,4,C06WL,26,train
720.6809520721436,2,3,0,4,1,5,H-,1,4,3,0,1000,250.0,4,C06WL,27,train
977.0979881286621,2,3,0,4,1,5,H-,1,2,0,0,1000,250.0,2,C06WL,28,train
608.4370613098145,2,3,0,4,1,5,H-,1,0,2,0,1000,250.0,0,C06WL,29,train
673.0451583862305,2,3,0,4,1,5,H-,1,4,3,0,1000,250.0,4,C06WL,30,train
529.1690826416016,2,3,0,4,1,5,H-,1,2,0,0,1000,250.0,2,C06WL,31,train
496.99902534484863,2,3,0,4,1,5,H-,1,0,2,0,1000,250.0,0,C06WL,32,train
529.033899307251,2,3,0,4,1,5,H-,1,0,2,0,1000,250.0,0,C06WL,33,train
720.4248905181885,2,3,0,4,1,5,H-,1,4,3,0,1000,250.0,4,C06WL,34,train
689.0060901641846,2,3,0,4,1,5,H-,1,5,5,0,1000,250.0,5,C06WL,35,train
545.1669692993164,2,3,0,4,1,5,H-,1,5,5,0,1000,250.0,5,C06WL,36,train
560.9920024871826,2,3,0,4,1,5,H-,1,4,3,0,1000,250.0,4,C06WL,37,train
672.4090576171875,2,3,0,4,1,5,H-,1,0,2,0,1000,250.0,0,C06WL,38,train
672.6441383361816,2,3,0,4,1,5,H-,1,4,3,0,1000,250.0,4,C06WL,39,train
865.1721477508545,2,3,0,4,1,5,H-,1,3,1,0,1000,250.0,3,C06WL,40,train
736.4420890808105,2,3,0,4,1,5,H-,1,5,5,0,1000,250.0,5,C06WL,41,train
577.0969390869141,2,3,0,4,1,5,H-,1,0,2,0,1000,250.0,0,C06WL,42,train
1024.972915649414,2,3,0,4,1,5,H-,1,1,4,0,1000,250.0,1,C06WL,43,train
560.5950355529785,2,3,0,4,1,5,H-,1,5,5,0,1000,250.0,5,C06WL,44,train
657.1860313415527,2,3,0,4,1,5,H-,1,2,0,0,1000,250.0,2,C06WL,45,train
529.0029048919678,2,3,0,4,1,5,H-,1,0,2,0,1000,250.0,0,C06WL,46,train
833.0960273742676,2,3,0,4,1,5,H-,1,5,5,0,1000,250.0,5,C06WL,47,train
561.0339641571045,2,3,0,4,1,5,H-,1,5,5,0,1000,250.0,5,C06WL,48,train
832.6961994171143,2,3,0,4,1,5,H-,1,3,1,0,1000,250.0,3,C06WL,49,train
849.1148948669434,2,3,0,4,1,5,H-,1,1,4,0,1000,250.0,1,C06WL,50,train
656.757116317749,2,3,0,4,1,5,H-,1,4,3,0,1000,250.0,4,C06WL,51,train
641.0548686981201,2,3,0,4,1,5,H-,1,4,3,0,1000,250.0,4,C06WL,52,train
608.3519458770752,2,3,0,4,1,5,H-,1,5,5,0,1000,250.0,5,C06WL,53,train
848.7539291381836,2,3,0,4,1,5,H-,1,3,1,0,1000,250.0,3,C06WL,54,train
672.4071502685547,2,3,0,4,1,5,H-,1,1,4,0,1000,250.0,1,C06WL,55,train
670.5491542816162,2,3,0,4,1,5,H-,1,3,1,0,1000,250.0,3,C06WL,56,train
560.8251094818115,2,3,0,4,1,5,H-,1,3,1,0,1000,250.0,3,C06WL,57,train
561.0768795013428,2,3,0,4,1,5,H-,1,5,5,0,1000,250.0,5,C06WL,58,train
800.4539012908936,2,3,0,4,1,5,H-,1,2,0,0,1000,250.0,2,C06WL,59,train
464.85304832458496,2,3,0,4,1,5,H-,1,0,2,0,1000,250.0,0,C06WL,60,train
721.0831642150879,2,3,0,4,1,5,H-,1,4,3,0,1000,250.0,4,C06WL,61,train
848.2909202575684,2,3,0,4,1,5,H-,1,1,4,0,1000,250.0,1,C06WL,62,train
559.6969127655029,2,3,0,4,1,5,H-,1,1,4,0,1000,250.0,1,C06WL,63,train
464.8318290710449,2,3,0,4,1,5,H-,1,2,0,0,1000,250.0,2,C06WL,64,train
368.6511516571045,2,3,0,4,1,5,H-,1,0,2,0,1000,250.0,0,C06WL,65,train
608.2460880279541,2,3,0,4,1,5,H-,1,5,5,0,1000,250.0,5,C06WL,66,train
689.0280246734619,2,3,0,4,1,5,H-,1,1,4,0,1000,250.0,1,C06WL,67,train
624.6838569641113,2,3,0,4,1,5,H-,1,3,1,0,1000,250.0,3,C06WL,68,train
560.5378150939941,2,3,0,4,1,5,H-,1,0,2,0,1000,250.0,0,C06WL,69,train
480.9079170227051,2,3,0,4,1,5,H-,1,2,0,0,1000,250.0,2,C06WL,70,train
609.0788841247559,2,3,0,4,1,5,H-,1,4,3,0,1000,250.0,4,C06WL,71,train
415.25721549987793,2,3,0,4,1,5,H-,1,4,3,0,1000,250.0,4,C06WL,72,train
432.3160648345947,2,3,0,4,1,5,H-,1,4,3,0,1000,250.0,4,C06WL,73,train
528.6269187927246,2,3,0,4,1,5,H-,1,5,5,0,1000,250.0,5,C06WL,74,train
561.0511302947998,2,3,0,4,1,5,H-,1,2,0,0,1000,250.0,2,C06WL,75,train
1888.3070945739746,2,3,0,4,1,5,H-,1,4,3,0,1000,250.0,4,C06WL,76,train
752.3491382598877,2,3,0,4,1,5,H-,1,3,1,0,1000,250.0,3,C06WL,77,train
497.11012840270996,2,3,0,4,1,5,H-,1,3,1,0,1000,250.0,3,C06WL,78,train
626.0690689086914,2,3,0,4,1,5,H-,1,1,4,0,1000,250.0,1,C06WL,79,train
592.4060344696045,2,3,0,4,1,5,H-,1,0,2,0,1000,250.0,0,C06WL,80,train
432.6150417327881,2,3,0,4,1,5,H-,1,0,2,0,1000,250.0,0,C06WL,81,train
1342.7691459655762,2,3,0,4,1,5,H-,1,3,1,0,1000,250.0,3,C06WL,82,train
625.0510215759277,2,3,0,4,1,5,H-,1,4,3,0,1000,250.0,4,C06WL,83,train
448.70615005493164,2,3,0,4,1,5,H-,1,5,5,0,1000,250.0,5,C06WL,84,train
577.0730972290039,2,3,0,4,1,5,H-,1,1,4,0,1000,250.0,1,C06WL,85,train
529.1028022766113,2,3,0,4,1,5,H-,1,0,2,0,1000,250.0,0,C06WL,86,train
689.0358924865723,2,3,0,4,1,5,H-,1,3,1,0,1000,250.0,3,C06WL,87,train
448.7600326538086,2,3,0,4,1,5,H-,1,0,2,0,1000,250.0,0,C06WL,88,train
768.4979438781738,2,3,0,4,1,5,H-,1,4,3,0,1000,250.0,4,C06WL,89,train
736.7041110992432,2,3,0,4,1,5,H-,1,1,4,0,1000,250.0,1,C06WL,90,train
689.1250610351562,2,3,0,4,1,5,H-,0,3,1,0,1000,250.0,4,C06WL,91,train
591.9790267944336,2,3,0,4,1,5,H-,1,1,4,0,1000,250.0,1,C06WL,92,train
528.2871723175049,2,3,0,4,1,5,H-,1,5,5,0,1000,250.0,5,C06WL,93,train
528.9819240570068,2,3,0,4,1,5,H-,1,5,5,0,1000,250.0,5,C06WL,94,train
800.2159595489502,2,3,0,4,1,5,H-,1,4,3,0,1000,250.0,4,C06WL,95,train
481.0769557952881,2,3,0,4,1,5,H-,1,4,3,0,1000,250.0,4,C06WL,96,train
577.0208835601807,2,3,0,4,1,5,H-,1,0,2,0,1000,250.0,0,C06WL,97,train
752.3200511932373,2,3,0,4,1,5,H-,1,3,1,0,1000,250.0,3,C06WL,98,train
865.044116973877,2,3,0,4,1,5,H-,1,5,5,0,1000,250.0,5,C06WL,99,train
784.9080562591553,2,3,0,4,1,5,H-,1,4,3,0,1000,250.0,4,C06WL,100,train
1457.252025604248,2,3,0,4,1,5,H-,1,5,5,0,1000,250.0,5,C06WL,101,train
561.0840320587158,2,3,0,4,1,5,H-,1,0,2,0,1000,250.0,0,C06WL,102,train
1040.3850078582764,2,3,0,4,1,5,H-,1,2,0,0,1000,250.0,2,C06WL,103,train
640.449047088623,2,3,0,4,1,5,H-,1,4,3,0,1000,250.0,4,C06WL,104,train
512.5548839569092,2,3,0,4,1,5,H-,1,5,5,0,1000,250.0,5,C06WL,105,train
640.3741836547852,2,3,0,4,1,5,H-,1,5,5,0,1000,250.0,5,C06WL,106,train
640.6898498535156,2,3,0,4,1,5,H-,1,4,3,0,1000,250.0,4,C06WL,107,train
560.3749752044678,2,3,0,4,1,5,H-,1,4,3,0,1000,250.0,4,C06WL,108,train
464.9829864501953,2,3,0,4,1,5,H-,1,5,5,0,1000,250.0,5,C06WL,109,train
641.0388946533203,2,3,0,4,1,5,H-,1,1,4,0,1000,250.0,1,C06WL,110,train
544.9581146240234,2,3,0,4,1,5,H-,0,4,3,0,1000,250.0,5,C06WL,111,train
736.7148399353027,2,3,0,4,1,5,H-,1,0,2,0,1000,250.0,0,C06WL,112,train
638.7019157409668,2,3,0,4,1,5,H-,1,5,5,0,1000,250.0,5,C06WL,113,train
448.64487648010254,2,3,0,4,1,5,H-,1,5,5,0,1000,250.0,5,C06WL,114,train
576.6019821166992,2,3,0,4,1,5,H-,1,0,2,0,1000,250.0,0,C06WL,115,train
752.3889541625977,2,3,0,4,1,5,H-,1,2,0,0,1000,250.0,2,C06WL,116,train
737.0469570159912,2,3,0,4,1,5,H-,1,3,1,0,1000,250.0,3,C06WL,117,train
448.7109184265137,2,3,0,4,1,5,H-,1,5,5,0,1000,250.0,5,C06WL,118,train
512.6128196716309,2,3,0,4,1,5,H-,1,0,2,0,1000,250.0,0,C06WL,119,train
464.62392807006836,2,3,0,4,1,5,H-,1,2,0,0,1000,250.0,2,C06WL,120,train
577.0688056945801,2,3,0,4,1,5,H-,1,5,5,0,1000,250.0,5,C06WL,121,train
513.0751132965088,2,3,0,4,1,5,H-,1,0,2,0,1000,250.0,0,C06WL,122,train
689.1138553619385,2,3,0,4,1,5,H-,1,3,1,0,1000,250.0,3,C06WL,123,train
689.0411376953125,2,3,0,4,1,5,H-,1,4,3,0,1000,250.0,4,C06WL,124,train
625.0121593475342,2,3,0,4,1,5,H-,1,4,3,0,1000,250.0,4,C06WL,125,train
656.7199230194092,2,3,0,4,1,5,H-,1,1,4,0,1000,250.0,1,C06WL,126,train
544.3809032440186,2,3,0,4,1,5,H-,1,0,2,0,1000,250.0,0,C06WL,127,train
688.6930465698242,2,3,0,4,1,5,H-,1,5,5,0,1000,250.0,5,C06WL,128,train
608.6430549621582,2,3,0,4,1,5,H-,1,1,4,0,1000,250.0,1,C06WL,129,train
753.0889511108398,2,3,0,4,1,5,H-,1,2,0,0,1000,250.0,2,C06WL,130,train
705.1301002502441,2,3,0,4,1,5,H-,1,5,5,0,1000,250.0,5,C06WL,131,train
592.3020839691162,2,3,0,4,1,5,H-,1,1,4,0,1000,250.0,1,C06WL,132,train
560.7130527496338,2,3,0,4,1,5,H-,1,5,5,0,1000,250.0,5,C06WL,133,train
494.9009418487549,2,3,0,4,1,5,H-,1,5,5,0,1000,250.0,5,C06WL,134,train
624.4981288909912,2,3,0,4,1,5,H-,1,3,1,0,1000,250.0,3,C06WL,135,train
545.0019836425781,2,3,0,4,1,5,H-,1,5,5,0,1000,250.0,5,C06WL,136,train
496.4911937713623,2,3,0,4,1,5,H-,1,3,1,0,1000,250.0,3,C06WL,137,train
752.7568340301514,2,3,0,4,1,5,H-,1,0,2,0,1000,250.0,0,C06WL,138,train
560.9900951385498,2,3,0,4,1,5,H-,1,0,2,0,1000,250.0,0,C06WL,139,train
576.7240524291992,2,3,0,4,1,5,H-,1,1,4,0,1000,250.0,1,C06WL,140,train
576.4551162719727,2,3,0,4,1,5,H-,1,0,2,0,1000,250.0,0,C06WL,141,train
462.62097358703613,2,3,0,4,1,5,H-,1,0,2,0,1000,250.0,0,C06WL,142,train
1137.1819972991943,2,3,0,4,1,5,H-,1,4,3,0,1000,250.0,4,C06WL,143,train
400.8769989013672,2,3,0,4,1,5,H-,1,4,3,0,1000,250.0,4,C06WL,144,train
544.8601245880127,2,3,0,4,1,5,H-,1,1,4,0,1000,250.0,1,C06WL,145,train
432.7130317687988,2,3,0,4,1,5,H-,1,0,2,0,1000,250.0,0,C06WL,146,train
433.75182151794434,2,3,0,4,1,5,H-,1,5,5,0,1000,250.0,5,C06WL,147,train
465.1050567626953,2,3,0,4,1,5,H-,1,5,5,0,1000,250.0,5,C06WL,148,train
1152.2870063781738,2,3,0,4,1,5,H-,1,3,1,0,1000,250.0,3,C06WL,149,train
576.7168998718262,2,3,0,4,1,5,H-,1,1,4,0,1000,250.0,1,C06WL,150,train
544.4519519805908,2,3,0,4,1,5,H-,1,0,2,0,1000,250.0,0,C06WL,151,train
401.033878326416,2,3,0,4,1,5,H-,1,0,2,0,1000,250.0,0,C06WL,152,train
560.4338645935059,2,3,0,4,1,5,H-,1,3,1,0,1000,250.0,3,C06WL,153,train
496.72603607177734,2,3,0,4,1,5,H-,1,0,2,0,1000,250.0,0,C06WL,154,train
401.63207054138184,2,3,0,4,1,5,H-,1,0,2,0,1000,250.0,0,C06WL,155,train
366.7428493499756,2,3,0,4,1,5,H-,1,0,2,0,1000,250.0,0,C06WL,156,train
606.9340705871582,2,3,0,4,1,5,H-,1,3,1,0,1000,250.0,3,C06WL,157,train
433.08115005493164,2,3,0,4,1,5,H-,1,3,1,0,1000,250.0,3,C06WL,158,train
529.0920734405518,2,3,0,4,1,5,H-,1,4,3,0,1000,250.0,4,C06WL,159,train
336.5001678466797,2,3,0,4,1,5,H-,1,5,5,0,1000,250.0,5,C06WL,160,train
433.11500549316406,2,3,0,4,1,5,H-,0,2,0,0,1000,250.0,1,C06WL,161,train
544.3830490112305,2,3,0,4,1,5,H-,1,2,0,0,1000,250.0,2,C06WL,162,train
545.058012008667,2,3,0,4,1,5,H-,1,1,4,0,1000,250.0,1,C06WL,163,train
433.0418109893799,2,3,0,4,1,5,H-,1,2,0,0,1000,250.0,2,C06WL,164,train
464.4489288330078,2,3,0,4,1,5,H-,1,0,2,0,1000,250.0,0,C06WL,165,train
528.7120342254639,2,3,0,4,1,5,H-,1,5,5,0,1000,250.0,5,C06WL,166,train
577.847957611084,2,3,0,4,1,5,H-,0,1,4,0,1000,250.0,2,C06WL,167,train
432.6751232147217,2,3,0,4,1,5,H-,1,0,2,0,1000,250.0,0,C06WL,168,train
688.9421939849854,2,3,0,4,1,5,H-,1,4,3,0,1000,250.0,4,C06WL,169,train
496.27089500427246,2,3,0,4,1,5,H-,1,0,2,0,1000,250.0,0,C06WL,170,train
528.8870334625244,2,3,0,4,1,5,H-,1,3,1,0,1000,250.0,3,C06WL,171,train
446.6278553009033,2,3,0,4,1,5,H-,1,3,1,0,1000,250.0,3,C06WL,172,train
560.8830451965332,2,3,0,4,1,5,H-,1,4,3,0,1000,250.0,4,C06WL,173,train
593.1110382080078,2,3,0,4,1,5,H-,1,2,0,0,1000,250.0,2,C06WL,174,train
496.98495864868164,2,3,0,4,1,5,H-,1,1,4,0,1000,250.0,1,C06WL,175,train
497.0550537109375,2,3,0,4,1,5,H-,1,2,0,0,1000,250.0,2,C06WL,176,train
528.7251472473145,2,3,0,4,1,5,H-,1,1,4,0,1000,250.0,1,C06WL,177,train
561.0229969024658,2,3,0,4,1,5,H-,1,1,4,0,1000,250.0,1,C06WL,178,train
576.2619972229004,2,3,0,4,1,5,H-,1,2,0,0,1000,250.0,2,C06WL,179,train
432.40904808044434,2,3,0,4,1,5,H-,1,1,4,0,1000,250.0,1,C06WL,180,train
400.3779888153076,2,3,0,4,1,5,H-,1,1,4,0,1000,250.0,1,C06WL,181,train
496.97399139404297,2,3,0,4,1,5,H-,1,2,0,0,1000,250.0,2,C06WL,182,train
432.5110912322998,2,3,0,4,1,5,H-,1,2,0,0,1000,250.0,2,C06WL,183,train
561.0668659210205,2,3,0,4,1,5,H-,1,0,2,0,1000,250.0,0,C06WL,184,train
657.0010185241699,2,3,0,4,1,5,H-,1,5,5,0,1000,250.0,5,C06WL,185,train
368.60084533691406,2,3,0,4,1,5,H-,1,4,3,0,1000,250.0,4,C06WL,186,train
929.0909767150879,2,3,0,4,1,5,H-,1,2,0,0,1000,250.0,2,C06WL,187,train
417.06109046936035,2,3,0,4,1,5,H-,1,1,4,0,1000,250.0,1,C06WL,188,train
448.98486137390137,2,3,0,4,1,5,H-,1,3,1,0,1000,250.0,3,C06WL,189,train
480.543851852417,2,3,0,4,1,5,H-,1,4,3,0,1000,250.0,4,C06WL,190,train
544.9140071868896,2,3,0,4,1,5,H-,1,1,4,0,1000,250.0,1,C06WL,191,train
528.6941528320312,2,3,0,4,1,5,H-,1,3,1,0,1000,250.0,3,C06WL,192,train
513.0789279937744,2,3,0,4,1,5,H-,1,2,0,0,1000,250.0,2,C06WL,193,train
480.3049564361572,2,3,0,4,1,5,H-,1,0,2,0,1000,250.0,0,C06WL,194,train
512.976884841919,2,3,0,4,1,5,H-,1,1,4,0,1000,250.0,1,C06WL,195,train
384.99903678894043,2,3,0,4,1,5,H-,1,1,4,0,1000,250.0,1,C06WL,196,train
400.5169868469238,2,3,0,4,1,5,H-,1,1,4,0,1000,250.0,1,C06WL,197,train
496.4921474456787,2,3,0,4,1,5,H-,1,3,1,0,1000,250.0,3,C06WL,198,train
656.8140983581543,2,3,0,4,1,5,H-,1,2,0,0,1000,250.0,2,C06WL,199,train
561.0740184783936,2,3,0,4,1,5,H-,1,3,1,0,1000,250.0,3,C06WL,200,train
369.14801597595215,2,3,0,4,1,5,H-,1,4,3,0,1000,250.0,4,C06WL,201,train
560.4000091552734,2,3,0,4,1,5,H-,1,0,2,0,1000,250.0,0,C06WL,202,train
656.574010848999,2,3,0,4,1,5,H-,1,3,1,0,1000,250.0,3,C06WL,203,train
481.7981719970703,2,3,0,4,1,5,H-,1,2,0,0,1000,250.0,2,C06WL,204,train
560.2171421051025,2,3,0,4,1,5,H-,1,0,2,0,1000,250.0,0,C06WL,205,train
529.029130935669,2,3,0,4,1,5,H-,1,1,4,0,1000,250.0,1,C06WL,206,train
510.49089431762695,2,3,0,4,1,5,H-,1,5,5,0,1000,250.0,5,C06WL,207,train
512.8240585327148,2,3,0,4,1,5,H-,1,3,1,0,1000,250.0,3,C06WL,208,train
896.6200351715088,2,3,0,4,1,5,H-,1,0,2,0,1000,250.0,0,C06WL,209,train
432.94405937194824,2,3,0,4,1,5,H-,1,0,2,0,1000,250.0,0,C06WL,210,train
561.1250400543213,2,3,0,4,1,5,H-,1,5,5,0,1000,250.0,5,C06WL,211,train
528.8369655609131,2,3,0,4,1,5,H-,1,4,3,0,1000,250.0,4,C06WL,212,train
545.0661182403564,2,3,0,4,1,5,H-,1,2,0,0,1000,250.0,2,C06WL,213,train
496.74105644226074,2,3,0,4,1,5,H-,1,5,5,0,1000,250.0,5,C06WL,214,train
496.9370365142822,2,3,0,4,1,5,H-,1,4,3,0,1000,250.0,4,C06WL,215,train
528.6078453063965,2,3,0,4,1,5,H-,1,0,2,0,1000,250.0,0,C06WL,216,train
465.1799201965332,2,3,0,4,1,5,H-,1,0,2,0,1000,250.0,0,C06WL,217,train
449.0480422973633,2,3,0,4,1,5,H-,1,0,2,0,1000,250.0,0,C06WL,218,train
512.455940246582,2,3,0,4,1,5,H-,1,3,1,0,1000,250.0,3,C06WL,219,train
608.6030006408691,2,3,0,4,1,5,H-,1,4,3,0,1000,250.0,4,C06WL,220,train
512.9449367523193,2,3,0,4,1,5,H-,1,5,5,0,1000,250.0,5,C06WL,221,train
656.684160232544,2,3,0,4,1,5,H-,1,1,4,0,1000,250.0,1,C06WL,222,train
512.8970146179199,2,3,0,4,1,5,H-,1,3,1,0,1000,250.0,3,C06WL,223,train
433.1331253051758,2,3,0,4,1,5,H-,1,4,3,0,1000,250.0,4,C06WL,224,train
497.01499938964844,2,3,0,4,1,5,H-,0,1,4,0,1000,250.0,0,C06WL,225,train
544.9368953704834,2,3,0,4,1,5,H-,1,3,1,0,1000,250.0,3,C06WL,226,train
448.7569332122803,2,3,0,4,1,5,H-,1,0,2,0,1000,250.0,0,C06WL,227,train
576.7519474029541,2,3,0,4,1,5,H-,1,3,1,0,1000,250.0,3,C06WL,228,train
480.67498207092285,2,3,0,4,1,5,H-,1,4,3,0,1000,250.0,4,C06WL,229,train
497.0228672027588,2,3,0,4,1,5,H-,1,3,1,0,1000,250.0,3,C06WL,230,train
608.7620258331299,2,3,0,4,1,5,H-,1,1,4,0,1000,250.0,1,C06WL,231,train
960.5879783630371,2,3,0,4,1,5,H-,1,4,3,0,1000,250.0,4,C06WL,232,train
608.6490154266357,2,3,0,4,1,5,H-,1,0,2,0,1000,250.0,0,C06WL,233,train
464.36214447021484,2,3,0,4,1,5,H-,1,0,2,0,1000,250.0,0,C06WL,234,train
640.711784362793,2,3,0,4,1,5,H-,1,5,5,0,1000,250.0,5,C06WL,235,train
513.0081176757812,2,3,0,4,1,5,H-,0,0,2,0,1000,250.0,3,C06WL,236,train
480.26084899902344,2,3,0,4,1,5,H-,1,0,2,0,1000,250.0,0,C06WL,237,train
511.54208183288574,2,3,0,4,1,5,H-,1,3,1,0,1000,250.0,3,C06WL,238,train
529.1280746459961,2,3,0,4,1,5,H-,1,5,5,0,1000,250.0,5,C06WL,239,train
544.9318885803223,2,3,0,4,1,5,H-,1,1,4,0,1000,250.0,1,C06WL,240,train
512.79616355896,2,3,0,4,1,5,H-,1,5,5,0,1000,250.0,5,C06WL,241,train
432.603120803833,2,3,0,4,1,5,H-,1,5,5,0,1000,250.0,5,C06WL,242,train
544.7440147399902,2,3,0,4,1,5,H-,1,0,2,0,1000,250.0,0,C06WL,243,train
593.0759906768799,2,3,0,4,1,5,H-,1,2,0,0,1000,250.0,2,C06WL,244,train
497.01499938964844,2,3,0,4,1,5,H-,1,1,4,0,1000,250.0,1,C06WL,245,train
624.9849796295166,2,3,0,4,1,5,H-,1,5,5,0,1000,250.0,5,C06WL,246,train
448.8959312438965,2,3,0,4,1,5,H-,1,4,3,0,1000,250.0,4,C06WL,247,train
624.6140003204346,2,3,0,4,1,5,H-,1,5,5,0,1000,250.0,5,C06WL,248,train
496.614933013916,2,3,0,4,1,5,H-,1,4,3,0,1000,250.0,4,C06WL,249,train
880.3050518035889,0,4,3,5,2,1,H-,0,1,5,0,1000,250.0,5,C06WL,250,test
560.4910850524902,0,4,3,5,2,1,H-,1,1,5,0,1000,250.0,1,C06WL,251,test
1296.746015548706,0,4,3,5,2,1,H-,1,3,2,0,1000,250.0,3,C06WL,252,test
782.6130390167236,0,4,3,5,2,1,H-,1,3,2,0,1000,250.0,3,C06WL,253,test
832.8437805175781,0,4,3,5,2,1,H-,1,4,1,0,1000,250.0,4,C06WL,254,test
480.27920722961426,0,4,3,5,2,1,H-,1,5,3,0,1000,250.0,5,C06WL,255,test
929.0518760681152,0,4,3,5,2,1,H-,1,3,2,0,1000,250.0,3,C06WL,256,test
736.6080284118652,0,4,3,5,2,1,H-,0,1,5,0,1000,250.0,5,C06WL,257,test
1200.364112854004,0,4,3,5,2,1,H-,1,4,1,0,1000,250.0,4,C06WL,258,test
1505.0671100616455,0,4,3,5,2,1,H-,0,2,4,0,1000,250.0,3,C06WL,259,test
1072.9119777679443,0,4,3,5,2,1,H-,1,4,1,0,1000,250.0,4,C06WL,260,test
465.1310443878174,0,4,3,5,2,1,H-,1,0,0,0,1000,250.0,0,C06WL,261,test
1056.6141605377197,0,4,3,5,2,1,H-,1,3,2,0,1000,250.0,3,C06WL,262,test
993.1139945983887,0,4,3,5,2,1,H-,1,4,1,0,1000,250.0,4,C06WL,263,test
1393.0399417877197,0,4,3,5,2,1,H-,1,4,1,0,1000,250.0,4,C06WL,264,test
800.9400367736816,0,4,3,5,2,1,H-,1,0,0,0,1000,250.0,0,C06WL,265,test
865.0171756744385,0,4,3,5,2,1,H-,0,4,1,0,1000,250.0,2,C06WL,266,test
864.7129535675049,0,4,3,5,2,1,H-,1,3,2,0,1000,250.0,3,C06WL,267,test
656.548023223877,0,4,3,5,2,1,H-,1,5,3,0,1000,250.0,5,C06WL,268,test
1488.5101318359375,0,4,3,5,2,1,H-,1,2,4,0,1000,250.0,2,C06WL,269,test
912.4221801757812,0,4,3,5,2,1,H-,1,1,5,0,1000,250.0,1,C06WL,270,test
524.8360633850098,0,4,3,5,2,1,H-,1,0,0,0,1000,250.0,0,C06WL,271,test
673.0620861053467,0,4,3,5,2,1,H-,1,2,4,0,1000,250.0,2,C06WL,272,test
512.2690200805664,0,4,3,5,2,1,H-,1,3,2,0,1000,250.0,3,C06WL,273,test
576.4038562774658,0,4,3,5,2,1,H-,1,3,2,0,1000,250.0,3,C06WL,274,test
560.8670711517334,0,4,3,5,2,1,H-,1,5,3,0,1000,250.0,5,C06WL,275,test
785.0561141967773,0,4,3,5,2,1,H-,1,0,0,0,1000,250.0,0,C06WL,276,test
448.40192794799805,0,4,3,5,2,1,H-,1,0,0,0,1000,250.0,0,C06WL,277,test
720.3600406646729,0,4,3,5,2,1,H-,1,3,2,0,1000,250.0,3,C06WL,278,test
656.4779281616211,0,4,3,5,2,1,H-,1,0,0,0,1000,250.0,0,C06WL,279,test
400.9530544281006,0,4,3,5,2,1,H-,1,1,5,0,1000,250.0,1,C06WL,280,test
561.0089302062988,0,4,3,5,2,1,H-,1,4,1,0,1000,250.0,4,C06WL,281,test
849.139928817749,0,4,3,5,2,1,H-,1,1,5,0,1000,250.0,1,C06WL,282,test
432.70111083984375,0,4,3,5,2,1,H-,1,1,5,0,1000,250.0,1,C06WL,283,test
719.9990749359131,0,4,3,5,2,1,H-,1,0,0,0,1000,250.0,0,C06WL,284,test
688.8909339904785,0,4,3,5,2,1,H-,1,3,2,0,1000,250.0,3,C06WL,285,test
624.845027923584,0,4,3,5,2,1,H-,1,5,3,0,1000,250.0,5,C06WL,286,test
673.163890838623,0,4,3,5,2,1,H-,1,0,0,0,1000,250.0,0,C06WL,287,test
624.8471736907959,0,4,3,5,2,1,H-,0,2,4,0,1000,250.0,1,C06WL,288,test
609.0099811553955,0,4,3,5,2,1,H-,1,5,3,0,1000,250.0,5,C06WL,289,test
720.4928398132324,0,4,3,5,2,1,H-,1,2,4,0,1000,250.0,2,C06WL,290,test
1055.1459789276123,0,4,3,5,2,1,H-,1,4,1,0,1000,250.0,4,C06WL,291,test
736.760139465332,0,4,3,5,2,1,H-,1,3,2,0,1000,250.0,3,C06WL,292,test
911.5281105041504,0,4,3,5,2,1,H-,1,1,5,0,1000,250.0,1,C06WL,293,test
592.8528308868408,0,4,3,5,2,1,H-,1,3,2,0,1000,250.0,3,C06WL,294,test
657.1938991546631,0,4,3,5,2,1,H-,1,1,5,0,1000,250.0,1,C06WL,295,test
528.5451412200928,0,4,3,5,2,1,H-,1,1,5,0,1000,250.0,1,C06WL,296,test
656.9130420684814,0,4,3,5,2,1,H-,1,3,2,0,1000,250.0,3,C06WL,297,test
769.5150375366211,0,4,3,5,2,1,H-,1,5,3,0,1000,250.0,5,C06WL,298,test
1201.0409832000732,0,4,3,5,2,1,H-,1,4,1,0,1000,250.0,4,C06WL,299,test
640.9389972686768,0,4,3,5,2,1,H-,1,0,0,0,1000,250.0,0,C06WL,300,test
432.6188564300537,0,4,3,5,2,1,H-,1,1,5,0,1000,250.0,1,C06WL,301,test
784.9609851837158,0,4,3,5,2,1,H-,1,2,4,0,1000,250.0,2,C06WL,302,test
769.1071033477783,0,4,3,5,2,1,H-,1,4,1,0,1000,250.0,4,C06WL,303,test
545.1679229736328,0,4,3,5,2,1,H-,1,4,1,0,1000,250.0,4,C06WL,304,test
560.3020191192627,0,4,3,5,2,1,H-,1,3,2,0,1000,250.0,3,C06WL,305,test
928.9770126342773,0,4,3,5,2,1,H-,1,2,4,0,1000,250.0,2,C06WL,306,test
431.44798278808594,0,4,3,5,2,1,H-,1,1,5,0,1000,250.0,1,C06WL,307,test
560.5490207672119,0,4,3,5,2,1,H-,1,5,3,0,1000,250.0,5,C06WL,308,test
704.6010494232178,0,4,3,5,2,1,H-,1,5,3,0,1000,250.0,5,C06WL,309,test
528.7289619445801,0,4,3,5,2,1,H-,1,4,1,0,1000,250.0,4,C06WL,310,test
608.9880466461182,0,4,3,5,2,1,H-,1,0,0,0,1000,250.0,0,C06WL,311,test
560.8539581298828,0,4,3,5,2,1,H-,0,4,1,0,1000,250.0,3,C06WL,312,test
448.99797439575195,0,4,3,5,2,1,H-,1,4,1,0,1000,250.0,4,C06WL,313,test
449.0840435028076,0,4,3,5,2,1,H-,1,4,1,0,1000,250.0,4,C06WL,314,test
592.886209487915,0,4,3,5,2,1,H-,0,1,5,0,1000,250.0,5,C06WL,315,test
496.88100814819336,0,4,3,5,2,1,H-,1,0,0,0,1000,250.0,0,C06WL,316,test
609.1558933258057,0,4,3,5,2,1,H-,1,0,0,0,1000,250.0,0,C06WL,317,test
607.8240871429443,0,4,3,5,2,1,H-,1,2,4,0,1000,250.0,2,C06WL,318,test
704.5879364013672,0,4,3,5,2,1,H-,1,5,3,0,1000,250.0,5,C06WL,319,test
464.9770259857178,0,4,3,5,2,1,H-,1,0,0,0,1000,250.0,0,C06WL,320,test
529.0858745574951,0,4,3,5,2,1,H-,1,5,3,0,1000,250.0,5,C06WL,321,test
768.3529853820801,0,4,3,5,2,1,H-,1,1,5,0,1000,250.0,1,C06WL,322,test
481.07194900512695,0,4,3,5,2,1,H-,1,3,2,0,1000,250.0,3,C06WL,323,test
496.8528747558594,0,4,3,5,2,1,H-,1,5,3,0,1000,250.0,5,C06WL,324,test
432.56187438964844,0,4,3,5,2,1,H-,1,4,1,0,1000,250.0,4,C06WL,325,test
464.9050235748291,0,4,3,5,2,1,H-,1,4,1,0,1000,250.0,4,C06WL,326,test
545.0079441070557,0,4,3,5,2,1,H-,1,5,3,0,1000,250.0,5,C06WL,327,test
545.3610420227051,0,4,3,5,2,1,H-,1,2,4,0,1000,250.0,2,C06WL,328,test
464.39099311828613,0,4,3,5,2,1,H-,1,2,4,0,1000,250.0,2,C06WL,329,test
369.0381050109863,0,4,3,5,2,1,H-,1,1,5,0,1000,250.0,1,C06WL,330,test
720.8898067474365,0,4,3,5,2,1,H-,1,4,1,0,1000,250.0,4,C06WL,331,test
576.9970417022705,0,4,3,5,2,1,H-,1,3,2,0,1000,250.0,3,C06WL,332,test
464.9538993835449,0,4,3,5,2,1,H-,1,3,2,0,1000,250.0,3,C06WL,333,test
736.7050647735596,0,4,3,5,2,1,H-,1,1,5,0,1000,250.0,1,C06WL,334,test
370.3751564025879,0,4,3,5,2,1,H-,1,1,5,0,1000,250.0,1,C06WL,335,test
465.05093574523926,0,4,3,5,2,1,H-,1,1,5,0,1000,250.0,1,C06WL,336,test
560.5089664459229,0,4,3,5,2,1,H-,1,0,0,0,1000,250.0,0,C06WL,337,test
368.8528537750244,0,4,3,5,2,1,H-,0,2,4,0,1000,250.0,0,C06WL,338,test
801.0909557342529,0,4,3,5,2,1,H-,1,4,1,0,1000,250.0,4,C06WL,339,test
369.15111541748047,0,4,3,5,2,1,H-,1,4,1,0,1000,250.0,4,C06WL,340,test
736.7639541625977,0,4,3,5,2,1,H-,1,3,2,0,1000,250.0,3,C06WL,341,test
576.6370296478271,0,4,3,5,2,1,H-,1,0,0,0,1000,250.0,0,C06WL,342,test
545.0279712677002,0,4,3,5,2,1,H-,1,3,2,0,1000,250.0,3,C06WL,343,test
656.3379764556885,0,4,3,5,2,1,H-,1,5,3,0,1000,250.0,5,C06WL,344,test
545.0208187103271,0,4,3,5,2,1,H-,1,3,2,0,1000,250.0,3,C06WL,345,test
881.0601234436035,0,4,3,5,2,1,H-,1,2,4,0,1000,250.0,2,C06WL,346,test
496.8438148498535,0,4,3,5,2,1,H-,1,5,3,0,1000,250.0,5,C06WL,347,test
432.6338768005371,0,4,3,5,2,1,H-,1,5,3,0,1000,250.0,5,C06WL,348,test
706.0070037841797,0,4,3,5,2,1,H-,1,4,1,0,1000,250.0,4,C06WL,349,test
527.9879570007324,0,4,3,5,2,1,H-,1,4,1,0,1000,250.0,4,C06WL,350,test
544.4769859313965,0,4,3,5,2,1,H-,1,0,0,0,1000,250.0,0,C06WL,351,test
352.3578643798828,0,4,3,5,2,1,H-,1,0,0,0,1000,250.0,0,C06WL,352,test
512.9048824310303,0,4,3,5,2,1,H-,1,2,4,0,1000,250.0,2,C06WL,353,test
529.000997543335,0,4,3,5,2,1,H-,1,5,3,0,1000,250.0,5,C06WL,354,test
496.35887145996094,0,4,3,5,2,1,H-,1,1,5,0,1000,250.0,1,C06WL,355,test
480.9901714324951,0,4,3,5,2,1,H-,1,1,5,0,1000,250.0,1,C06WL,356,test
880.9299468994141,0,4,3,5,2,1,H-,1,4,1,0,1000,250.0,4,C06WL,357,test
528.6729335784912,0,4,3,5,2,1,H-,1,1,5,0,1000,250.0,1,C06WL,358,test
593.001127243042,0,4,3,5,2,1,H-,1,1,5,0,1000,250.0,1,C06WL,359,test
880.9821605682373,0,4,3,5,2,1,H-,1,4,1,0,1000,250.0,4,C06WL,360,test
496.6568946838379,0,4,3,5,2,1,H-,1,1,5,0,1000,250.0,1,C06WL,361,test
528.3901691436768,0,4,3,5,2,1,H-,1,2,4,0,1000,250.0,2,C06WL,362,test
881.0231685638428,0,4,3,5,2,1,H-,1,4,1,0,1000,250.0,4,C06WL,363,test
593.0349826812744,0,4,3,5,2,1,H-,1,5,3,0,1000,250.0,5,C06WL,364,test
608.5398197174072,0,4,3,5,2,1,H-,1,4,1,0,1000,250.0,4,C06WL,365,test
624.9880790710449,0,4,3,5,2,1,H-,0,0,0,0,1000,250.0,1,C06WL,366,test
560.9910488128662,0,4,3,5,2,1,H-,1,3,2,0,1000,250.0,3,C06WL,367,test
449.0160942077637,0,4,3,5,2,1,H-,1,5,3,0,1000,250.0,5,C06WL,368,test
624.7599124908447,0,4,3,5,2,1,H-,1,2,4,0,1000,250.0,2,C06WL,369,test
753.1218528747559,0,4,3,5,2,1,H-,1,0,0,0,1000,250.0,0,C06WL,370,test
624.5410442352295,0,4,3,5,2,1,H-,1,1,5,0,1000,250.0,1,C06WL,371,test
736.3090515136719,0,4,3,5,2,1,H-,1,4,1,0,1000,250.0,4,C06WL,372,test
497.7231025695801,0,4,3,5,2,1,H-,1,5,3,0,1000,250.0,5,C06WL,373,test
864.5188808441162,0,4,3,5,2,1,H-,1,2,4,0,1000,250.0,2,C06WL,374,test
528.5680294036865,0,4,3,5,2,1,H-,1,1,5,0,1000,250.0,1,C06WL,375,test
448.89211654663086,0,4,3,5,2,1,H-,1,0,0,0,1000,250.0,0,C06WL,376,test
640.779972076416,0,4,3,5,2,1,H-,1,4,1,0,1000,250.0,4,C06WL,377,test
496.5388774871826,0,4,3,5,2,1,H-,1,5,3,0,1000,250.0,5,C06WL,378,test
545.1540946960449,0,4,3,5,2,1,H-,1,3,2,0,1000,250.0,3,C06WL,379,test
481.0788631439209,0,4,3,5,2,1,H-,1,5,3,0,1000,250.0,5,C06WL,380,test
530.163049697876,0,4,3,5,2,1,H-,1,3,2,0,1000,250.0,3,C06WL,381,test
545.0990200042725,0,4,3,5,2,1,H-,1,5,3,0,1000,250.0,5,C06WL,382,test
544.3971157073975,0,4,3,5,2,1,H-,1,0,0,0,1000,250.0,0,C06WL,383,test
624.7498989105225,0,4,3,5,2,1,H-,1,2,4,0,1000,250.0,2,C06WL,384,test
1120.9759712219238,0,4,3,5,2,1,H-,1,4,1,0,1000,250.0,4,C06WL,385,test
592.724084854126,0,4,3,5,2,1,H-,1,2,4,0,1000,250.0,2,C06WL,386,test
608.7188720703125,0,4,3,5,2,1,H-,1,3,2,0,1000,250.0,3,C06WL,387,test
592.9028987884521,0,4,3,5,2,1,H-,0,1,5,0,1000,250.0,5,C06WL,388,test
512.2990608215332,0,4,3,5,2,1,H-,1,1,5,0,1000,250.0,1,C06WL,389,test
512.9299163818359,0,4,3,5,2,1,H-,1,1,5,0,1000,250.0,1,C06WL,390,test
512.8710269927979,0,4,3,5,2,1,H-,1,2,4,0,1000,250.0,2,C06WL,391,test
480.9000492095947,0,4,3,5,2,1,H-,1,3,2,0,1000,250.0,3,C06WL,392,test
497.0529079437256,0,4,3,5,2,1,H-,0,1,5,0,1000,250.0,2,C06WL,393,test
320.9700584411621,0,4,3,5,2,1,H-,1,1,5,0,1000,250.0,1,C06WL,394,test
592.5312042236328,0,4,3,5,2,1,H-,1,0,0,0,1000,250.0,0,C06WL,395,test
544.4369316101074,0,4,3,5,2,1,H-,1,1,5,0,1000,250.0,1,C06WL,396,test
688.9529228210449,0,4,3,5,2,1,H-,1,4,1,0,1000,250.0,4,C06WL,397,test
401.02291107177734,0,4,3,5,2,1,H-,1,4,1,0,1000,250.0,4,C06WL,398,test
448.7760066986084,0,4,3,5,2,1,H-,1,5,3,0,1000,250.0,5,C06WL,399,test
768.7358856201172,0,4,3,5,2,1,H-,1,1,5,0,1000,250.0,1,C06WL,400,test
385.0100040435791,0,4,3,5,2,1,H-,1,1,5,0,1000,250.0,1,C06WL,401,test
480.27896881103516,0,4,3,5,2,1,H-,1,2,4,0,1000,250.0,2,C06WL,402,test
528.9030075073242,0,4,3,5,2,1,H-,1,3,2,0,1000,250.0,3,C06WL,403,test
481.5380573272705,0,4,3,5,2,1,H-,1,3,2,0,1000,250.0,3,C06WL,404,test
591.4750099182129,0,4,3,5,2,1,H-,1,2,4,0,1000,250.0,2,C06WL,405,test
721.1170196533203,0,4,3,5,2,1,H-,1,1,5,0,1000,250.0,1,C06WL,406,test
448.95386695861816,0,4,3,5,2,1,H-,1,1,5,0,1000,250.0,1,C06WL,407,test
592.9460525512695,0,4,3,5,2,1,H-,1,5,3,0,1000,250.0,5,C06WL,408,test
416.97096824645996,0,4,3,5,2,1,H-,1,5,3,0,1000,250.0,5,C06WL,409,test
784.6248149871826,0,4,3,5,2,1,H-,1,4,1,0,1000,250.0,4,C06WL,410,test
368.300199508667,0,4,3,5,2,1,H-,1,4,1,0,1000,250.0,4,C06WL,411,test
849.0240573883057,0,4,3,5,2,1,H-,1,5,3,0,1000,250.0,5,C06WL,412,test
512.9928588867188,0,4,3,5,2,1,H-,1,4,1,0,1000,250.0,4,C06WL,413,test
544.3029403686523,0,4,3,5,2,1,H-,1,3,2,0,1000,250.0,3,C06WL,414,test
528.9850234985352,0,4,3,5,2,1,H-,1,3,2,0,1000,250.0,3,C06WL,415,test
432.8341484069824,0,4,3,5,2,1,H-,1,3,2,0,1000,250.0,3,C06WL,416,test
545.0789928436279,0,4,3,5,2,1,H-,0,0,0,0,1000,250.0,1,C06WL,417,test
641.042947769165,0,4,3,5,2,1,H-,1,1,5,0,1000,250.0,1,C06WL,418,test
690.093994140625,0,4,3,5,2,1,H-,1,2,4,0,1000,250.0,2,C06WL,419,test
561.1040592193604,0,4,3,5,2,1,H-,1,3,2,0,1000,250.0,3,C06WL,420,test
608.748197555542,0,4,3,5,2,1,H-,1,0,0,0,1000,250.0,0,C06WL,421,test
912.9879474639893,0,4,3,5,2,1,H-,1,4,1,0,1000,250.0,4,C06WL,422,test
577.1160125732422,0,4,3,5,2,1,H-,1,1,5,0,1000,250.0,1,C06WL,423,test
496.75798416137695,0,4,3,5,2,1,H-,1,3,2,0,1000,250.0,3,C06WL,424,test
656.5859317779541,0,4,3,5,2,1,H-,1,4,1,0,1000,250.0,4,C06WL,425,test
529.1550159454346,0,4,3,5,2,1,H-,1,5,3,0,1000,250.0,5,C06WL,426,test
464.94317054748535,0,4,3,5,2,1,H-,1,4,1,0,1000,250.0,4,C06WL,427,test
496.88100814819336,0,4,3,5,2,1,H-,1,2,4,0,1000,250.0,2,C06WL,428,test
496.5989589691162,0,4,3,5,2,1,H-,0,4,1,0,1000,250.0,3,C06WL,429,test
448.95005226135254,0,4,3,5,2,1,H-,1,5,3,0,1000,250.0,5,C06WL,430,test
640.8660411834717,0,4,3,5,2,1,H-,1,4,1,0,1000,250.0,4,C06WL,431,test
529.0617942810059,0,4,3,5,2,1,H-,1,2,4,0,1000,250.0,2,C06WL,432,test
528.1939506530762,0,4,3,5,2,1,H-,1,3,2,0,1000,250.0,3,C06WL,433,test
560.9619617462158,0,4,3,5,2,1,H-,1,2,4,0,1000,250.0,2,C06WL,434,test
720.8402156829834,0,4,3,5,2,1,H-,1,4,1,0,1000,250.0,4,C06WL,435,test
593.0521488189697,0,4,3,5,2,1,H-,1,5,3,0,1000,250.0,5,C06WL,436,test
544.9850559234619,0,4,3,5,2,1,H-,1,2,4,0,1000,250.0,2,C06WL,437,test
448.9290714263916,0,4,3,5,2,1,H-,1,1,5,0,1000,250.0,1,C06WL,438,test
561.0108375549316,0,4,3,5,2,1,H-,1,2,4,0,1000,250.0,2,C06WL,439,test
465.12699127197266,0,4,3,5,2,1,H-,1,3,2,0,1000,250.0,3,C06WL,440,test
432.35015869140625,0,4,3,5,2,1,H-,1,4,1,0,1000,250.0,4,C06WL,441,test
592.6418304443359,0,4,3,5,2,1,H-,1,0,0,0,1000,250.0,0,C06WL,442,test
400.9380340576172,0,4,3,5,2,1,H-,1,1,5,0,1000,250.0,1,C06WL,443,test
576.7261981964111,0,4,3,5,2,1,H-,1,0,0,0,1000,250.0,0,C06WL,444,test
527.3580551147461,0,4,3,5,2,1,H-,1,3,2,0,1000,250.0,3,C06WL,445,test
433.1669807434082,0,4,3,5,2,1,H-,1,4,1,0,1000,250.0,4,C06WL,446,test
464.65420722961426,0,4,3,5,2,1,H-,1,5,3,0,1000,250.0,5,C06WL,447,test
512.9439830780029,0,4,3,5,2,1,H-,1,3,2,0,1000,250.0,3,C06WL,448,test
561.0189437866211,0,4,3,5,2,1,H-,1,3,2,0,1000,250.0,3,C06WL,449,test
529.3130874633789,0,4,3,5,2,1,H-,1,5,3,0,1000,250.0,5,C06WL,450,test
433.38990211486816,0,4,3,5,2,1,H-,1,4,1,0,1000,250.0,4,C06WL,451,test
544.903039932251,0,4,3,5,2,1,H-,1,2,4,0,1000,250.0,2,C06WL,452,test
432.819128036499,0,4,3,5,2,1,H-,1,2,4,0,1000,250.0,2,C06WL,453,test
560.6300830841064,0,4,3,5,2,1,H-,1,4,1,0,1000,250.0,4,C06WL,454,test
560.7950687408447,0,4,3,5,2,1,H-,1,2,4,0,1000,250.0,2,C06WL,455,test
624.9830722808838,0,4,3,5,2,1,H-,0,0,0,0,1000,250.0,2,C06WL,456,test
528.9840698242188,0,4,3,5,2,1,H-,1,5,3,0,1000,250.0,5,C06WL,457,test
736.9899749755859,0,4,3,5,2,1,H-,1,5,3,0,1000,250.0,5,C06WL,458,test
593.0421352386475,0,4,3,5,2,1,H-,1,4,1,0,1000,250.0,4,C06WL,459,test
607.4929237365723,0,4,3,5,2,1,H-,1,4,1,0,1000,250.0,4,C06WL,460,test
736.6390228271484,0,4,3,5,2,1,H-,1,5,3,0,1000,250.0,5,C06WL,461,test
543.4238910675049,0,4,3,5,2,1,H-,1,4,1,0,1000,250.0,4,C06WL,462,test
544.9650287628174,0,4,3,5,2,1,H-,1,3,2,0,1000,250.0,3,C06WL,463,test
896.7437744140625,0,4,3,5,2,1,H-,1,1,5,0,1000,250.0,1,C06WL,464,test
753.1938552856445,0,4,3,5,2,1,H-,1,4,1,0,1000,250.0,4,C06WL,465,test
560.9979629516602,0,4,3,5,2,1,H-,1,1,5,0,1000,250.0,1,C06WL,466,test
577.0249366760254,0,4,3,5,2,1,H-,1,5,3,0,1000,250.0,5,C06WL,467,test
672.8770732879639,0,4,3,5,2,1,H-,1,1,5,0,1000,250.0,1,C06WL,468,test
513.0620002746582,0,4,3,5,2,1,H-,1,3,2,0,1000,250.0,3,C06WL,469,test
704.7319412231445,0,4,3,5,2,1,H-,1,1,5,0,1000,250.0,1,C06WL,470,test
529.0930271148682,0,4,3,5,2,1,H-,1,3,2,0,1000,250.0,3,C06WL,471,test
528.9859771728516,0,4,3,5,2,1,H-,0,0,0,0,1000,250.0,1,C06WL,472,test
592.7681922912598,0,4,3,5,2,1,H-,1,3,2,0,1000,250.0,3,C06WL,473,test
545.4120635986328,0,4,3,5,2,1,H-,1,0,0,0,1000,250.0,0,C06WL,474,test
432.8749179840088,0,4,3,5,2,1,H-,1,1,5,0,1000,250.0,1,C06WL,475,test
624.9470710754395,0,4,3,5,2,1,H-,1,1,5,0,1000,250.0,1,C06WL,476,test
400.5711078643799,0,4,3,5,2,1,H-,1,1,5,0,1000,250.0,1,C06WL,477,test
384.9029541015625,0,4,3,5,2,1,H-,1,1,5,0,1000,250.0,1,C06WL,478,test
368.7729835510254,0,4,3,5,2,1,H-,1,1,5,0,1000,250.0,1,C06WL,479,test
545.098066329956,0,4,3,5,2,1,H-,1,2,4,0,1000,250.0,2,C06WL,480,test
593.0359363555908,0,4,3,5,2,1,H-,1,3,2,0,1000,250.0,3,C06WL,481,test
417.0229434967041,0,4,3,5,2,1,H-,1,3,2,0,1000,250.0,3,C06WL,482,test
688.8689994812012,0,4,3,5,2,1,H-,1,5,3,0,1000,250.0,5,C06WL,483,test
625.0569820404053,0,4,3,5,2,1,H-,1,2,4,0,1000,250.0,2,C06WL,484,test
992.9711818695068,0,4,3,5,2,1,H-,1,4,1,0,1000,250.0,4,C06WL,485,test
609.0641021728516,0,4,3,5,2,1,H-,1,0,0,0,1000,250.0,0,C06WL,486,test
528.980016708374,0,4,3,5,2,1,H-,1,3,2,0,1000,250.0,3,C06WL,487,test
496.8562126159668,0,4,3,5,2,1,H-,1,3,2,0,1000,250.0,3,C06WL,488,test
752.661943435669,0,4,3,5,2,1,H-,1,5,3,0,1000,250.0,5,C06WL,489,test
529.1290283203125,0,4,3,5,2,1,H-,1,2,4,0,1000,250.0,2,C06WL,490,test
512.9399299621582,0,4,3,5,2,1,H-,1,5,3,0,1000,250.0,5,C06WL,491,test
768.8958644866943,0,4,3,5,2,1,H-,1,1,5,0,1000,250.0,1,C06WL,492,test
686.568021774292,0,4,3,5,2,1,H-,1,5,3,0,1000,250.0,5,C06WL,493,test
720.9539413452148,0,4,3,5,2,1,H-,1,0,0,0,1000,250.0,0,C06WL,494,test
704.8969268798828,0,4,3,5,2,1,H-,1,4,1,0,1000,250.0,4,C06WL,495,test
592.7870273590088,0,4,3,5,2,1,H-,1,1,5,0,1000,250.0,1,C06WL,496,test
481.01091384887695,0,4,3,5,2,1,H-,1,2,4,0,1000,250.0,2,C06WL,497,test
464.25509452819824,0,4,3,5,2,1,H-,1,5,3,0,1000,250.0,5,C06WL,498,test
1185.0101947784424,0,4,3,5,2,1,H-,1,4,1,0,1000,250.0,4,C06WL,499,test
