RT,SRmap_0,SRmap_1,SRmap_2,SRmap_3,SRmap_4,SRmap_5,condition,correct,correct_response,curstim,ms-precue,ms-prestimblank,ntrials,response,subject,trial,type
5632.33494758606,5,4,2,0,1,3,H+,0,3,5,0,1000,250.0,5,e02jk,0,train
2032.383918762207,5,4,2,0,1,3,H+,1,0,3,0,1000,250.0,0,e02jk,1,train
2064.4938945770264,5,4,2,0,1,3,H+,0,5,0,0,1000,250.0,3,e02jk,2,train
3424.43585395813,5,4,2,0,1,3,H+,1,2,2,0,1000,250.0,2,e02jk,3,train
1104.490041732788,5,4,2,0,1,3,H+,1,5,0,0,1000,250.0,5,e02jk,4,train
2208.53590965271,5,4,2,0,1,3,H+,1,1,4,0,1000,250.0,1,e02jk,5,train
1248.5179901123047,5,4,2,0,1,3,H+,1,0,3,0,1000,250.0,0,e02jk,6,train
768.5890197753906,5,4,2,0,1,3,H+,1,5,0,0,1000,250.0,5,e02jk,7,train
1136.6338729858398,5,4,2,0,1,3,H+,1,4,1,0,1000,250.0,4,e02jk,8,train
848.6289978027344,5,4,2,0,1,3,H+,1,4,1,0,1000,250.0,4,e02jk,9,train
544.558048248291,5,4,2,0,1,3,H+,1,4,1,0,1000,250.0,4,e02jk,10,train
1072.6630687713623,5,4,2,0,1,3,H+,1,1,4,0,1000,250.0,1,e02jk,11,train
1808.661937713623,5,4,2,0,1,3,H+,1,2,2,0,1000,250.0,2,e02jk,12,train
720.6089496612549,5,4,2,0,1,3,H+,1,4,1,0,1000,250.0,4,e02jk,13,train
528.5811424255371,5,4,2,0,1,3,H+,1,4,1,0,1000,250.0,4,e02jk,14,train
608.5731983184814,5,4,2,0,1,3,H+,0,2,2,0,1000,250.0,1,e02jk,15,train
864.6068572998047,5,4,2,0,1,3,H+,0,1,4,0,1000,250.0,0,e02jk,16,train
1024.6498584747314,5,4,2,0,1,3,H+,0,5,0,0,1000,250.0,0,e02jk,17,train
816.5440559387207,5,4,2,0,1,3,H+,1,1,4,0,1000,250.0,1,e02jk,18,train
1088.56201171875,5,4,2,0,1,3,H+,1,5,0,0,1000,250.0,5,e02jk,19,train
816.605806350708,5,4,2,0,1,3,H+,1,2,2,0,1000,250.0,2,e02jk,20,train
752.5680065155029,5,4,2,0,1,3,H+,1,4,1,0,1000,250.0,4,e02jk,21,train
1920.6199645996094,5,4,2,0,1,3,H+,0,3,5,0,1000,250.0,2,e02jk,22,train
928.6141395568848,5,4,2,0,1,3,H+,1,3,5,0,1000,250.0,3,e02jk,23,train
944.5750713348389,5,4,2,0,1,3,H+,1,5,0,0,1000,250.0,5,e02jk,24,train
1040.5941009521484,5,4,2,0,1,3,H+,1,3,5,0,1000,250.0,3,e02jk,25,train
800.6191253662109,5,4,2,0,1,3,H+,1,4,1,0,1000,250.0,4,e02jk,26,train
624.4838237762451,5,4,2,0,1,3,H+,1,4,1,0,1000,250.0,4,e02jk,27,train
480.5769920349121,5,4,2,0,1,3,H+,1,4,1,0,1000,250.0,4,e02jk,28,train
2096.6150760650635,5,4,2,0,1,3,H+,1,4,1,0,1000,250.0,4,e02jk,29,train
544.5380210876465,5,4,2,0,1,3,H+,1,4,1,0,1000,250.0,4,e02jk,30,train
992.6700592041016,5,4,2,0,1,3,H+,1,0,3,0,1000,250.0,0,e02jk,31,train
912.5537872314453,5,4,2,0,1,3,H+,1,2,2,0,1000,250.0,2,e02jk,32,train
640.5510902404785,5,4,2,0,1,3,H+,1,4,1,0,1000,250.0,4,e02jk,33,train
816.5490627288818,5,4,2,0,1,3,H+,1,3,5,0,1000,250.0,3,e02jk,34,train
608.5758209228516,5,4,2,0,1,3,H+,1,0,3,0,1000,250.0,0,e02jk,35,train
512.6488208770752,5,4,2,0,1,3,H+,1,4,1,0,1000,250.0,4,e02jk,36,train
720.4499244689941,5,4,2,0,1,3,H+,1,5,0,0,1000,250.0,5,e02jk,37,train
592.465877532959,5,4,2,0,1,3,H+,1,0,3,0,1000,250.0,0,e02jk,38,train
592.5171375274658,5,4,2,0,1,3,H+,1,0,3,0,1000,250.0,0,e02jk,39,train
560.4920387268066,5,4,2,0,1,3,H+,0,2,2,0,1000,250.0,4,e02jk,40,train
640.6190395355225,5,4,2,0,1,3,H+,1,0,3,0,1000,250.0,0,e02jk,41,train
624.4978904724121,5,4,2,0,1,3,H+,1,5,0,0,1000,250.0,5,e02jk,42,train
544.4600582122803,5,4,2,0,1,3,H+,1,0,3,0,1000,250.0,0,e02jk,43,train
672.5120544433594,5,4,2,0,1,3,H+,1,2,2,0,1000,250.0,2,e02jk,44,train
544.4917678833008,5,4,2,0,1,3,H+,1,0,3,0,1000,250.0,0,e02jk,45,train
448.22001457214355,5,4,2,0,1,3,H+,1,0,3,0,1000,250.0,0,e02jk,46,train
736.5288734436035,5,4,2,0,1,3,H+,1,5,0,0,1000,250.0,5,e02jk,47,train
736.5660667419434,5,4,2,0,1,3,H+,1,3,5,0,1000,250.0,3,e02jk,48,train
608.6299419403076,5,4,2,0,1,3,H+,0,2,2,0,1000,250.0,1,e02jk,49,train
656.6410064697266,5,4,2,0,1,3,H+,1,4,1,0,1000,250.0,4,e02jk,50,train
608.5498332977295,5,4,2,0,1,3,H+,1,1,4,0,1000,250.0,1,e02jk,51,train
576.4451026916504,5,4,2,0,1,3,H+,1,0,3,0,1000,250.0,0,e02jk,52,train
656.4760208129883,5,4,2,0,1,3,H+,1,5,0,0,1000,250.0,5,e02jk,53,train
576.5471458435059,5,4,2,0,1,3,H+,1,1,4,0,1000,250.0,1,e02jk,54,train
704.5049667358398,5,4,2,0,1,3,H+,1,4,1,0,1000,250.0,4,e02jk,55,train
656.4838886260986,5,4,2,0,1,3,H+,1,2,2,0,1000,250.0,2,e02jk,56,train
736.487865447998,5,4,2,0,1,3,H+,1,3,5,0,1000,250.0,3,e02jk,57,train
672.4820137023926,5,4,2,0,1,3,H+,1,5,0,0,1000,250.0,5,e02jk,58,train
704.6971321105957,5,4,2,0,1,3,H+,0,4,1,0,1000,250.0,5,e02jk,59,train
624.6399879455566,5,4,2,0,1,3,H+,1,1,4,0,1000,250.0,1,e02jk,60,train
608.6208820343018,5,4,2,0,1,3,H+,1,5,0,0,1000,250.0,5,e02jk,61,train
576.5860080718994,5,4,2,0,1,3,H+,1,1,4,0,1000,250.0,1,e02jk,62,train
592.5910472869873,5,4,2,0,1,3,H+,1,4,1,0,1000,250.0,4,e02jk,63,train
480.67307472229004,5,4,2,0,1,3,H+,1,4,1,0,1000,250.0,4,e02jk,64,train
496.6440200805664,5,4,2,0,1,3,H+,1,4,1,0,1000,250.0,4,e02jk,65,train
688.6658668518066,5,4,2,0,1,3,H+,0,0,3,0,1000,250.0,3,e02jk,66,train
432.19780921936035,5,4,2,0,1,3,H+,1,0,3,0,1000,250.0,0,e02jk,67,train
576.4980316162109,5,4,2,0,1,3,H+,0,2,2,0,1000,250.0,1,e02jk,68,train
704.6310901641846,5,4,2,0,1,3,H+,0,1,4,0,1000,250.0,0,e02jk,69,train
1104.6249866485596,5,4,2,0,1,3,H+,1,4,1,0,1000,250.0,4,e02jk,70,train
928.7068843841553,5,4,2,0,1,3,H+,1,3,5,0,1000,250.0,3,e02jk,71,train
560.6698989868164,5,4,2,0,1,3,H+,1,3,5,0,1000,250.0,3,e02jk,72,train
688.7080669403076,5,4,2,0,1,3,H+,1,2,2,0,1000,250.0,2,e02jk,73,train
704.6010494232178,5,4,2,0,1,3,H+,1,0,3,0,1000,250.0,0,e02jk,74,train
688.6539459228516,5,4,2,0,1,3,H+,1,5,0,0,1000,250.0,5,e02jk,75,train
624.6788501739502,5,4,2,0,1,3,H+,1,5,0,0,1000,250.0,5,e02jk,76,train
592.656135559082,5,4,2,0,1,3,H+,1,1,4,0,1000,250.0,1,e02jk,77,train
640.6350135803223,5,4,2,0,1,3,H+,1,2,2,0,1000,250.0,2,e02jk,78,train
576.6720771789551,5,4,2,0,1,3,H+,1,1,4,0,1000,250.0,1,e02jk,79,train
464.6949768066406,5,4,2,0,1,3,H+,0,5,0,0,1000,250.0,3,e02jk,80,train
576.6129493713379,5,4,2,0,1,3,H+,1,4,1,0,1000,250.0,4,e02jk,81,train
672.637939453125,5,4,2,0,1,3,H+,1,0,3,0,1000,250.0,0,e02jk,82,train
736.691951751709,5,4,2,0,1,3,H+,1,5,0,0,1000,250.0,5,e02jk,83,train
672.6579666137695,5,4,2,0,1,3,H+,1,4,1,0,1000,250.0,4,e02jk,84,train
832.7279090881348,5,4,2,0,1,3,H+,1,5,0,0,1000,250.0,5,e02jk,85,train
560.6191158294678,5,4,2,0,1,3,H+,1,5,0,0,1000,250.0,5,e02jk,86,train
576.6370296478271,5,4,2,0,1,3,H+,1,1,4,0,1000,250.0,1,e02jk,87,train
560.6911182403564,5,4,2,0,1,3,H+,1,1,4,0,1000,250.0,1,e02jk,88,train
752.6159286499023,5,4,2,0,1,3,H+,0,2,2,0,1000,250.0,1,e02jk,89,train
656.5940380096436,5,4,2,0,1,3,H+,1,5,0,0,1000,250.0,5,e02jk,90,train
624.6321201324463,5,4,2,0,1,3,H+,1,1,4,0,1000,250.0,1,e02jk,91,train
624.1757869720459,5,4,2,0,1,3,H+,1,3,5,0,1000,250.0,3,e02jk,92,train
560.6908798217773,5,4,2,0,1,3,H+,1,3,5,0,1000,250.0,3,e02jk,93,train
496.6540336608887,5,4,2,0,1,3,H+,0,2,2,0,1000,250.0,1,e02jk,94,train
752.5351047515869,5,4,2,0,1,3,H+,1,5,0,0,1000,250.0,5,e02jk,95,train
608.7119579315186,5,4,2,0,1,3,H+,1,4,1,0,1000,250.0,4,e02jk,96,train
672.6539134979248,5,4,2,0,1,3,H+,1,2,2,0,1000,250.0,2,e02jk,97,train
720.6339836120605,5,4,2,0,1,3,H+,1,4,1,0,1000,250.0,4,e02jk,98,train
608.6511611938477,5,4,2,0,1,3,H+,1,2,2,0,1000,250.0,2,e02jk,99,train
592.6570892333984,5,4,2,0,1,3,H+,1,4,1,0,1000,250.0,4,e02jk,100,train
704.6668529510498,5,4,2,0,1,3,H+,1,5,0,0,1000,250.0,5,e02jk,101,train
544.7001457214355,5,4,2,0,1,3,H+,1,2,2,0,1000,250.0,2,e02jk,102,train
608.6540222167969,5,4,2,0,1,3,H+,1,4,1,0,1000,250.0,4,e02jk,103,train
570.936918258667,5,4,2,0,1,3,H+,1,2,2,0,1000,250.0,2,e02jk,104,train
848.6781120300293,5,4,2,0,1,3,H+,1,0,3,0,1000,250.0,0,e02jk,105,train
640.6331062316895,5,4,2,0,1,3,H+,1,4,1,0,1000,250.0,4,e02jk,106,train
592.6640033721924,5,4,2,0,1,3,H+,1,2,2,0,1000,250.0,2,e02jk,107,train
576.6439437866211,5,4,2,0,1,3,H+,1,4,1,0,1000,250.0,4,e02jk,108,train
544.6529388427734,5,4,2,0,1,3,H+,1,3,5,0,1000,250.0,3,e02jk,109,train
496.5641498565674,5,4,2,0,1,3,H+,1,2,2,0,1000,250.0,2,e02jk,110,train
448.57096672058105,5,4,2,0,1,3,H+,1,2,2,0,1000,250.0,2,e02jk,111,train
560.5990886688232,5,4,2,0,1,3,H+,1,3,5,0,1000,250.0,3,e02jk,112,train
576.6329765319824,5,4,2,0,1,3,H+,1,4,1,0,1000,250.0,4,e02jk,113,train
480.6499481201172,5,4,2,0,1,3,H+,1,3,5,0,1000,250.0,3,e02jk,114,train
608.2758903503418,5,4,2,0,1,3,H+,1,1,4,0,1000,250.0,1,e02jk,115,train
464.6179676055908,5,4,2,0,1,3,H+,1,1,4,0,1000,250.0,1,e02jk,116,train
448.64702224731445,5,4,2,0,1,3,H+,1,1,4,0,1000,250.0,1,e02jk,117,train
560.6579780578613,5,4,2,0,1,3,H+,1,4,1,0,1000,250.0,4,e02jk,118,train
608.6080074310303,5,4,2,0,1,3,H+,1,1,4,0,1000,250.0,1,e02jk,119,train
592.5948619842529,5,4,2,0,1,3,H+,1,2,2,0,1000,250.0,2,e02jk,120,train
560.5940818786621,5,4,2,0,1,3,H+,1,0,3,0,1000,250.0,0,e02jk,121,train
576.6160488128662,5,4,2,0,1,3,H+,1,3,5,0,1000,250.0,3,e02jk,122,train
416.58806800842285,5,4,2,0,1,3,H+,1,3,5,0,1000,250.0,3,e02jk,123,train
480.63111305236816,5,4,2,0,1,3,H+,1,1,4,0,1000,250.0,1,e02jk,124,train
576.6689777374268,5,4,2,0,1,3,H+,1,4,1,0,1000,250.0,4,e02jk,125,train
560.6398582458496,5,4,2,0,1,3,H+,1,3,5,0,1000,250.0,3,e02jk,126,train
464.6790027618408,5,4,2,0,1,3,H+,1,1,4,0,1000,250.0,1,e02jk,127,train
522.4709510803223,5,4,2,0,1,3,H+,0,0,3,0,1000,250.0,3,e02jk,128,train
512.6211643218994,5,4,2,0,1,3,H+,1,3,5,0,1000,250.0,3,e02jk,129,train
496.66690826416016,5,4,2,0,1,3,H+,0,5,0,0,1000,250.0,1,e02jk,130,train
512.5958919525146,5,4,2,0,1,3,H+,1,0,3,0,1000,250.0,0,e02jk,131,train
800.806999206543,5,4,2,0,1,3,H+,1,2,2,0,1000,250.0,2,e02jk,132,train
592.4830436706543,5,4,2,0,1,3,H+,1,2,2,0,1000,250.0,2,e02jk,133,train
624.7200965881348,5,4,2,0,1,3,H+,1,1,4,0,1000,250.0,1,e02jk,134,train
848.5920429229736,5,4,2,0,1,3,H+,1,4,1,0,1000,250.0,4,e02jk,135,train
544.625997543335,5,4,2,0,1,3,H+,1,0,3,0,1000,250.0,0,e02jk,136,train
592.6299095153809,5,4,2,0,1,3,H+,1,5,0,0,1000,250.0,5,e02jk,137,train
624.669075012207,5,4,2,0,1,3,H+,1,5,0,0,1000,250.0,5,e02jk,138,train
560.6341361999512,5,4,2,0,1,3,H+,1,0,3,0,1000,250.0,0,e02jk,139,train
512.6399993896484,5,4,2,0,1,3,H+,1,1,4,0,1000,250.0,1,e02jk,140,train
544.6159839630127,5,4,2,0,1,3,H+,1,2,2,0,1000,250.0,2,e02jk,141,train
480.55505752563477,5,4,2,0,1,3,H+,1,0,3,0,1000,250.0,0,e02jk,142,train
640.7070159912109,5,4,2,0,1,3,H+,0,4,1,0,1000,250.0,5,e02jk,143,train
576.6129493713379,5,4,2,0,1,3,H+,1,2,2,0,1000,250.0,2,e02jk,144,train
528.6509990692139,5,4,2,0,1,3,H+,1,1,4,0,1000,250.0,1,e02jk,145,train
544.590950012207,5,4,2,0,1,3,H+,1,2,2,0,1000,250.0,2,e02jk,146,train
608.6928844451904,5,4,2,0,1,3,H+,1,4,1,0,1000,250.0,4,e02jk,147,train
592.6649570465088,5,4,2,0,1,3,H+,1,0,3,0,1000,250.0,0,e02jk,148,train
560.5249404907227,5,4,2,0,1,3,H+,1,0,3,0,1000,250.0,0,e02jk,149,train
640.6230926513672,5,4,2,0,1,3,H+,1,3,5,0,1000,250.0,3,e02jk,150,train
496.64998054504395,5,4,2,0,1,3,H+,1,0,3,0,1000,250.0,0,e02jk,151,train
576.6022205352783,5,4,2,0,1,3,H+,0,5,0,0,1000,250.0,3,e02jk,152,train
256.5429210662842,5,4,2,0,1,3,H+,1,5,0,0,1000,250.0,5,e02jk,153,train
464.66803550720215,5,4,2,0,1,3,H+,1,0,3,0,1000,250.0,0,e02jk,154,train
512.6290321350098,5,4,2,0,1,3,H+,1,0,3,0,1000,250.0,0,e02jk,155,train
656.6390991210938,5,4,2,0,1,3,H+,1,3,5,0,1000,250.0,3,e02jk,156,train
560.6751441955566,5,4,2,0,1,3,H+,1,3,5,0,1000,250.0,3,e02jk,157,train
496.63710594177246,5,4,2,0,1,3,H+,1,3,5,0,1000,250.0,3,e02jk,158,train
368.53981018066406,5,4,2,0,1,3,H+,1,3,5,0,1000,250.0,3,e02jk,159,train
624.6647834777832,5,4,2,0,1,3,H+,1,2,2,0,1000,250.0,2,e02jk,160,train
560.6448650360107,5,4,2,0,1,3,H+,1,1,4,0,1000,250.0,1,e02jk,161,train
416.60213470458984,5,4,2,0,1,3,H+,1,1,4,0,1000,250.0,1,e02jk,162,train
528.3322334289551,5,4,2,0,1,3,H+,1,3,5,0,1000,250.0,3,e02jk,163,train
368.61395835876465,5,4,2,0,1,3,H+,1,3,5,0,1000,250.0,3,e02jk,164,train
672.6438999176025,5,4,2,0,1,3,H+,1,5,0,0,1000,250.0,5,e02jk,165,train
496.57297134399414,5,4,2,0,1,3,H+,1,3,5,0,1000,250.0,3,e02jk,166,train
496.67906761169434,5,4,2,0,1,3,H+,1,3,5,0,1000,250.0,3,e02jk,167,train
416.6069030761719,5,4,2,0,1,3,H+,1,3,5,0,1000,250.0,3,e02jk,168,train
464.6580219268799,5,4,2,0,1,3,H+,1,5,0,0,1000,250.0,5,e02jk,169,train
528.5780429840088,5,4,2,0,1,3,H+,1,1,4,0,1000,250.0,1,e02jk,170,train
544.6140766143799,5,4,2,0,1,3,H+,1,0,3,0,1000,250.0,0,e02jk,171,train
592.6549434661865,5,4,2,0,1,3,H+,1,2,2,0,1000,250.0,2,e02jk,172,train
560.5850219726562,5,4,2,0,1,3,H+,1,2,2,0,1000,250.0,2,e02jk,173,train
592.6659107208252,5,4,2,0,1,3,H+,1,3,5,0,1000,250.0,3,e02jk,174,train
528.6619663238525,5,4,2,0,1,3,H+,1,3,5,0,1000,250.0,3,e02jk,175,train
528.6571979522705,5,4,2,0,1,3,H+,1,1,4,0,1000,250.0,1,e02jk,176,train
496.6390132904053,5,4,2,0,1,3,H+,1,2,2,0,1000,250.0,2,e02jk,177,train
512.3751163482666,5,4,2,0,1,3,H+,1,1,4,0,1000,250.0,1,e02jk,178,train
656.5837860107422,5,4,2,0,1,3,H+,1,5,0,0,1000,250.0,5,e02jk,179,train
880.6300163269043,5,4,2,0,1,3,H+,1,4,1,0,1000,250.0,4,e02jk,180,train
608.6890697479248,5,4,2,0,1,3,H+,1,1,4,0,1000,250.0,1,e02jk,181,train
576.6489505767822,5,4,2,0,1,3,H+,1,3,5,0,1000,250.0,3,e02jk,182,train
560.373067855835,5,4,2,0,1,3,H+,1,2,2,0,1000,250.0,2,e02jk,183,train
592.6659107208252,5,4,2,0,1,3,H+,1,3,5,0,1000,250.0,3,e02jk,184,train
576.6730308532715,5,4,2,0,1,3,H+,1,5,0,0,1000,250.0,5,e02jk,185,train
624.6299743652344,5,4,2,0,1,3,H+,1,0,3,0,1000,250.0,0,e02jk,186,train
672.5249290466309,5,4,2,0,1,3,H+,1,4,1,0,1000,250.0,4,e02jk,187,train
560.6799125671387,5,4,2,0,1,3,H+,1,1,4,0,1000,250.0,1,e02jk,188,train
496.63496017456055,5,4,2,0,1,3,H+,1,0,3,0,1000,250.0,0,e02jk,189,train
528.6309719085693,5,4,2,0,1,3,H+,1,1,4,0,1000,250.0,1,e02jk,190,train
592.695951461792,5,4,2,0,1,3,H+,1,1,4,0,1000,250.0,1,e02jk,191,train
512.6199722290039,5,4,2,0,1,3,H+,1,1,4,0,1000,250.0,1,e02jk,192,train
576.6520500183105,5,4,2,0,1,3,H+,1,2,2,0,1000,250.0,2,e02jk,193,train
704.6301364898682,5,4,2,0,1,3,H+,1,5,0,0,1000,250.0,5,e02jk,194,train
544.6481704711914,5,4,2,0,1,3,H+,1,0,3,0,1000,250.0,0,e02jk,195,train
624.6941089630127,5,4,2,0,1,3,H+,1,5,0,0,1000,250.0,5,e02jk,196,train
624.6521472930908,5,4,2,0,1,3,H+,1,0,3,0,1000,250.0,0,e02jk,197,train
576.6799449920654,5,4,2,0,1,3,H+,1,1,4,0,1000,250.0,1,e02jk,198,train
480.6191921234131,5,4,2,0,1,3,H+,1,0,3,0,1000,250.0,0,e02jk,199,train
640.7110691070557,5,4,2,0,1,3,H+,1,5,0,0,1000,250.0,5,e02jk,200,train
528.6509990692139,5,4,2,0,1,3,H+,1,0,3,0,1000,250.0,0,e02jk,201,train
528.4039974212646,5,4,2,0,1,3,H+,1,2,2,0,1000,250.0,2,e02jk,202,train
608.6750030517578,5,4,2,0,1,3,H+,1,4,1,0,1000,250.0,4,e02jk,203,train
464.8401737213135,5,4,2,0,1,3,H+,1,0,3,0,1000,250.0,0,e02jk,204,train
384.66596603393555,5,4,2,0,1,3,H+,1,1,4,0,1000,250.0,1,e02jk,205,train
624.6001720428467,5,4,2,0,1,3,H+,1,5,0,0,1000,250.0,5,e02jk,206,train
592.6690101623535,5,4,2,0,1,3,H+,1,3,5,0,1000,250.0,3,e02jk,207,train
608.551025390625,5,4,2,0,1,3,H+,1,5,0,0,1000,250.0,5,e02jk,208,train
496.596097946167,5,4,2,0,1,3,H+,1,5,0,0,1000,250.0,5,e02jk,209,train
416.6378974914551,5,4,2,0,1,3,H+,1,5,0,0,1000,250.0,5,e02jk,210,train
560.5959892272949,5,4,2,0,1,3,H+,1,3,5,0,1000,250.0,3,e02jk,211,train
400.68984031677246,5,4,2,0,1,3,H+,1,3,5,0,1000,250.0,3,e02jk,212,train
368.6361312866211,5,4,2,0,1,3,H+,1,3,5,0,1000,250.0,3,e02jk,213,train
544.6851253509521,5,4,2,0,1,3,H+,1,0,3,0,1000,250.0,0,e02jk,214,train
576.6661167144775,5,4,2,0,1,3,H+,1,4,1,0,1000,250.0,4,e02jk,215,train
608.6900234222412,5,4,2,0,1,3,H+,1,4,1,0,1000,250.0,4,e02jk,216,train
528.6588668823242,5,4,2,0,1,3,H+,0,2,2,0,1000,250.0,1,e02jk,217,train
592.5991535186768,5,4,2,0,1,3,H+,1,3,5,0,1000,250.0,3,e02jk,218,train
672.6610660552979,5,4,2,0,1,3,H+,1,5,0,0,1000,250.0,5,e02jk,219,train
672.6329326629639,5,4,2,0,1,3,H+,1,4,1,0,1000,250.0,4,e02jk,220,train
624.6559619903564,5,4,2,0,1,3,H+,1,0,3,0,1000,250.0,0,e02jk,221,train
528.6459922790527,5,4,2,0,1,3,H+,1,5,0,0,1000,250.0,5,e02jk,222,train
624.708890914917,5,4,2,0,1,3,H+,1,3,5,0,1000,250.0,3,e02jk,223,train
608.6740493774414,5,4,2,0,1,3,H+,1,2,2,0,1000,250.0,2,e02jk,224,train
560.6930255889893,5,4,2,0,1,3,H+,1,4,1,0,1000,250.0,4,e02jk,225,train
672.6880073547363,5,4,2,0,1,3,H+,1,5,0,0,1000,250.0,5,e02jk,226,train
480.67402839660645,5,4,2,0,1,3,H+,1,5,0,0,1000,250.0,5,e02jk,227,train
544.6419715881348,5,4,2,0,1,3,H+,1,4,1,0,1000,250.0,4,e02jk,228,train
608.691930770874,5,4,2,0,1,3,H+,1,4,1,0,1000,250.0,4,e02jk,229,train
464.5998477935791,5,4,2,0,1,3,H+,1,2,2,0,1000,250.0,2,e02jk,230,train
720.689058303833,5,4,2,0,1,3,H+,1,5,0,0,1000,250.0,5,e02jk,231,train
624.6778964996338,5,4,2,0,1,3,H+,1,1,4,0,1000,250.0,1,e02jk,232,train
576.6150951385498,5,4,2,0,1,3,H+,1,2,2,0,1000,250.0,2,e02jk,233,train
608.6139678955078,5,4,2,0,1,3,H+,1,2,2,0,1000,250.0,2,e02jk,234,train
560.6820583343506,5,4,2,0,1,3,H+,1,1,4,0,1000,250.0,1,e02jk,235,train
624.6960163116455,5,4,2,0,1,3,H+,1,3,5,0,1000,250.0,3,e02jk,236,train
640.6090259552002,5,4,2,0,1,3,H+,1,3,5,0,1000,250.0,3,e02jk,237,train
944.694995880127,5,4,2,0,1,3,H+,1,4,1,0,1000,250.0,4,e02jk,238,train
816.6389465332031,5,4,2,0,1,3,H+,1,4,1,0,1000,250.0,4,e02jk,239,train
560.6889724731445,5,4,2,0,1,3,H+,1,3,5,0,1000,250.0,3,e02jk,240,train
624.586820602417,5,4,2,0,1,3,H+,1,5,0,0,1000,250.0,5,e02jk,241,train
528.6819934844971,5,4,2,0,1,3,H+,1,3,5,0,1000,250.0,3,e02jk,242,train
528.6221504211426,5,4,2,0,1,3,H+,1,0,3,0,1000,250.0,0,e02jk,243,train
528.6281108856201,5,4,2,0,1,3,H+,0,4,1,0,1000,250.0,1,e02jk,244,train
560.6200695037842,5,4,2,0,1,3,H+,1,4,1,0,1000,250.0,4,e02jk,245,train
608.644962310791,5,4,2,0,1,3,H+,1,1,4,0,1000,250.0,1,e02jk,246,train
528.674840927124,5,4,2,0,1,3,H+,1,1,4,0,1000,250.0,1,e02jk,247,train
608.6409091949463,5,4,2,0,1,3,H+,1,5,0,0,1000,250.0,5,e02jk,248,train
496.69814109802246,5,4,2,0,1,3,H+,1,5,0,0,1000,250.0,5,e02jk,249,train
896.5718746185303,5,4,2,0,1,3,H+,1,0,3,0,1000,250.0,0,e02jk,250,test
992.6941394805908,5,4,2,0,1,3,H+,1,3,5,0,1000,250.0,3,e02jk,251,test
736.6840839385986,5,4,2,0,1,3,H+,1,0,3,0,1000,250.0,0,e02jk,252,test
864.6950721740723,5,4,2,0,1,3,H+,1,1,4,0,1000,250.0,1,e02jk,253,test
768.6100006103516,5,4,2,0,1,3,H+,1,1,4,0,1000,250.0,1,e02jk,254,test
640.4311656951904,5,4,2,0,1,3,H+,1,2,2,0,1000,250.0,2,e02jk,255,test
512.6690864562988,5,4,2,0,1,3,H+,1,1,4,0,1000,250.0,1,e02jk,256,test
528.6359786987305,5,4,2,0,1,3,H+,1,3,5,0,1000,250.0,3,e02jk,257,test
720.7298278808594,5,4,2,0,1,3,H+,1,4,1,0,1000,250.0,4,e02jk,258,test
576.653003692627,5,4,2,0,1,3,H+,1,0,3,0,1000,250.0,0,e02jk,259,test
512.6371383666992,5,4,2,0,1,3,H+,1,3,5,0,1000,250.0,3,e02jk,260,test
576.7090320587158,5,4,2,0,1,3,H+,1,2,2,0,1000,250.0,2,e02jk,261,test
784.7061157226562,5,4,2,0,1,3,H+,1,5,0,0,1000,250.0,5,e02jk,262,test
592.6389694213867,5,4,2,0,1,3,H+,1,0,3,0,1000,250.0,0,e02jk,263,test
576.6470432281494,5,4,2,0,1,3,H+,1,2,2,0,1000,250.0,2,e02jk,264,test
544.6639060974121,5,4,2,0,1,3,H+,1,0,3,0,1000,250.0,0,e02jk,265,test
576.6150951385498,5,4,2,0,1,3,H+,1,3,5,0,1000,250.0,3,e02jk,266,test
496.6259002685547,5,4,2,0,1,3,H+,1,3,5,0,1000,250.0,3,e02jk,267,test
576.707124710083,5,4,2,0,1,3,H+,1,2,2,0,1000,250.0,2,e02jk,268,test
736.6318702697754,5,4,2,0,1,3,H+,1,4,1,0,1000,250.0,4,e02jk,269,test
592.6949977874756,5,4,2,0,1,3,H+,1,2,2,0,1000,250.0,2,e02jk,270,test
752.6509761810303,5,4,2,0,1,3,H+,1,1,4,0,1000,250.0,1,e02jk,271,test
512.6631259918213,5,4,2,0,1,3,H+,1,1,4,0,1000,250.0,1,e02jk,272,test
560.6298446655273,5,4,2,0,1,3,H+,1,3,5,0,1000,250.0,3,e02jk,273,test
528.9270877838135,5,4,2,0,1,3,H+,1,0,3,0,1000,250.0,0,e02jk,274,test
528.6839008331299,5,4,2,0,1,3,H+,1,1,4,0,1000,250.0,1,e02jk,275,test
753.07297706604,5,4,2,0,1,3,H+,1,5,0,0,1000,250.0,5,e02jk,276,test
673.043966293335,5,4,2,0,1,3,H+,1,2,2,0,1000,250.0,2,e02jk,277,test
577.1338939666748,5,4,2,0,1,3,H+,1,5,0,0,1000,250.0,5,e02jk,278,test
577.1348476409912,5,4,2,0,1,3,H+,1,2,2,0,1000,250.0,2,e02jk,279,test
593.1260585784912,5,4,2,0,1,3,H+,1,5,0,0,1000,250.0,5,e02jk,280,test
657.0980548858643,5,4,2,0,1,3,H+,1,1,4,0,1000,250.0,1,e02jk,281,test
577.0599842071533,5,4,2,0,1,3,H+,1,0,3,0,1000,250.0,0,e02jk,282,test
497.1349239349365,5,4,2,0,1,3,H+,1,0,3,0,1000,250.0,0,e02jk,283,test
512.9668712615967,5,4,2,0,1,3,H+,1,1,4,0,1000,250.0,1,e02jk,284,test
561.1040592193604,5,4,2,0,1,3,H+,1,2,2,0,1000,250.0,2,e02jk,285,test
657.1428775787354,5,4,2,0,1,3,H+,1,4,1,0,1000,250.0,4,e02jk,286,test
945.1749324798584,5,4,2,0,1,3,H+,1,3,5,0,1000,250.0,3,e02jk,287,test
545.1099872589111,5,4,2,0,1,3,H+,1,3,5,0,1000,250.0,3,e02jk,288,test
513.0410194396973,5,4,2,0,1,3,H+,1,0,3,0,1000,250.0,0,e02jk,289,test
513.0419731140137,5,4,2,0,1,3,H+,1,0,3,0,1000,250.0,0,e02jk,290,test
576.9729614257812,5,4,2,0,1,3,H+,1,3,5,0,1000,250.0,3,e02jk,291,test
593.0750370025635,5,4,2,0,1,3,H+,1,5,0,0,1000,250.0,5,e02jk,292,test
592.9899215698242,5,4,2,0,1,3,H+,1,4,1,0,1000,250.0,4,e02jk,293,test
544.9390411376953,5,4,2,0,1,3,H+,1,3,5,0,1000,250.0,3,e02jk,294,test
609.0941429138184,5,4,2,0,1,3,H+,1,4,1,0,1000,250.0,4,e02jk,295,test
577.0599842071533,5,4,2,0,1,3,H+,1,4,1,0,1000,250.0,4,e02jk,296,test
593.146800994873,5,4,2,0,1,3,H+,1,5,0,0,1000,250.0,5,e02jk,297,test
529.1459560394287,5,4,2,0,1,3,H+,1,3,5,0,1000,250.0,3,e02jk,298,test
528.994083404541,5,4,2,0,1,3,H+,1,0,3,0,1000,250.0,0,e02jk,299,test
449.0809440612793,5,4,2,0,1,3,H+,1,1,4,0,1000,250.0,1,e02jk,300,test
465.1041030883789,5,4,2,0,1,3,H+,1,2,2,0,1000,250.0,2,e02jk,301,test
593.0788516998291,5,4,2,0,1,3,H+,1,4,1,0,1000,250.0,4,e02jk,302,test
593.1460857391357,5,4,2,0,1,3,H+,1,0,3,0,1000,250.0,0,e02jk,303,test
465.03210067749023,5,4,2,0,1,3,H+,1,0,3,0,1000,250.0,0,e02jk,304,test
625.0331401824951,5,4,2,0,1,3,H+,1,4,1,0,1000,250.0,4,e02jk,305,test
529.123067855835,5,4,2,0,1,3,H+,1,0,3,0,1000,250.0,0,e02jk,306,test
417.0968532562256,5,4,2,0,1,3,H+,1,3,5,0,1000,250.0,3,e02jk,307,test
609.0521812438965,5,4,2,0,1,3,H+,1,5,0,0,1000,250.0,5,e02jk,308,test
577.1479606628418,5,4,2,0,1,3,H+,1,1,4,0,1000,250.0,1,e02jk,309,test
401.11804008483887,5,4,2,0,1,3,H+,1,1,4,0,1000,250.0,1,e02jk,310,test
369.09985542297363,5,4,2,0,1,3,H+,0,5,0,0,1000,250.0,1,e02jk,311,test
529.1709899902344,5,4,2,0,1,3,H+,1,5,0,0,1000,250.0,5,e02jk,312,test
544.6341037750244,5,4,2,0,1,3,H+,1,4,1,0,1000,250.0,4,e02jk,313,test
528.6588668823242,5,4,2,0,1,3,H+,1,4,1,0,1000,250.0,4,e02jk,314,test
784.6300601959229,5,4,2,0,1,3,H+,1,2,2,0,1000,250.0,2,e02jk,315,test
608.6521148681641,5,4,2,0,1,3,H+,1,4,1,0,1000,250.0,4,e02jk,316,test
672.6970672607422,5,4,2,0,1,3,H+,1,4,1,0,1000,250.0,4,e02jk,317,test
384.63807106018066,5,4,2,0,1,3,H+,1,4,1,0,1000,250.0,4,e02jk,318,test
608.6609363555908,5,4,2,0,1,3,H+,1,1,4,0,1000,250.0,1,e02jk,319,test
560.7049465179443,5,4,2,0,1,3,H+,1,4,1,0,1000,250.0,4,e02jk,320,test
1312.7031326293945,5,4,2,0,1,3,H+,1,0,3,0,1000,250.0,0,e02jk,321,test
672.4460124969482,5,4,2,0,1,3,H+,1,2,2,0,1000,250.0,2,e02jk,322,test
624.6790885925293,5,4,2,0,1,3,H+,1,5,0,0,1000,250.0,5,e02jk,323,test
576.9810676574707,5,4,2,0,1,3,H+,1,0,3,0,1000,250.0,0,e02jk,324,test
576.5721797943115,5,4,2,0,1,3,H+,1,5,0,0,1000,250.0,5,e02jk,325,test
560.6849193572998,5,4,2,0,1,3,H+,1,1,4,0,1000,250.0,1,e02jk,326,test
608.6821556091309,5,4,2,0,1,3,H+,1,2,2,0,1000,250.0,2,e02jk,327,test
608.6809635162354,5,4,2,0,1,3,H+,1,4,1,0,1000,250.0,4,e02jk,328,test
608.6299419403076,5,4,2,0,1,3,H+,1,5,0,0,1000,250.0,5,e02jk,329,test
496.62184715270996,5,4,2,0,1,3,H+,0,1,4,0,1000,250.0,5,e02jk,330,test
480.6501865386963,5,4,2,0,1,3,H+,1,1,4,0,1000,250.0,1,e02jk,331,test
656.7070484161377,5,4,2,0,1,3,H+,1,5,0,0,1000,250.0,5,e02jk,332,test
512.6590728759766,5,4,2,0,1,3,H+,1,5,0,0,1000,250.0,5,e02jk,333,test
608.6761951446533,5,4,2,0,1,3,H+,1,2,2,0,1000,250.0,2,e02jk,334,test
816.6720867156982,5,4,2,0,1,3,H+,1,3,5,0,1000,250.0,3,e02jk,335,test
560.6448650360107,5,4,2,0,1,3,H+,1,4,1,0,1000,250.0,4,e02jk,336,test
560.7080459594727,5,4,2,0,1,3,H+,1,1,4,0,1000,250.0,1,e02jk,337,test
609.1420650482178,5,4,2,0,1,3,H+,1,4,1,0,1000,250.0,4,e02jk,338,test
609.123945236206,5,4,2,0,1,3,H+,1,5,0,0,1000,250.0,5,e02jk,339,test
529.1159152984619,5,4,2,0,1,3,H+,1,1,4,0,1000,250.0,1,e02jk,340,test
561.13600730896,5,4,2,0,1,3,H+,1,2,2,0,1000,250.0,2,e02jk,341,test
577.1582126617432,5,4,2,0,1,3,H+,1,5,0,0,1000,250.0,5,e02jk,342,test
545.0208187103271,5,4,2,0,1,3,H+,1,4,1,0,1000,250.0,4,e02jk,343,test
465.15798568725586,5,4,2,0,1,3,H+,1,3,5,0,1000,250.0,3,e02jk,344,test
513.1211280822754,5,4,2,0,1,3,H+,1,4,1,0,1000,250.0,4,e02jk,345,test
512.9449367523193,5,4,2,0,1,3,H+,1,0,3,0,1000,250.0,0,e02jk,346,test
401.1061191558838,5,4,2,0,1,3,H+,0,5,0,0,1000,250.0,1,e02jk,347,test
529.094934463501,5,4,2,0,1,3,H+,1,5,0,0,1000,250.0,5,e02jk,348,test
513.0510330200195,5,4,2,0,1,3,H+,1,0,3,0,1000,250.0,0,e02jk,349,test
561.1581802368164,5,4,2,0,1,3,H+,1,1,4,0,1000,250.0,1,e02jk,350,test
513.1320953369141,5,4,2,0,1,3,H+,1,0,3,0,1000,250.0,0,e02jk,351,test
577.1279335021973,5,4,2,0,1,3,H+,1,2,2,0,1000,250.0,2,e02jk,352,test
528.7909507751465,5,4,2,0,1,3,H+,1,2,2,0,1000,250.0,2,e02jk,353,test
609.03000831604,5,4,2,0,1,3,H+,1,3,5,0,1000,250.0,3,e02jk,354,test
529.0679931640625,5,4,2,0,1,3,H+,1,2,2,0,1000,250.0,2,e02jk,355,test
529.0839672088623,5,4,2,0,1,3,H+,1,2,2,0,1000,250.0,2,e02jk,356,test
576.9360065460205,5,4,2,0,1,3,H+,1,1,4,0,1000,250.0,1,e02jk,357,test
609.062910079956,5,4,2,0,1,3,H+,1,2,2,0,1000,250.0,2,e02jk,358,test
609.0290546417236,5,4,2,0,1,3,H+,1,4,1,0,1000,250.0,4,e02jk,359,test
673.0940341949463,5,4,2,0,1,3,H+,1,3,5,0,1000,250.0,3,e02jk,360,test
657.1040153503418,5,4,2,0,1,3,H+,1,4,1,0,1000,250.0,4,e02jk,361,test
625.1349449157715,5,4,2,0,1,3,H+,1,1,4,0,1000,250.0,1,e02jk,362,test
513.1320953369141,5,4,2,0,1,3,H+,1,1,4,0,1000,250.0,1,e02jk,363,test
481.08983039855957,5,4,2,0,1,3,H+,1,1,4,0,1000,250.0,1,e02jk,364,test
625.1578330993652,5,4,2,0,1,3,H+,1,3,5,0,1000,250.0,3,e02jk,365,test
593.0581092834473,5,4,2,0,1,3,H+,1,3,5,0,1000,250.0,3,e02jk,366,test
561.0699653625488,5,4,2,0,1,3,H+,1,3,5,0,1000,250.0,3,e02jk,367,test
641.0040855407715,5,4,2,0,1,3,H+,1,4,1,0,1000,250.0,4,e02jk,368,test
561.089038848877,5,4,2,0,1,3,H+,1,0,3,0,1000,250.0,0,e02jk,369,test
561.0530376434326,5,4,2,0,1,3,H+,1,4,1,0,1000,250.0,4,e02jk,370,test
545.1231002807617,5,4,2,0,1,3,H+,1,5,0,0,1000,250.0,5,e02jk,371,test
624.9468326568604,5,4,2,0,1,3,H+,1,3,5,0,1000,250.0,3,e02jk,372,test
625.1389980316162,5,4,2,0,1,3,H+,1,1,4,0,1000,250.0,1,e02jk,373,test
449.0351676940918,5,4,2,0,1,3,H+,1,1,4,0,1000,250.0,1,e02jk,374,test
529.167890548706,5,4,2,0,1,3,H+,1,0,3,0,1000,250.0,0,e02jk,375,test
561.0561370849609,5,4,2,0,1,3,H+,1,4,1,0,1000,250.0,4,e02jk,376,test
673.0620861053467,5,4,2,0,1,3,H+,1,2,2,0,1000,250.0,2,e02jk,377,test
769.0150737762451,5,4,2,0,1,3,H+,1,4,1,0,1000,250.0,4,e02jk,378,test
577.0900249481201,5,4,2,0,1,3,H+,1,2,2,0,1000,250.0,2,e02jk,379,test
673.0918884277344,5,4,2,0,1,3,H+,1,3,5,0,1000,250.0,3,e02jk,380,test
561.0659122467041,5,4,2,0,1,3,H+,1,4,1,0,1000,250.0,4,e02jk,381,test
561.0949993133545,5,4,2,0,1,3,H+,1,1,4,0,1000,250.0,1,e02jk,382,test
737.030029296875,5,4,2,0,1,3,H+,1,4,1,0,1000,250.0,4,e02jk,383,test
657.1450233459473,5,4,2,0,1,3,H+,1,4,1,0,1000,250.0,4,e02jk,384,test
545.1080799102783,5,4,2,0,1,3,H+,1,2,2,0,1000,250.0,2,e02jk,385,test
689.1360282897949,5,4,2,0,1,3,H+,1,0,3,0,1000,250.0,0,e02jk,386,test
625.1180171966553,5,4,2,0,1,3,H+,1,3,5,0,1000,250.0,3,e02jk,387,test
641.1309242248535,5,4,2,0,1,3,H+,1,4,1,0,1000,250.0,4,e02jk,388,test
753.0090808868408,5,4,2,0,1,3,H+,0,4,1,0,1000,250.0,5,e02jk,389,test
593.1329727172852,5,4,2,0,1,3,H+,1,2,2,0,1000,250.0,2,e02jk,390,test
529.0579795837402,5,4,2,0,1,3,H+,1,2,2,0,1000,250.0,2,e02jk,391,test
545.0780391693115,5,4,2,0,1,3,H+,1,4,1,0,1000,250.0,4,e02jk,392,test
673.1500625610352,5,4,2,0,1,3,H+,1,0,3,0,1000,250.0,0,e02jk,393,test
609.083890914917,5,4,2,0,1,3,H+,1,1,4,0,1000,250.0,1,e02jk,394,test
481.0640811920166,5,4,2,0,1,3,H+,1,2,2,0,1000,250.0,2,e02jk,395,test
513.1509304046631,5,4,2,0,1,3,H+,1,2,2,0,1000,250.0,2,e02jk,396,test
545.0179576873779,5,4,2,0,1,3,H+,1,4,1,0,1000,250.0,4,e02jk,397,test
705.1699161529541,5,4,2,0,1,3,H+,1,2,2,0,1000,250.0,2,e02jk,398,test
657.0730209350586,5,4,2,0,1,3,H+,1,5,0,0,1000,250.0,5,e02jk,399,test
545.1419353485107,5,4,2,0,1,3,H+,1,5,0,0,1000,250.0,5,e02jk,400,test
593.0590629577637,5,4,2,0,1,3,H+,1,0,3,0,1000,250.0,0,e02jk,401,test
641.1099433898926,5,4,2,0,1,3,H+,1,1,4,0,1000,250.0,1,e02jk,402,test
593.1270122528076,5,4,2,0,1,3,H+,1,4,1,0,1000,250.0,4,e02jk,403,test
657.0909023284912,5,4,2,0,1,3,H+,1,3,5,0,1000,250.0,3,e02jk,404,test
545.1102256774902,5,4,2,0,1,3,H+,1,0,3,0,1000,250.0,0,e02jk,405,test
609.0669631958008,5,4,2,0,1,3,H+,1,3,5,0,1000,250.0,3,e02jk,406,test
529.1180610656738,5,4,2,0,1,3,H+,1,1,4,0,1000,250.0,1,e02jk,407,test
753.180980682373,5,4,2,0,1,3,H+,1,5,0,0,1000,250.0,5,e02jk,408,test
577.146053314209,5,4,2,0,1,3,H+,1,2,2,0,1000,250.0,2,e02jk,409,test
529.0858745574951,5,4,2,0,1,3,H+,1,2,2,0,1000,250.0,2,e02jk,410,test
513.0910873413086,5,4,2,0,1,3,H+,1,5,0,0,1000,250.0,5,e02jk,411,test
625.1389980316162,5,4,2,0,1,3,H+,1,4,1,0,1000,250.0,4,e02jk,412,test
385.10704040527344,5,4,2,0,1,3,H+,1,4,1,0,1000,250.0,4,e02jk,413,test
593.1310653686523,5,4,2,0,1,3,H+,1,2,2,0,1000,250.0,2,e02jk,414,test
561.0849857330322,5,4,2,0,1,3,H+,1,2,2,0,1000,250.0,2,e02jk,415,test
608.90793800354,5,4,2,0,1,3,H+,1,5,0,0,1000,250.0,5,e02jk,416,test
625.1540184020996,5,4,2,0,1,3,H+,1,1,4,0,1000,250.0,1,e02jk,417,test
529.0951728820801,5,4,2,0,1,3,H+,1,4,1,0,1000,250.0,4,e02jk,418,test
625.1001358032227,5,4,2,0,1,3,H+,1,3,5,0,1000,250.0,3,e02jk,419,test
545.1021194458008,5,4,2,0,1,3,H+,1,2,2,0,1000,250.0,2,e02jk,420,test
545.1240539550781,5,4,2,0,1,3,H+,1,5,0,0,1000,250.0,5,e02jk,421,test
577.0947933197021,5,4,2,0,1,3,H+,1,0,3,0,1000,250.0,0,e02jk,422,test
529.1259288787842,5,4,2,0,1,3,H+,1,1,4,0,1000,250.0,1,e02jk,423,test
689.0652179718018,5,4,2,0,1,3,H+,1,5,0,0,1000,250.0,5,e02jk,424,test
577.0699977874756,5,4,2,0,1,3,H+,1,2,2,0,1000,250.0,2,e02jk,425,test
561.0589981079102,5,4,2,0,1,3,H+,0,3,5,0,1000,250.0,5,e02jk,426,test
577.0680904388428,5,4,2,0,1,3,H+,1,0,3,0,1000,250.0,0,e02jk,427,test
529.0398597717285,5,4,2,0,1,3,H+,1,0,3,0,1000,250.0,0,e02jk,428,test
417.10591316223145,5,4,2,0,1,3,H+,1,3,5,0,1000,250.0,3,e02jk,429,test
497.0898628234863,5,4,2,0,1,3,H+,1,0,3,0,1000,250.0,0,e02jk,430,test
705.096960067749,5,4,2,0,1,3,H+,1,5,0,0,1000,250.0,5,e02jk,431,test
529.0319919586182,5,4,2,0,1,3,H+,1,0,3,0,1000,250.0,0,e02jk,432,test
609.0240478515625,5,4,2,0,1,3,H+,1,2,2,0,1000,250.0,2,e02jk,433,test
641.1881446838379,5,4,2,0,1,3,H+,1,1,4,0,1000,250.0,1,e02jk,434,test
673.1488704681396,5,4,2,0,1,3,H+,1,5,0,0,1000,250.0,5,e02jk,435,test
513.1189823150635,5,4,2,0,1,3,H+,1,5,0,0,1000,250.0,5,e02jk,436,test
577.1379470825195,5,4,2,0,1,3,H+,1,2,2,0,1000,250.0,2,e02jk,437,test
529.1111469268799,5,4,2,0,1,3,H+,1,2,2,0,1000,250.0,2,e02jk,438,test
561.0718727111816,5,4,2,0,1,3,H+,1,4,1,0,1000,250.0,4,e02jk,439,test
545.1409816741943,5,4,2,0,1,3,H+,1,2,2,0,1000,250.0,2,e02jk,440,test
657.0849418640137,5,4,2,0,1,3,H+,1,5,0,0,1000,250.0,5,e02jk,441,test
545.0999736785889,5,4,2,0,1,3,H+,1,0,3,0,1000,250.0,0,e02jk,442,test
593.0697917938232,5,4,2,0,1,3,H+,1,4,1,0,1000,250.0,4,e02jk,443,test
849.1411209106445,5,4,2,0,1,3,H+,1,3,5,0,1000,250.0,3,e02jk,444,test
465.09599685668945,5,4,2,0,1,3,H+,1,0,3,0,1000,250.0,0,e02jk,445,test
625.0109672546387,5,4,2,0,1,3,H+,1,5,0,0,1000,250.0,5,e02jk,446,test
561.1550807952881,5,4,2,0,1,3,H+,1,4,1,0,1000,250.0,4,e02jk,447,test
593.1220054626465,5,4,2,0,1,3,H+,1,2,2,0,1000,250.0,2,e02jk,448,test
529.0360450744629,5,4,2,0,1,3,H+,1,2,2,0,1000,250.0,2,e02jk,449,test
657.1319103240967,5,4,2,0,1,3,H+,1,5,0,0,1000,250.0,5,e02jk,450,test
593.1220054626465,5,4,2,0,1,3,H+,1,3,5,0,1000,250.0,3,e02jk,451,test
593.1079387664795,5,4,2,0,1,3,H+,1,4,1,0,1000,250.0,4,e02jk,452,test
593.1448936462402,5,4,2,0,1,3,H+,1,2,2,0,1000,250.0,2,e02jk,453,test
641.1240100860596,5,4,2,0,1,3,H+,1,5,0,0,1000,250.0,5,e02jk,454,test
753.1771659851074,5,4,2,0,1,3,H+,1,0,3,0,1000,250.0,0,e02jk,455,test
609.140157699585,5,4,2,0,1,3,H+,1,3,5,0,1000,250.0,3,e02jk,456,test
529.0951728820801,5,4,2,0,1,3,H+,1,4,1,0,1000,250.0,4,e02jk,457,test
529.1099548339844,5,4,2,0,1,3,H+,1,0,3,0,1000,250.0,0,e02jk,458,test
497.1170425415039,5,4,2,0,1,3,H+,1,1,4,0,1000,250.0,1,e02jk,459,test
577.1420001983643,5,4,2,0,1,3,H+,1,4,1,0,1000,250.0,4,e02jk,460,test
737.1289730072021,5,4,2,0,1,3,H+,1,5,0,0,1000,250.0,5,e02jk,461,test
593.0171012878418,5,4,2,0,1,3,H+,1,0,3,0,1000,250.0,0,e02jk,462,test
593.1260585784912,5,4,2,0,1,3,H+,1,1,4,0,1000,250.0,1,e02jk,463,test
433.0930709838867,5,4,2,0,1,3,H+,1,1,4,0,1000,250.0,1,e02jk,464,test
561.0048770904541,5,4,2,0,1,3,H+,1,0,3,0,1000,250.0,0,e02jk,465,test
577.124834060669,5,4,2,0,1,3,H+,1,5,0,0,1000,250.0,5,e02jk,466,test
561.0871315002441,5,4,2,0,1,3,H+,1,4,1,0,1000,250.0,4,e02jk,467,test
497.07508087158203,5,4,2,0,1,3,H+,1,0,3,0,1000,250.0,0,e02jk,468,test
529.1001796722412,5,4,2,0,1,3,H+,1,0,3,0,1000,250.0,0,e02jk,469,test
657.1059226989746,5,4,2,0,1,3,H+,1,3,5,0,1000,250.0,3,e02jk,470,test
497.10607528686523,5,4,2,0,1,3,H+,0,1,4,0,1000,250.0,0,e02jk,471,test
640.9831047058105,5,4,2,0,1,3,H+,1,3,5,0,1000,250.0,3,e02jk,472,test
609.1029644012451,5,4,2,0,1,3,H+,1,2,2,0,1000,250.0,2,e02jk,473,test
465.09695053100586,5,4,2,0,1,3,H+,1,2,2,0,1000,250.0,2,e02jk,474,test
529.1168689727783,5,4,2,0,1,3,H+,1,1,4,0,1000,250.0,1,e02jk,475,test
609.0989112854004,5,4,2,0,1,3,H+,1,4,1,0,1000,250.0,4,e02jk,476,test
545.1278686523438,5,4,2,0,1,3,H+,1,2,2,0,1000,250.0,2,e02jk,477,test
528.9649963378906,5,4,2,0,1,3,H+,1,0,3,0,1000,250.0,0,e02jk,478,test
528.9812088012695,5,4,2,0,1,3,H+,1,1,4,0,1000,250.0,1,e02jk,479,test
561.1159801483154,5,4,2,0,1,3,H+,1,2,2,0,1000,250.0,2,e02jk,480,test
545.1290607452393,5,4,2,0,1,3,H+,1,0,3,0,1000,250.0,0,e02jk,481,test
785.120964050293,5,4,2,0,1,3,H+,1,4,1,0,1000,250.0,4,e02jk,482,test
481.0810089111328,5,4,2,0,1,3,H+,1,0,3,0,1000,250.0,0,e02jk,483,test
529.1070938110352,5,4,2,0,1,3,H+,1,1,4,0,1000,250.0,1,e02jk,484,test
513.1020545959473,5,4,2,0,1,3,H+,1,2,2,0,1000,250.0,2,e02jk,485,test
401.1080265045166,5,4,2,0,1,3,H+,1,2,2,0,1000,250.0,2,e02jk,486,test
529.1550159454346,5,4,2,0,1,3,H+,1,1,4,0,1000,250.0,1,e02jk,487,test
481.06884956359863,5,4,2,0,1,3,H+,1,2,2,0,1000,250.0,2,e02jk,488,test
513.0929946899414,5,4,2,0,1,3,H+,1,1,4,0,1000,250.0,1,e02jk,489,test
577.1820545196533,5,4,2,0,1,3,H+,1,0,3,0,1000,250.0,0,e02jk,490,test
593.1050777435303,5,4,2,0,1,3,H+,1,4,1,0,1000,250.0,4,e02jk,491,test
465.04688262939453,5,4,2,0,1,3,H+,1,4,1,0,1000,250.0,4,e02jk,492,test
625.0641345977783,5,4,2,0,1,3,H+,1,2,2,0,1000,250.0,2,e02jk,493,test
353.08384895324707,5,4,2,0,1,3,H+,1,2,2,0,1000,250.0,2,e02jk,494,test
704.7491073608398,5,4,2,0,1,3,H+,1,5,0,0,1000,250.0,5,e02jk,495,test
449.10407066345215,5,4,2,0,1,3,H+,1,5,0,0,1000,250.0,5,e02jk,496,test
528.8550853729248,5,4,2,0,1,3,H+,1,4,1,0,1000,250.0,4,e02jk,497,test
561.1200332641602,5,4,2,0,1,3,H+,1,2,2,0,1000,250.0,2,e02jk,498,test
529.1001796722412,5,4,2,0,1,3,H+,1,2,2,0,1000,250.0,2,e02jk,499,test
