RT,SRmap_0,SRmap_1,SRmap_2,SRmap_3,SRmap_4,SRmap_5,condition,correct,correct_response,curstim,ms-precue,ms-prestimblank,ntrials,response,subject,trial,type
5728.08313369751,3,4,2,1,5,0,H-,0,2,2,0,1000,250.0,1,D09JC,0,train
3216.385841369629,3,4,2,1,5,0,H-,1,4,1,0,1000,250.0,4,D09JC,1,train
3809.0150356292725,3,4,2,1,5,0,H-,1,5,4,0,1000,250.0,5,D09JC,2,train
1552.9978275299072,3,4,2,1,5,0,H-,1,4,1,0,1000,250.0,4,D09JC,3,train
3057.0569038391113,3,4,2,1,5,0,H-,1,2,2,0,1000,250.0,2,D09JC,4,train
1713.0088806152344,3,4,2,1,5,0,H-,1,1,3,0,1000,250.0,1,D09JC,5,train
1776.9229412078857,3,4,2,1,5,0,H-,1,2,2,0,1000,250.0,2,D09JC,6,train
1569.0100193023682,3,4,2,1,5,0,H-,1,2,2,0,1000,250.0,2,D09JC,7,train
2113.090991973877,3,4,2,1,5,0,H-,1,4,1,0,1000,250.0,4,D09JC,8,train
1985.0590229034424,3,4,2,1,5,0,H-,1,3,0,0,1000,250.0,3,D09JC,9,train
2177.0081520080566,3,4,2,1,5,0,H-,1,5,4,0,1000,250.0,5,D09JC,10,train
1985.0821495056152,3,4,2,1,5,0,H-,1,4,1,0,1000,250.0,4,D09JC,11,train
1696.998119354248,3,4,2,1,5,0,H-,1,5,4,0,1000,250.0,5,D09JC,12,train
1120.9380626678467,3,4,2,1,5,0,H-,1,4,1,0,1000,250.0,4,D09JC,13,train
1248.3468055725098,3,4,2,1,5,0,H-,1,1,3,0,1000,250.0,1,D09JC,14,train
1568.4499740600586,3,4,2,1,5,0,H-,1,4,1,0,1000,250.0,4,D09JC,15,train
3008.531093597412,3,4,2,1,5,0,H-,0,3,0,0,1000,250.0,2,D09JC,16,train
1424.407958984375,3,4,2,1,5,0,H-,1,2,2,0,1000,250.0,2,D09JC,17,train
1680.4192066192627,3,4,2,1,5,0,H-,1,4,1,0,1000,250.0,4,D09JC,18,train
1264.482021331787,3,4,2,1,5,0,H-,1,2,2,0,1000,250.0,2,D09JC,19,train
1936.2678527832031,3,4,2,1,5,0,H-,1,2,2,0,1000,250.0,2,D09JC,20,train
1632.453203201294,3,4,2,1,5,0,H-,1,0,5,0,1000,250.0,0,D09JC,21,train
1264.2090320587158,3,4,2,1,5,0,H-,1,1,3,0,1000,250.0,1,D09JC,22,train
1280.4758548736572,3,4,2,1,5,0,H-,1,2,2,0,1000,250.0,2,D09JC,23,train
1824.7830867767334,3,4,2,1,5,0,H-,1,3,0,0,1000,250.0,3,D09JC,24,train
1056.5719604492188,3,4,2,1,5,0,H-,1,1,3,0,1000,250.0,1,D09JC,25,train
1744.5180416107178,3,4,2,1,5,0,H-,1,4,1,0,1000,250.0,4,D09JC,26,train
1696.5289115905762,3,4,2,1,5,0,H-,1,3,0,0,1000,250.0,3,D09JC,27,train
2304.579019546509,3,4,2,1,5,0,H-,1,4,1,0,1000,250.0,4,D09JC,28,train
1856.6031455993652,3,4,2,1,5,0,H-,1,5,4,0,1000,250.0,5,D09JC,29,train
1424.4940280914307,3,4,2,1,5,0,H-,0,2,2,0,1000,250.0,3,D09JC,30,train
1504.8198699951172,3,4,2,1,5,0,H-,1,3,0,0,1000,250.0,3,D09JC,31,train
1425.0400066375732,3,4,2,1,5,0,H-,1,2,2,0,1000,250.0,2,D09JC,32,train
1377.2130012512207,3,4,2,1,5,0,H-,1,1,3,0,1000,250.0,1,D09JC,33,train
1312.4849796295166,3,4,2,1,5,0,H-,1,5,4,0,1000,250.0,5,D09JC,34,train
3184.5650672912598,3,4,2,1,5,0,H-,1,1,3,0,1000,250.0,1,D09JC,35,train
832.5521945953369,3,4,2,1,5,0,H-,1,1,3,0,1000,250.0,1,D09JC,36,train
1680.5379390716553,3,4,2,1,5,0,H-,1,5,4,0,1000,250.0,5,D09JC,37,train
992.5820827484131,3,4,2,1,5,0,H-,1,1,3,0,1000,250.0,1,D09JC,38,train
1888.4639739990234,3,4,2,1,5,0,H-,1,3,0,0,1000,250.0,3,D09JC,39,train
1536.47780418396,3,4,2,1,5,0,H-,1,2,2,0,1000,250.0,2,D09JC,40,train
2272.4339962005615,3,4,2,1,5,0,H-,1,4,1,0,1000,250.0,4,D09JC,41,train
1248.4538555145264,3,4,2,1,5,0,H-,1,4,1,0,1000,250.0,4,D09JC,42,train
1408.4160327911377,3,4,2,1,5,0,H-,1,1,3,0,1000,250.0,1,D09JC,43,train
1104.5548915863037,3,4,2,1,5,0,H-,1,0,5,0,1000,250.0,0,D09JC,44,train
752.4890899658203,3,4,2,1,5,0,H-,1,1,3,0,1000,250.0,1,D09JC,45,train
1616.5099143981934,3,4,2,1,5,0,H-,1,5,4,0,1000,250.0,5,D09JC,46,train
1152.5421142578125,3,4,2,1,5,0,H-,1,4,1,0,1000,250.0,4,D09JC,47,train
1232.4700355529785,3,4,2,1,5,0,H-,1,2,2,0,1000,250.0,2,D09JC,48,train
1440.3901100158691,3,4,2,1,5,0,H-,1,2,2,0,1000,250.0,2,D09JC,49,train
1424.030065536499,3,4,2,1,5,0,H-,1,0,5,0,1000,250.0,0,D09JC,50,train
1856.2579154968262,3,4,2,1,5,0,H-,1,3,0,0,1000,250.0,3,D09JC,51,train
1440.5648708343506,3,4,2,1,5,0,H-,1,4,1,0,1000,250.0,4,D09JC,52,train
1232.4848175048828,3,4,2,1,5,0,H-,1,4,1,0,1000,250.0,4,D09JC,53,train
1264.5189762115479,3,4,2,1,5,0,H-,1,5,4,0,1000,250.0,5,D09JC,54,train
1120.568037033081,3,4,2,1,5,0,H-,1,1,3,0,1000,250.0,1,D09JC,55,train
1248.4989166259766,3,4,2,1,5,0,H-,1,2,2,0,1000,250.0,2,D09JC,56,train
1152.5099277496338,3,4,2,1,5,0,H-,1,2,2,0,1000,250.0,2,D09JC,57,train
1840.545892715454,3,4,2,1,5,0,H-,1,3,0,0,1000,250.0,3,D09JC,58,train
1792.5760746002197,3,4,2,1,5,0,H-,1,1,3,0,1000,250.0,1,D09JC,59,train
1184.9110126495361,3,4,2,1,5,0,H-,1,0,5,0,1000,250.0,0,D09JC,60,train
1168.450117111206,3,4,2,1,5,0,H-,1,2,2,0,1000,250.0,2,D09JC,61,train
816.5500164031982,3,4,2,1,5,0,H-,1,2,2,0,1000,250.0,2,D09JC,62,train
960.4790210723877,3,4,2,1,5,0,H-,1,0,5,0,1000,250.0,0,D09JC,63,train
1008.512020111084,3,4,2,1,5,0,H-,1,0,5,0,1000,250.0,0,D09JC,64,train
848.5450744628906,3,4,2,1,5,0,H-,1,2,2,0,1000,250.0,2,D09JC,65,train
1232.4259281158447,3,4,2,1,5,0,H-,1,2,2,0,1000,250.0,2,D09JC,66,train
1664.470911026001,3,4,2,1,5,0,H-,1,4,1,0,1000,250.0,4,D09JC,67,train
912.6579761505127,3,4,2,1,5,0,H-,1,0,5,0,1000,250.0,0,D09JC,68,train
704.6830654144287,3,4,2,1,5,0,H-,1,0,5,0,1000,250.0,0,D09JC,69,train
1552.4749755859375,3,4,2,1,5,0,H-,1,4,1,0,1000,250.0,4,D09JC,70,train
1264.4450664520264,3,4,2,1,5,0,H-,1,5,4,0,1000,250.0,5,D09JC,71,train
1248.4760284423828,3,4,2,1,5,0,H-,1,2,2,0,1000,250.0,2,D09JC,72,train
1456.3939571380615,3,4,2,1,5,0,H-,1,4,1,0,1000,250.0,4,D09JC,73,train
1040.489912033081,3,4,2,1,5,0,H-,1,0,5,0,1000,250.0,0,D09JC,74,train
1584.5041275024414,3,4,2,1,5,0,H-,1,3,0,0,1000,250.0,3,D09JC,75,train
2480.754852294922,3,4,2,1,5,0,H-,1,2,2,0,1000,250.0,2,D09JC,76,train
1296.483039855957,3,4,2,1,5,0,H-,1,5,4,0,1000,250.0,5,D09JC,77,train
1488.415002822876,3,4,2,1,5,0,H-,1,5,4,0,1000,250.0,5,D09JC,78,train
1120.628833770752,3,4,2,1,5,0,H-,1,5,4,0,1000,250.0,5,D09JC,79,train
1248.6331462860107,3,4,2,1,5,0,H-,1,0,5,0,1000,250.0,0,D09JC,80,train
816.5841102600098,3,4,2,1,5,0,H-,1,0,5,0,1000,250.0,0,D09JC,81,train
1632.519006729126,3,4,2,1,5,0,H-,0,2,2,0,1000,250.0,1,D09JC,82,train
1328.4502029418945,3,4,2,1,5,0,H-,1,1,3,0,1000,250.0,1,D09JC,83,train
1360.4509830474854,3,4,2,1,5,0,H-,1,4,1,0,1000,250.0,4,D09JC,84,train
1360.3630065917969,3,4,2,1,5,0,H-,1,5,4,0,1000,250.0,5,D09JC,85,train
1360.496997833252,3,4,2,1,5,0,H-,1,1,3,0,1000,250.0,1,D09JC,86,train
832.4699401855469,3,4,2,1,5,0,H-,1,5,4,0,1000,250.0,5,D09JC,87,train
1120.596170425415,3,4,2,1,5,0,H-,0,0,5,0,1000,250.0,1,D09JC,88,train
3072.6029872894287,3,4,2,1,5,0,H-,1,4,1,0,1000,250.0,4,D09JC,89,train
944.5419311523438,3,4,2,1,5,0,H-,1,5,4,0,1000,250.0,5,D09JC,90,train
736.6018295288086,3,4,2,1,5,0,H-,1,0,5,0,1000,250.0,0,D09JC,91,train
864.4979000091553,3,4,2,1,5,0,H-,1,0,5,0,1000,250.0,0,D09JC,92,train
1312.4439716339111,3,4,2,1,5,0,H-,1,2,2,0,1000,250.0,2,D09JC,93,train
1344.4280624389648,3,4,2,1,5,0,H-,1,4,1,0,1000,250.0,4,D09JC,94,train
1712.989091873169,3,4,2,1,5,0,H-,1,4,1,0,1000,250.0,4,D09JC,95,train
1072.929859161377,3,4,2,1,5,0,H-,1,4,1,0,1000,250.0,4,D09JC,96,train
1056.976079940796,3,4,2,1,5,0,H-,1,4,1,0,1000,250.0,4,D09JC,97,train
1360.9321117401123,3,4,2,1,5,0,H-,1,5,4,0,1000,250.0,5,D09JC,98,train
1264.4879817962646,3,4,2,1,5,0,H-,1,3,0,0,1000,250.0,3,D09JC,99,train
1760.5180740356445,3,4,2,1,5,0,H-,0,1,3,0,1000,250.0,0,D09JC,100,train
2048.5339164733887,3,4,2,1,5,0,H-,1,3,0,0,1000,250.0,3,D09JC,101,train
1424.4599342346191,3,4,2,1,5,0,H-,1,2,2,0,1000,250.0,2,D09JC,102,train
1104.5238971710205,3,4,2,1,5,0,H-,1,0,5,0,1000,250.0,0,D09JC,103,train
1872.5740909576416,3,4,2,1,5,0,H-,1,5,4,0,1000,250.0,5,D09JC,104,train
1376.5060901641846,3,4,2,1,5,0,H-,1,0,5,0,1000,250.0,0,D09JC,105,train
848.4530448913574,3,4,2,1,5,0,H-,1,0,5,0,1000,250.0,0,D09JC,106,train
1152.6119709014893,3,4,2,1,5,0,H-,1,1,3,0,1000,250.0,1,D09JC,107,train
752.5680065155029,3,4,2,1,5,0,H-,1,0,5,0,1000,250.0,0,D09JC,108,train
816.5731430053711,3,4,2,1,5,0,H-,0,3,0,0,1000,250.0,0,D09JC,109,train
1696.5959072113037,3,4,2,1,5,0,H-,0,5,4,0,1000,250.0,3,D09JC,110,train
1280.4601192474365,3,4,2,1,5,0,H-,1,3,0,0,1000,250.0,3,D09JC,111,train
1056.8010807037354,3,4,2,1,5,0,H-,1,1,3,0,1000,250.0,1,D09JC,112,train
1632.209062576294,3,4,2,1,5,0,H-,1,4,1,0,1000,250.0,4,D09JC,113,train
1504.5278072357178,3,4,2,1,5,0,H-,1,2,2,0,1000,250.0,2,D09JC,114,train
704.5700550079346,3,4,2,1,5,0,H-,1,2,2,0,1000,250.0,2,D09JC,115,train
1168.3349609375,3,4,2,1,5,0,H-,1,4,1,0,1000,250.0,4,D09JC,116,train
1152.4720191955566,3,4,2,1,5,0,H-,1,5,4,0,1000,250.0,5,D09JC,117,train
1488.4870052337646,3,4,2,1,5,0,H-,1,0,5,0,1000,250.0,0,D09JC,118,train
1376.554012298584,3,4,2,1,5,0,H-,1,5,4,0,1000,250.0,5,D09JC,119,train
2192.5711631774902,3,4,2,1,5,0,H-,1,1,3,0,1000,250.0,1,D09JC,120,train
1472.5019931793213,3,4,2,1,5,0,H-,1,4,1,0,1000,250.0,4,D09JC,121,train
1264.4779682159424,3,4,2,1,5,0,H-,1,3,0,0,1000,250.0,3,D09JC,122,train
1472.4688529968262,3,4,2,1,5,0,H-,1,4,1,0,1000,250.0,4,D09JC,123,train
2160.5279445648193,3,4,2,1,5,0,H-,0,3,0,0,1000,250.0,4,D09JC,124,train
1824.563980102539,3,4,2,1,5,0,H-,1,5,4,0,1000,250.0,5,D09JC,125,train
1248.4610080718994,3,4,2,1,5,0,H-,1,3,0,0,1000,250.0,3,D09JC,126,train
1584.4969749450684,3,4,2,1,5,0,H-,1,5,4,0,1000,250.0,5,D09JC,127,train
1392.4920558929443,3,4,2,1,5,0,H-,1,3,0,0,1000,250.0,3,D09JC,128,train
1089.0250205993652,3,4,2,1,5,0,H-,1,1,3,0,1000,250.0,1,D09JC,129,train
1600.52490234375,3,4,2,1,5,0,H-,1,2,2,0,1000,250.0,2,D09JC,130,train
1120.621919631958,3,4,2,1,5,0,H-,1,0,5,0,1000,250.0,0,D09JC,131,train
1600.512981414795,3,4,2,1,5,0,H-,1,4,1,0,1000,250.0,4,D09JC,132,train
1024.5189666748047,3,4,2,1,5,0,H-,1,1,3,0,1000,250.0,1,D09JC,133,train
1488.6200428009033,3,4,2,1,5,0,H-,1,3,0,0,1000,250.0,3,D09JC,134,train
880.5601596832275,3,4,2,1,5,0,H-,1,1,3,0,1000,250.0,1,D09JC,135,train
1648.3330726623535,3,4,2,1,5,0,H-,1,4,1,0,1000,250.0,4,D09JC,136,train
1264.4610404968262,3,4,2,1,5,0,H-,1,5,4,0,1000,250.0,5,D09JC,137,train
944.4880485534668,3,4,2,1,5,0,H-,1,1,3,0,1000,250.0,1,D09JC,138,train
1248.4550476074219,3,4,2,1,5,0,H-,1,4,1,0,1000,250.0,4,D09JC,139,train
1840.5628204345703,3,4,2,1,5,0,H-,1,4,1,0,1000,250.0,4,D09JC,140,train
1248.5301494598389,3,4,2,1,5,0,H-,1,2,2,0,1000,250.0,2,D09JC,141,train
944.4389343261719,3,4,2,1,5,0,H-,1,2,2,0,1000,250.0,2,D09JC,142,train
1248.467206954956,3,4,2,1,5,0,H-,1,0,5,0,1000,250.0,0,D09JC,143,train
944.5230960845947,3,4,2,1,5,0,H-,1,1,3,0,1000,250.0,1,D09JC,144,train
944.5199966430664,3,4,2,1,5,0,H-,1,0,5,0,1000,250.0,0,D09JC,145,train
1504.486083984375,3,4,2,1,5,0,H-,1,3,0,0,1000,250.0,3,D09JC,146,train
1441.0150051116943,3,4,2,1,5,0,H-,1,2,2,0,1000,250.0,2,D09JC,147,train
705.1069736480713,3,4,2,1,5,0,H-,1,2,2,0,1000,250.0,2,D09JC,148,train
961.1799716949463,3,4,2,1,5,0,H-,1,0,5,0,1000,250.0,0,D09JC,149,train
1825.3238201141357,3,4,2,1,5,0,H-,1,3,0,0,1000,250.0,3,D09JC,150,train
1153.041124343872,3,4,2,1,5,0,H-,1,1,3,0,1000,250.0,1,D09JC,151,train
1217.0131206512451,3,4,2,1,5,0,H-,0,3,0,0,1000,250.0,5,D09JC,152,train
1424.9608516693115,3,4,2,1,5,0,H-,1,0,5,0,1000,250.0,0,D09JC,153,train
1312.9701614379883,3,4,2,1,5,0,H-,1,5,4,0,1000,250.0,5,D09JC,154,train
1313.020944595337,3,4,2,1,5,0,H-,1,0,5,0,1000,250.0,0,D09JC,155,train
1377.0341873168945,3,4,2,1,5,0,H-,1,2,2,0,1000,250.0,2,D09JC,156,train
1152.951955795288,3,4,2,1,5,0,H-,1,1,3,0,1000,250.0,1,D09JC,157,train
1584.9528312683105,3,4,2,1,5,0,H-,1,3,0,0,1000,250.0,3,D09JC,158,train
881.0040950775146,3,4,2,1,5,0,H-,1,1,3,0,1000,250.0,1,D09JC,159,train
592.4878120422363,3,4,2,1,5,0,H-,1,1,3,0,1000,250.0,1,D09JC,160,train
1408.5168838500977,3,4,2,1,5,0,H-,1,3,0,0,1000,250.0,3,D09JC,161,train
944.8239803314209,3,4,2,1,5,0,H-,1,0,5,0,1000,250.0,0,D09JC,162,train
1552.5660514831543,3,4,2,1,5,0,H-,1,4,1,0,1000,250.0,4,D09JC,163,train
1008.4748268127441,3,4,2,1,5,0,H-,1,0,5,0,1000,250.0,0,D09JC,164,train
1280.4820537567139,3,4,2,1,5,0,H-,1,3,0,0,1000,250.0,3,D09JC,165,train
1328.489065170288,3,4,2,1,5,0,H-,1,5,4,0,1000,250.0,5,D09JC,166,train
1552.509069442749,3,4,2,1,5,0,H-,1,3,0,0,1000,250.0,3,D09JC,167,train
1584.475040435791,3,4,2,1,5,0,H-,1,0,5,0,1000,250.0,0,D09JC,168,train
1616.468906402588,3,4,2,1,5,0,H-,1,2,2,0,1000,250.0,2,D09JC,169,train
1504.560947418213,3,4,2,1,5,0,H-,1,4,1,0,1000,250.0,4,D09JC,170,train
1056.5409660339355,3,4,2,1,5,0,H-,1,4,1,0,1000,250.0,4,D09JC,171,train
1216.3670063018799,3,4,2,1,5,0,H-,1,3,0,0,1000,250.0,3,D09JC,172,train
1040.525197982788,3,4,2,1,5,0,H-,1,5,4,0,1000,250.0,5,D09JC,173,train
1072.4999904632568,3,4,2,1,5,0,H-,1,1,3,0,1000,250.0,1,D09JC,174,train
1520.6379890441895,3,4,2,1,5,0,H-,1,3,0,0,1000,250.0,3,D09JC,175,train
1168.6971187591553,3,4,2,1,5,0,H-,1,1,3,0,1000,250.0,1,D09JC,176,train
1424.4968891143799,3,4,2,1,5,0,H-,1,4,1,0,1000,250.0,4,D09JC,177,train
912.682056427002,3,4,2,1,5,0,H-,1,0,5,0,1000,250.0,0,D09JC,178,train
784.5959663391113,3,4,2,1,5,0,H-,1,0,5,0,1000,250.0,0,D09JC,179,train
1056.8349361419678,3,4,2,1,5,0,H-,1,4,1,0,1000,250.0,4,D09JC,180,train
1072.5951194763184,3,4,2,1,5,0,H-,1,2,2,0,1000,250.0,2,D09JC,181,train
1280.5168628692627,3,4,2,1,5,0,H-,1,4,1,0,1000,250.0,4,D09JC,182,train
1329.02193069458,3,4,2,1,5,0,H-,1,2,2,0,1000,250.0,2,D09JC,183,train
705.1470279693604,3,4,2,1,5,0,H-,1,0,5,0,1000,250.0,0,D09JC,184,train
1409.001111984253,3,4,2,1,5,0,H-,1,3,0,0,1000,250.0,3,D09JC,185,train
1073.0640888214111,3,4,2,1,5,0,H-,1,2,2,0,1000,250.0,2,D09JC,186,train
1488.969087600708,3,4,2,1,5,0,H-,1,4,1,0,1000,250.0,4,D09JC,187,train
1009.0508460998535,3,4,2,1,5,0,H-,1,5,4,0,1000,250.0,5,D09JC,188,train
1488.6870384216309,3,4,2,1,5,0,H-,1,5,4,0,1000,250.0,5,D09JC,189,train
1328.521966934204,3,4,2,1,5,0,H-,1,3,0,0,1000,250.0,3,D09JC,190,train
960.5190753936768,3,4,2,1,5,0,H-,1,1,3,0,1000,250.0,1,D09JC,191,train
3872.6110458374023,3,4,2,1,5,0,H-,1,5,4,0,1000,250.0,5,D09JC,192,train
1360.4469299316406,3,4,2,1,5,0,H-,1,3,0,0,1000,250.0,3,D09JC,193,train
1392.4078941345215,3,4,2,1,5,0,H-,1,4,1,0,1000,250.0,4,D09JC,194,train
1040.6851768493652,3,4,2,1,5,0,H-,1,5,4,0,1000,250.0,5,D09JC,195,train
1680.3929805755615,3,4,2,1,5,0,H-,1,2,2,0,1000,250.0,2,D09JC,196,train
1152.5359153747559,3,4,2,1,5,0,H-,1,0,5,0,1000,250.0,0,D09JC,197,train
1328.4659385681152,3,4,2,1,5,0,H-,1,2,2,0,1000,250.0,2,D09JC,198,train
1264.4991874694824,3,4,2,1,5,0,H-,1,4,1,0,1000,250.0,4,D09JC,199,train
928.5869598388672,3,4,2,1,5,0,H-,1,5,4,0,1000,250.0,5,D09JC,200,train
1136.582851409912,3,4,2,1,5,0,H-,1,2,2,0,1000,250.0,2,D09JC,201,train
752.587080001831,3,4,2,1,5,0,H-,1,2,2,0,1000,250.0,2,D09JC,202,train
1232.5129508972168,3,4,2,1,5,0,H-,1,4,1,0,1000,250.0,4,D09JC,203,train
1328.4997940063477,3,4,2,1,5,0,H-,1,0,5,0,1000,250.0,0,D09JC,204,train
896.5468406677246,3,4,2,1,5,0,H-,1,1,3,0,1000,250.0,1,D09JC,205,train
1568.8891410827637,3,4,2,1,5,0,H-,1,4,1,0,1000,250.0,4,D09JC,206,train
673.1159687042236,3,4,2,1,5,0,H-,1,4,1,0,1000,250.0,4,D09JC,207,train
1041.0170555114746,3,4,2,1,5,0,H-,1,0,5,0,1000,250.0,0,D09JC,208,train
945.0159072875977,3,4,2,1,5,0,H-,1,1,3,0,1000,250.0,1,D09JC,209,train
1121.1309432983398,3,4,2,1,5,0,H-,1,2,2,0,1000,250.0,2,D09JC,210,train
1089.076042175293,3,4,2,1,5,0,H-,1,0,5,0,1000,250.0,0,D09JC,211,train
673.0389595031738,3,4,2,1,5,0,H-,1,0,5,0,1000,250.0,0,D09JC,212,train
737.023115158081,3,4,2,1,5,0,H-,1,1,3,0,1000,250.0,1,D09JC,213,train
1681.0579299926758,3,4,2,1,5,0,H-,1,3,0,0,1000,250.0,3,D09JC,214,train
929.131031036377,3,4,2,1,5,0,H-,1,2,2,0,1000,250.0,2,D09JC,215,train
832.6811790466309,3,4,2,1,5,0,H-,1,0,5,0,1000,250.0,0,D09JC,216,train
1456.5238952636719,3,4,2,1,5,0,H-,1,3,0,0,1000,250.0,3,D09JC,217,train
976.5219688415527,3,4,2,1,5,0,H-,1,0,5,0,1000,250.0,0,D09JC,218,train
1872.572898864746,3,4,2,1,5,0,H-,0,4,1,0,1000,250.0,3,D09JC,219,train
1328.4809589385986,3,4,2,1,5,0,H-,1,1,3,0,1000,250.0,1,D09JC,220,train
960.5259895324707,3,4,2,1,5,0,H-,1,0,5,0,1000,250.0,0,D09JC,221,train
688.539981842041,3,4,2,1,5,0,H-,1,0,5,0,1000,250.0,0,D09JC,222,train
1488.5551929473877,3,4,2,1,5,0,H-,1,3,0,0,1000,250.0,3,D09JC,223,train
1120.6138134002686,3,4,2,1,5,0,H-,1,0,5,0,1000,250.0,0,D09JC,224,train
752.4890899658203,3,4,2,1,5,0,H-,1,1,3,0,1000,250.0,1,D09JC,225,train
944.5641040802002,3,4,2,1,5,0,H-,1,5,4,0,1000,250.0,5,D09JC,226,train
608.4940433502197,3,4,2,1,5,0,H-,1,5,4,0,1000,250.0,5,D09JC,227,train
1424.4890213012695,3,4,2,1,5,0,H-,1,2,2,0,1000,250.0,2,D09JC,228,train
1120.4907894134521,3,4,2,1,5,0,H-,1,5,4,0,1000,250.0,5,D09JC,229,train
992.5570487976074,3,4,2,1,5,0,H-,1,0,5,0,1000,250.0,0,D09JC,230,train
1376.526117324829,3,4,2,1,5,0,H-,0,4,1,0,1000,250.0,3,D09JC,231,train
976.5510559082031,3,4,2,1,5,0,H-,1,1,3,0,1000,250.0,1,D09JC,232,train
1328.4599781036377,3,4,2,1,5,0,H-,1,2,2,0,1000,250.0,2,D09JC,233,train
816.4920806884766,3,4,2,1,5,0,H-,1,5,4,0,1000,250.0,5,D09JC,234,train
1073.0600357055664,3,4,2,1,5,0,H-,1,5,4,0,1000,250.0,5,D09JC,235,train
1665.0350093841553,3,4,2,1,5,0,H-,1,3,0,0,1000,250.0,3,D09JC,236,train
1025.0868797302246,3,4,2,1,5,0,H-,1,3,0,0,1000,250.0,3,D09JC,237,train
1169.0781116485596,3,4,2,1,5,0,H-,1,2,2,0,1000,250.0,2,D09JC,238,train
2192.939043045044,3,4,2,1,5,0,H-,1,1,3,0,1000,250.0,1,D09JC,239,train
1344.9361324310303,3,4,2,1,5,0,H-,1,5,4,0,1000,250.0,5,D09JC,240,train
1328.7148475646973,3,4,2,1,5,0,H-,1,3,0,0,1000,250.0,3,D09JC,241,train
1312.479019165039,3,4,2,1,5,0,H-,1,4,1,0,1000,250.0,4,D09JC,242,train
992.5119876861572,3,4,2,1,5,0,H-,1,1,3,0,1000,250.0,1,D09JC,243,train
1360.7540130615234,3,4,2,1,5,0,H-,1,2,2,0,1000,250.0,2,D09JC,244,train
912.5819206237793,3,4,2,1,5,0,H-,1,0,5,0,1000,250.0,0,D09JC,245,train
656.5489768981934,3,4,2,1,5,0,H-,1,1,3,0,1000,250.0,1,D09JC,246,train
1536.6148948669434,3,4,2,1,5,0,H-,1,4,1,0,1000,250.0,4,D09JC,247,train
1248.5029697418213,3,4,2,1,5,0,H-,1,4,1,0,1000,250.0,4,D09JC,248,train
896.5377807617188,3,4,2,1,5,0,H-,1,3,0,0,1000,250.0,3,D09JC,249,train
1184.359073638916,5,1,3,0,2,4,H-,1,0,3,0,1000,250.0,0,D09JC,250,test
1600.5258560180664,5,1,3,0,2,4,H-,1,4,5,0,1000,250.0,4,D09JC,251,test
848.4971523284912,5,1,3,0,2,4,H-,1,0,3,0,1000,250.0,0,D09JC,252,test
704.542875289917,5,1,3,0,2,4,H-,1,0,3,0,1000,250.0,0,D09JC,253,test
608.6490154266357,5,1,3,0,2,4,H-,1,0,3,0,1000,250.0,0,D09JC,254,test
1632.5650215148926,5,1,3,0,2,4,H-,1,3,2,0,1000,250.0,3,D09JC,255,test
816.5278434753418,5,1,3,0,2,4,H-,1,0,3,0,1000,250.0,0,D09JC,256,test
1008.3508491516113,5,1,3,0,2,4,H-,1,1,1,0,1000,250.0,1,D09JC,257,test
1376.5208721160889,5,1,3,0,2,4,H-,1,4,5,0,1000,250.0,4,D09JC,258,test
976.5491485595703,5,1,3,0,2,4,H-,1,0,3,0,1000,250.0,0,D09JC,259,test
1280.4460525512695,5,1,3,0,2,4,H-,1,3,2,0,1000,250.0,3,D09JC,260,test
1360.4769706726074,5,1,3,0,2,4,H-,1,3,2,0,1000,250.0,3,D09JC,261,test
896.5659141540527,5,1,3,0,2,4,H-,1,3,2,0,1000,250.0,3,D09JC,262,test
768.1889533996582,5,1,3,0,2,4,H-,0,4,5,0,1000,250.0,0,D09JC,263,test
1824.4941234588623,5,1,3,0,2,4,H-,1,1,1,0,1000,250.0,1,D09JC,264,test
848.4981060028076,5,1,3,0,2,4,H-,1,1,1,0,1000,250.0,1,D09JC,265,test
640.4988765716553,5,1,3,0,2,4,H-,1,1,1,0,1000,250.0,1,D09JC,266,test
656.47292137146,5,1,3,0,2,4,H-,1,1,1,0,1000,250.0,1,D09JC,267,test
784.5280170440674,5,1,3,0,2,4,H-,1,0,3,0,1000,250.0,0,D09JC,268,test
1264.549970626831,5,1,3,0,2,4,H-,1,4,5,0,1000,250.0,4,D09JC,269,test
1728.5630702972412,5,1,3,0,2,4,H-,1,1,1,0,1000,250.0,1,D09JC,270,test
704.4739723205566,5,1,3,0,2,4,H-,1,1,1,0,1000,250.0,1,D09JC,271,test
1456.4929008483887,5,1,3,0,2,4,H-,1,5,0,0,1000,250.0,5,D09JC,272,test
880.469799041748,5,1,3,0,2,4,H-,1,0,3,0,1000,250.0,0,D09JC,273,test
992.5029277801514,5,1,3,0,2,4,H-,1,4,5,0,1000,250.0,4,D09JC,274,test
928.4491539001465,5,1,3,0,2,4,H-,1,4,5,0,1000,250.0,4,D09JC,275,test
944.5390701293945,5,1,3,0,2,4,H-,1,0,3,0,1000,250.0,0,D09JC,276,test
896.6269493103027,5,1,3,0,2,4,H-,1,4,5,0,1000,250.0,4,D09JC,277,test
640.5909061431885,5,1,3,0,2,4,H-,1,0,3,0,1000,250.0,0,D09JC,278,test
816.5509700775146,5,1,3,0,2,4,H-,1,4,5,0,1000,250.0,4,D09JC,279,test
784.5628261566162,5,1,3,0,2,4,H-,1,5,0,0,1000,250.0,5,D09JC,280,test
897.0150947570801,5,1,3,0,2,4,H-,1,0,3,0,1000,250.0,0,D09JC,281,test
1184.5369338989258,5,1,3,0,2,4,H-,1,3,2,0,1000,250.0,3,D09JC,282,test
944.5428848266602,5,1,3,0,2,4,H-,1,0,3,0,1000,250.0,0,D09JC,283,test
800.6060123443604,5,1,3,0,2,4,H-,1,0,3,0,1000,250.0,0,D09JC,284,test
1248.528003692627,5,1,3,0,2,4,H-,1,4,5,0,1000,250.0,4,D09JC,285,test
832.5741291046143,5,1,3,0,2,4,H-,1,5,0,0,1000,250.0,5,D09JC,286,test
752.540111541748,5,1,3,0,2,4,H-,1,5,0,0,1000,250.0,5,D09JC,287,test
1184.4780445098877,5,1,3,0,2,4,H-,1,3,2,0,1000,250.0,3,D09JC,288,test
752.6090145111084,5,1,3,0,2,4,H-,1,0,3,0,1000,250.0,0,D09JC,289,test
1377.0520687103271,5,1,3,0,2,4,H-,1,2,4,0,1000,250.0,2,D09JC,290,test
1073.1730461120605,5,1,3,0,2,4,H-,1,5,0,0,1000,250.0,5,D09JC,291,test
1105.1290035247803,5,1,3,0,2,4,H-,1,3,2,0,1000,250.0,3,D09JC,292,test
1041.0490036010742,5,1,3,0,2,4,H-,1,5,0,0,1000,250.0,5,D09JC,293,test
1825.0761032104492,5,1,3,0,2,4,H-,1,1,1,0,1000,250.0,1,D09JC,294,test
833.0729007720947,5,1,3,0,2,4,H-,1,1,1,0,1000,250.0,1,D09JC,295,test
1089.0522003173828,5,1,3,0,2,4,H-,1,3,2,0,1000,250.0,3,D09JC,296,test
1201.0412216186523,5,1,3,0,2,4,H-,1,2,4,0,1000,250.0,2,D09JC,297,test
993.0429458618164,5,1,3,0,2,4,H-,1,5,0,0,1000,250.0,5,D09JC,298,test
1825.056791305542,5,1,3,0,2,4,H-,1,3,2,0,1000,250.0,3,D09JC,299,test
736.3438606262207,5,1,3,0,2,4,H-,1,3,2,0,1000,250.0,3,D09JC,300,test
1024.5780944824219,5,1,3,0,2,4,H-,1,4,5,0,1000,250.0,4,D09JC,301,test
1024.51491355896,5,1,3,0,2,4,H-,1,0,3,0,1000,250.0,0,D09JC,302,test
784.5311164855957,5,1,3,0,2,4,H-,1,1,1,0,1000,250.0,1,D09JC,303,test
672.4660396575928,5,1,3,0,2,4,H-,1,1,1,0,1000,250.0,1,D09JC,304,test
1104.5308113098145,5,1,3,0,2,4,H-,1,3,2,0,1000,250.0,3,D09JC,305,test
768.5348987579346,5,1,3,0,2,4,H-,1,0,3,0,1000,250.0,0,D09JC,306,test
1088.533878326416,5,1,3,0,2,4,H-,0,2,4,0,1000,250.0,1,D09JC,307,test
736.5660667419434,5,1,3,0,2,4,H-,1,0,3,0,1000,250.0,0,D09JC,308,test
896.4672088623047,5,1,3,0,2,4,H-,1,2,4,0,1000,250.0,2,D09JC,309,test
608.8080406188965,5,1,3,0,2,4,H-,1,2,4,0,1000,250.0,2,D09JC,310,test
1424.6389865875244,5,1,3,0,2,4,H-,1,5,0,0,1000,250.0,5,D09JC,311,test
1152.660846710205,5,1,3,0,2,4,H-,1,2,4,0,1000,250.0,2,D09JC,312,test
976.5620231628418,5,1,3,0,2,4,H-,1,5,0,0,1000,250.0,5,D09JC,313,test
1008.5699558258057,5,1,3,0,2,4,H-,0,4,5,0,1000,250.0,5,D09JC,314,test
1008.6500644683838,5,1,3,0,2,4,H-,1,3,2,0,1000,250.0,3,D09JC,315,test
896.5799808502197,5,1,3,0,2,4,H-,1,0,3,0,1000,250.0,0,D09JC,316,test
1024.6469974517822,5,1,3,0,2,4,H-,1,3,2,0,1000,250.0,3,D09JC,317,test
864.5639419555664,5,1,3,0,2,4,H-,1,3,2,0,1000,250.0,3,D09JC,318,test
992.5720691680908,5,1,3,0,2,4,H-,1,5,0,0,1000,250.0,5,D09JC,319,test
1664.5889282226562,5,1,3,0,2,4,H-,1,2,4,0,1000,250.0,2,D09JC,320,test
1744.4469928741455,5,1,3,0,2,4,H-,1,1,1,0,1000,250.0,1,D09JC,321,test
1168.5130596160889,5,1,3,0,2,4,H-,1,5,0,0,1000,250.0,5,D09JC,322,test
1232.9490184783936,5,1,3,0,2,4,H-,1,5,0,0,1000,250.0,5,D09JC,323,test
929.1610717773438,5,1,3,0,2,4,H-,1,0,3,0,1000,250.0,0,D09JC,324,test
961.0638618469238,5,1,3,0,2,4,H-,1,3,2,0,1000,250.0,3,D09JC,325,test
1360.9318733215332,5,1,3,0,2,4,H-,1,2,4,0,1000,250.0,2,D09JC,326,test
1329.0770053863525,5,1,3,0,2,4,H-,1,2,4,0,1000,250.0,2,D09JC,327,test
1185.1089000701904,5,1,3,0,2,4,H-,1,4,5,0,1000,250.0,4,D09JC,328,test
1233.0729961395264,5,1,3,0,2,4,H-,1,5,0,0,1000,250.0,5,D09JC,329,test
1248.9690780639648,5,1,3,0,2,4,H-,1,1,1,0,1000,250.0,1,D09JC,330,test
1184.4689846038818,5,1,3,0,2,4,H-,1,5,0,0,1000,250.0,5,D09JC,331,test
1120.58687210083,5,1,3,0,2,4,H-,0,2,4,0,1000,250.0,1,D09JC,332,test
736.461877822876,5,1,3,0,2,4,H-,1,2,4,0,1000,250.0,2,D09JC,333,test
1312.5109672546387,5,1,3,0,2,4,H-,1,4,5,0,1000,250.0,4,D09JC,334,test
896.6710567474365,5,1,3,0,2,4,H-,1,0,3,0,1000,250.0,0,D09JC,335,test
1088.90700340271,5,1,3,0,2,4,H-,1,2,4,0,1000,250.0,2,D09JC,336,test
1024.9030590057373,5,1,3,0,2,4,H-,1,1,1,0,1000,250.0,1,D09JC,337,test
1185.0168704986572,5,1,3,0,2,4,H-,1,4,5,0,1000,250.0,4,D09JC,338,test
1089.0569686889648,5,1,3,0,2,4,H-,1,5,0,0,1000,250.0,5,D09JC,339,test
1568.9830780029297,5,1,3,0,2,4,H-,1,5,0,0,1000,250.0,5,D09JC,340,test
993.027925491333,5,1,3,0,2,4,H-,1,3,2,0,1000,250.0,3,D09JC,341,test
1552.976131439209,5,1,3,0,2,4,H-,1,5,0,0,1000,250.0,5,D09JC,342,test
912.5831127166748,5,1,3,0,2,4,H-,1,5,0,0,1000,250.0,5,D09JC,343,test
1440.4950141906738,5,1,3,0,2,4,H-,1,1,1,0,1000,250.0,1,D09JC,344,test
1296.523094177246,5,1,3,0,2,4,H-,1,5,0,0,1000,250.0,5,D09JC,345,test
992.556095123291,5,1,3,0,2,4,H-,1,0,3,0,1000,250.0,0,D09JC,346,test
624.5260238647461,5,1,3,0,2,4,H-,1,0,3,0,1000,250.0,0,D09JC,347,test
1568.4559345245361,5,1,3,0,2,4,H-,1,1,1,0,1000,250.0,1,D09JC,348,test
640.5339241027832,5,1,3,0,2,4,H-,1,1,1,0,1000,250.0,1,D09JC,349,test
1088.5729789733887,5,1,3,0,2,4,H-,1,3,2,0,1000,250.0,3,D09JC,350,test
832.556962966919,5,1,3,0,2,4,H-,1,0,3,0,1000,250.0,0,D09JC,351,test
1104.5501232147217,5,1,3,0,2,4,H-,1,2,4,0,1000,250.0,2,D09JC,352,test
1344.649076461792,5,1,3,0,2,4,H-,1,4,5,0,1000,250.0,4,D09JC,353,test
1072.5607872009277,5,1,3,0,2,4,H-,1,1,1,0,1000,250.0,1,D09JC,354,test
1184.5979690551758,5,1,3,0,2,4,H-,1,3,2,0,1000,250.0,3,D09JC,355,test
1248.5051155090332,5,1,3,0,2,4,H-,1,4,5,0,1000,250.0,4,D09JC,356,test
1200.4811763763428,5,1,3,0,2,4,H-,1,3,2,0,1000,250.0,3,D09JC,357,test
1248.4819889068604,5,1,3,0,2,4,H-,1,1,1,0,1000,250.0,1,D09JC,358,test
1248.5709190368652,5,1,3,0,2,4,H-,1,3,2,0,1000,250.0,3,D09JC,359,test
752.5460720062256,5,1,3,0,2,4,H-,1,0,3,0,1000,250.0,0,D09JC,360,test
1424.5069026947021,5,1,3,0,2,4,H-,1,4,5,0,1000,250.0,4,D09JC,361,test
1248.8021850585938,5,1,3,0,2,4,H-,1,2,4,0,1000,250.0,2,D09JC,362,test
1120.5909252166748,5,1,3,0,2,4,H-,1,3,2,0,1000,250.0,3,D09JC,363,test
1152.7009010314941,5,1,3,0,2,4,H-,1,0,3,0,1000,250.0,0,D09JC,364,test
1200.5159854888916,5,1,3,0,2,4,H-,1,3,2,0,1000,250.0,3,D09JC,365,test
944.7939395904541,5,1,3,0,2,4,H-,1,2,4,0,1000,250.0,2,D09JC,366,test
832.636833190918,5,1,3,0,2,4,H-,1,0,3,0,1000,250.0,0,D09JC,367,test
1392.3919200897217,5,1,3,0,2,4,H-,1,5,0,0,1000,250.0,5,D09JC,368,test
1152.4419784545898,5,1,3,0,2,4,H-,1,3,2,0,1000,250.0,3,D09JC,369,test
1488.4312152862549,5,1,3,0,2,4,H-,1,1,1,0,1000,250.0,1,D09JC,370,test
720.5009460449219,5,1,3,0,2,4,H-,1,0,3,0,1000,250.0,0,D09JC,371,test
1152.7070999145508,5,1,3,0,2,4,H-,1,3,2,0,1000,250.0,3,D09JC,372,test
1488.659143447876,5,1,3,0,2,4,H-,1,2,4,0,1000,250.0,2,D09JC,373,test
1328.5160064697266,5,1,3,0,2,4,H-,1,1,1,0,1000,250.0,1,D09JC,374,test
832.2598934173584,5,1,3,0,2,4,H-,1,1,1,0,1000,250.0,1,D09JC,375,test
2176.5189170837402,5,1,3,0,2,4,H-,1,2,4,0,1000,250.0,2,D09JC,376,test
1008.5859298706055,5,1,3,0,2,4,H-,1,3,2,0,1000,250.0,3,D09JC,377,test
1072.6571083068848,5,1,3,0,2,4,H-,1,4,5,0,1000,250.0,4,D09JC,378,test
1120.68510055542,5,1,3,0,2,4,H-,1,3,2,0,1000,250.0,3,D09JC,379,test
2032.6519012451172,5,1,3,0,2,4,H-,1,2,4,0,1000,250.0,2,D09JC,380,test
1040.7238006591797,5,1,3,0,2,4,H-,1,3,2,0,1000,250.0,3,D09JC,381,test
1056.6048622131348,5,1,3,0,2,4,H-,1,2,4,0,1000,250.0,2,D09JC,382,test
1152.5518894195557,5,1,3,0,2,4,H-,1,5,0,0,1000,250.0,5,D09JC,383,test
1136.5149021148682,5,1,3,0,2,4,H-,1,5,0,0,1000,250.0,5,D09JC,384,test
1024.5349407196045,5,1,3,0,2,4,H-,1,4,5,0,1000,250.0,4,D09JC,385,test
1392.5211429595947,5,1,3,0,2,4,H-,1,5,0,0,1000,250.0,5,D09JC,386,test
912.5628471374512,5,1,3,0,2,4,H-,1,2,4,0,1000,250.0,2,D09JC,387,test
1088.4909629821777,5,1,3,0,2,4,H-,1,4,5,0,1000,250.0,4,D09JC,388,test
944.5741176605225,5,1,3,0,2,4,H-,1,2,4,0,1000,250.0,2,D09JC,389,test
1664.489984512329,5,1,3,0,2,4,H-,1,1,1,0,1000,250.0,1,D09JC,390,test
737.069845199585,5,1,3,0,2,4,H-,1,1,1,0,1000,250.0,1,D09JC,391,test
977.0369529724121,5,1,3,0,2,4,H-,1,3,2,0,1000,250.0,3,D09JC,392,test
832.942008972168,5,1,3,0,2,4,H-,1,0,3,0,1000,250.0,0,D09JC,393,test
1376.8970966339111,5,1,3,0,2,4,H-,1,4,5,0,1000,250.0,4,D09JC,394,test
801.0420799255371,5,1,3,0,2,4,H-,1,4,5,0,1000,250.0,4,D09JC,395,test
1809.0689182281494,5,1,3,0,2,4,H-,1,2,4,0,1000,250.0,2,D09JC,396,test
833.0409526824951,5,1,3,0,2,4,H-,1,0,3,0,1000,250.0,0,D09JC,397,test
1025.048017501831,5,1,3,0,2,4,H-,1,2,4,0,1000,250.0,2,D09JC,398,test
945.1820850372314,5,1,3,0,2,4,H-,1,3,2,0,1000,250.0,3,D09JC,399,test
1216.9468402862549,5,1,3,0,2,4,H-,1,3,2,0,1000,250.0,3,D09JC,400,test
1105.1108837127686,5,1,3,0,2,4,H-,1,4,5,0,1000,250.0,4,D09JC,401,test
737.0707988739014,5,1,3,0,2,4,H-,1,0,3,0,1000,250.0,0,D09JC,402,test
1600.8961200714111,5,1,3,0,2,4,H-,1,1,1,0,1000,250.0,1,D09JC,403,test
865.0290966033936,5,1,3,0,2,4,H-,1,2,4,0,1000,250.0,2,D09JC,404,test
1568.9499378204346,5,1,3,0,2,4,H-,1,2,4,0,1000,250.0,2,D09JC,405,test
1041.064977645874,5,1,3,0,2,4,H-,1,1,1,0,1000,250.0,1,D09JC,406,test
1009.1040134429932,5,1,3,0,2,4,H-,1,3,2,0,1000,250.0,3,D09JC,407,test
945.0559616088867,5,1,3,0,2,4,H-,1,5,0,0,1000,250.0,5,D09JC,408,test
1873.0709552764893,5,1,3,0,2,4,H-,0,4,5,0,1000,250.0,3,D09JC,409,test
913.0270481109619,5,1,3,0,2,4,H-,1,1,1,0,1000,250.0,1,D09JC,410,test
1329.0441036224365,5,1,3,0,2,4,H-,1,5,0,0,1000,250.0,5,D09JC,411,test
865.0078773498535,5,1,3,0,2,4,H-,1,1,1,0,1000,250.0,1,D09JC,412,test
1312.9620552062988,5,1,3,0,2,4,H-,1,4,5,0,1000,250.0,4,D09JC,413,test
945.0840950012207,5,1,3,0,2,4,H-,1,1,1,0,1000,250.0,1,D09JC,414,test
656.9650173187256,5,1,3,0,2,4,H-,1,0,3,0,1000,250.0,0,D09JC,415,test
960.7069492340088,5,1,3,0,2,4,H-,1,3,2,0,1000,250.0,3,D09JC,416,test
865.077018737793,5,1,3,0,2,4,H-,1,0,3,0,1000,250.0,0,D09JC,417,test
1409.1482162475586,5,1,3,0,2,4,H-,1,5,0,0,1000,250.0,5,D09JC,418,test
1744.994878768921,5,1,3,0,2,4,H-,1,4,5,0,1000,250.0,4,D09JC,419,test
993.056058883667,5,1,3,0,2,4,H-,1,3,2,0,1000,250.0,3,D09JC,420,test
1073.0371475219727,5,1,3,0,2,4,H-,1,5,0,0,1000,250.0,5,D09JC,421,test
1137.1049880981445,5,1,3,0,2,4,H-,1,4,5,0,1000,250.0,4,D09JC,422,test
1264.5211219787598,5,1,3,0,2,4,H-,1,2,4,0,1000,250.0,2,D09JC,423,test
1008.5921287536621,5,1,3,0,2,4,H-,1,1,1,0,1000,250.0,1,D09JC,424,test
688.6401176452637,5,1,3,0,2,4,H-,1,0,3,0,1000,250.0,0,D09JC,425,test
1296.3130474090576,5,1,3,0,2,4,H-,1,5,0,0,1000,250.0,5,D09JC,426,test
913.1131172180176,5,1,3,0,2,4,H-,1,5,0,0,1000,250.0,5,D09JC,427,test
1249.0010261535645,5,1,3,0,2,4,H-,1,4,5,0,1000,250.0,4,D09JC,428,test
1009.0351104736328,5,1,3,0,2,4,H-,1,2,4,0,1000,250.0,2,D09JC,429,test
897.2408771514893,5,1,3,0,2,4,H-,1,2,4,0,1000,250.0,2,D09JC,430,test
1233.0410480499268,5,1,3,0,2,4,H-,1,4,5,0,1000,250.0,4,D09JC,431,test
977.1599769592285,5,1,3,0,2,4,H-,1,4,5,0,1000,250.0,4,D09JC,432,test
801.0420799255371,5,1,3,0,2,4,H-,1,0,3,0,1000,250.0,0,D09JC,433,test
657.0398807525635,5,1,3,0,2,4,H-,1,0,3,0,1000,250.0,0,D09JC,434,test
1520.9450721740723,5,1,3,0,2,4,H-,1,5,0,0,1000,250.0,5,D09JC,435,test
673.0430126190186,5,1,3,0,2,4,H-,1,0,3,0,1000,250.0,0,D09JC,436,test
640.5608654022217,5,1,3,0,2,4,H-,1,0,3,0,1000,250.0,0,D09JC,437,test
976.5610694885254,5,1,3,0,2,4,H-,1,2,4,0,1000,250.0,2,D09JC,438,test
1344.5029258728027,5,1,3,0,2,4,H-,1,4,5,0,1000,250.0,4,D09JC,439,test
2272.449016571045,5,1,3,0,2,4,H-,1,2,4,0,1000,250.0,2,D09JC,440,test
1664.6530628204346,5,1,3,0,2,4,H-,1,3,2,0,1000,250.0,3,D09JC,441,test
1040.614128112793,5,1,3,0,2,4,H-,1,4,5,0,1000,250.0,4,D09JC,442,test
752.5570392608643,5,1,3,0,2,4,H-,1,3,2,0,1000,250.0,3,D09JC,443,test
1088.576078414917,5,1,3,0,2,4,H-,1,0,3,0,1000,250.0,0,D09JC,444,test
815.9620761871338,5,1,3,0,2,4,H-,1,2,4,0,1000,250.0,2,D09JC,445,test
656.5189361572266,5,1,3,0,2,4,H-,1,2,4,0,1000,250.0,2,D09JC,446,test
1088.5999202728271,5,1,3,0,2,4,H-,1,4,5,0,1000,250.0,4,D09JC,447,test
640.6509876251221,5,1,3,0,2,4,H-,1,4,5,0,1000,250.0,4,D09JC,448,test
1153.0179977416992,5,1,3,0,2,4,H-,1,5,0,0,1000,250.0,5,D09JC,449,test
817.0871734619141,5,1,3,0,2,4,H-,1,5,0,0,1000,250.0,5,D09JC,450,test
880.9690475463867,5,1,3,0,2,4,H-,1,3,2,0,1000,250.0,3,D09JC,451,test
1105.0269603729248,5,1,3,0,2,4,H-,1,3,2,0,1000,250.0,3,D09JC,452,test
577.0931243896484,5,1,3,0,2,4,H-,1,3,2,0,1000,250.0,3,D09JC,453,test
1137.063980102539,5,1,3,0,2,4,H-,1,3,2,0,1000,250.0,3,D09JC,454,test
1281.1510562896729,5,1,3,0,2,4,H-,1,1,1,0,1000,250.0,1,D09JC,455,test
1089.0140533447266,5,1,3,0,2,4,H-,0,4,5,0,1000,250.0,5,D09JC,456,test
1136.4390850067139,5,1,3,0,2,4,H-,1,0,3,0,1000,250.0,0,D09JC,457,test
1136.523962020874,5,1,3,0,2,4,H-,1,4,5,0,1000,250.0,4,D09JC,458,test
880.6118965148926,5,1,3,0,2,4,H-,1,0,3,0,1000,250.0,0,D09JC,459,test
976.5279293060303,5,1,3,0,2,4,H-,1,1,1,0,1000,250.0,1,D09JC,460,test
1200.3459930419922,5,1,3,0,2,4,H-,1,5,0,0,1000,250.0,5,D09JC,461,test
976.6271114349365,5,1,3,0,2,4,H-,1,4,5,0,1000,250.0,4,D09JC,462,test
977.2160053253174,5,1,3,0,2,4,H-,1,0,3,0,1000,250.0,0,D09JC,463,test
1024.8198509216309,5,1,3,0,2,4,H-,1,4,5,0,1000,250.0,4,D09JC,464,test
1440.9399032592773,5,1,3,0,2,4,H-,1,1,1,0,1000,250.0,1,D09JC,465,test
1552.915096282959,5,1,3,0,2,4,H-,1,3,2,0,1000,250.0,3,D09JC,466,test
881.0381889343262,5,1,3,0,2,4,H-,1,3,2,0,1000,250.0,3,D09JC,467,test
1121.147871017456,5,1,3,0,2,4,H-,1,5,0,0,1000,250.0,5,D09JC,468,test
1553.0030727386475,5,1,3,0,2,4,H-,1,5,0,0,1000,250.0,5,D09JC,469,test
849.0760326385498,5,1,3,0,2,4,H-,1,0,3,0,1000,250.0,0,D09JC,470,test
1105.1089763641357,5,1,3,0,2,4,H-,1,1,1,0,1000,250.0,1,D09JC,471,test
720.9210395812988,5,1,3,0,2,4,H-,1,0,3,0,1000,250.0,0,D09JC,472,test
609.0350151062012,5,1,3,0,2,4,H-,1,0,3,0,1000,250.0,0,D09JC,473,test
433.00509452819824,5,1,3,0,2,4,H-,0,5,0,0,1000,250.0,0,D09JC,474,test
1264.91117477417,5,1,3,0,2,4,H-,1,3,2,0,1000,250.0,3,D09JC,475,test
528.9640426635742,5,1,3,0,2,4,H-,1,3,2,0,1000,250.0,3,D09JC,476,test
1824.6629238128662,5,1,3,0,2,4,H-,1,1,1,0,1000,250.0,1,D09JC,477,test
1041.0919189453125,5,1,3,0,2,4,H-,1,3,2,0,1000,250.0,3,D09JC,478,test
1169.0168380737305,5,1,3,0,2,4,H-,1,4,5,0,1000,250.0,4,D09JC,479,test
593.0440425872803,5,1,3,0,2,4,H-,1,4,5,0,1000,250.0,4,D09JC,480,test
864.9799823760986,5,1,3,0,2,4,H-,1,0,3,0,1000,250.0,0,D09JC,481,test
961.0729217529297,5,1,3,0,2,4,H-,1,3,2,0,1000,250.0,3,D09JC,482,test
1328.8509845733643,5,1,3,0,2,4,H-,1,1,1,0,1000,250.0,1,D09JC,483,test
1472.9950428009033,5,1,3,0,2,4,H-,1,3,2,0,1000,250.0,3,D09JC,484,test
1120.9897994995117,5,1,3,0,2,4,H-,1,5,0,0,1000,250.0,5,D09JC,485,test
961.0109329223633,5,1,3,0,2,4,H-,1,1,1,0,1000,250.0,1,D09JC,486,test
593.001127243042,5,1,3,0,2,4,H-,1,0,3,0,1000,250.0,0,D09JC,487,test
849.045991897583,5,1,3,0,2,4,H-,1,1,1,0,1000,250.0,1,D09JC,488,test
653.9759635925293,5,1,3,0,2,4,H-,1,1,1,0,1000,250.0,1,D09JC,489,test
944.4248676300049,5,1,3,0,2,4,H-,1,2,4,0,1000,250.0,2,D09JC,490,test
784.5451831817627,5,1,3,0,2,4,H-,1,1,1,0,1000,250.0,1,D09JC,491,test
1072.5719928741455,5,1,3,0,2,4,H-,1,2,4,0,1000,250.0,2,D09JC,492,test
1360.5079650878906,5,1,3,0,2,4,H-,1,3,2,0,1000,250.0,3,D09JC,493,test
768.5821056365967,5,1,3,0,2,4,H-,1,2,4,0,1000,250.0,2,D09JC,494,test
1344.5179462432861,5,1,3,0,2,4,H-,1,5,0,0,1000,250.0,5,D09JC,495,test
880.5379867553711,5,1,3,0,2,4,H-,1,3,2,0,1000,250.0,3,D09JC,496,test
576.5390396118164,5,1,3,0,2,4,H-,1,3,2,0,1000,250.0,3,D09JC,497,test
944.7691440582275,5,1,3,0,2,4,H-,1,4,5,0,1000,250.0,4,D09JC,498,test
1040.3990745544434,5,1,3,0,2,4,H-,1,5,0,0,1000,250.0,5,D09JC,499,test
