RT,SRmap_0,SRmap_1,SRmap_2,SRmap_3,SRmap_4,SRmap_5,condition,correct,correct_response,curstim,ms-precue,ms-prestimblank,ntrials,response,subject,trial,type
32816.344022750854,5,0,1,2,3,4,H-,1,5,0,0,1000,250.0,5,d24pa,0,train
2656.527042388916,5,0,1,2,3,4,H-,1,1,2,0,1000,250.0,1,d24pa,1,train
5008.827924728394,5,0,1,2,3,4,H-,1,3,4,0,1000,250.0,3,d24pa,2,train
2192.93212890625,5,0,1,2,3,4,H-,1,1,2,0,1000,250.0,1,d24pa,3,train
1984.8051071166992,5,0,1,2,3,4,H-,1,1,2,0,1000,250.0,1,d24pa,4,train
1872.6980686187744,5,0,1,2,3,4,H-,1,4,5,0,1000,250.0,4,d24pa,5,train
5440.41109085083,5,0,1,2,3,4,H-,1,5,0,0,1000,250.0,5,d24pa,6,train
1216.8710231781006,5,0,1,2,3,4,H-,1,5,0,0,1000,250.0,5,d24pa,7,train
2465.0518894195557,5,0,1,2,3,4,H-,1,2,3,0,1000,250.0,2,d24pa,8,train
2576.9870281219482,5,0,1,2,3,4,H-,1,0,1,0,1000,250.0,0,d24pa,9,train
4544.981956481934,5,0,1,2,3,4,H-,1,3,4,0,1000,250.0,3,d24pa,10,train
3936.067819595337,5,0,1,2,3,4,H-,1,2,3,0,1000,250.0,2,d24pa,11,train
1072.7009773254395,5,0,1,2,3,4,H-,1,2,3,0,1000,250.0,2,d24pa,12,train
1952.699899673462,5,0,1,2,3,4,H-,1,0,1,0,1000,250.0,0,d24pa,13,train
992.9218292236328,5,0,1,2,3,4,H-,1,0,1,0,1000,250.0,0,d24pa,14,train
2080.873966217041,5,0,1,2,3,4,H-,1,5,0,0,1000,250.0,5,d24pa,15,train
3168.7378883361816,5,0,1,2,3,4,H-,1,3,4,0,1000,250.0,3,d24pa,16,train
3488.5969161987305,5,0,1,2,3,4,H-,1,2,3,0,1000,250.0,2,d24pa,17,train
1264.6899223327637,5,0,1,2,3,4,H-,1,1,2,0,1000,250.0,1,d24pa,18,train
2128.7779808044434,5,0,1,2,3,4,H-,1,4,5,0,1000,250.0,4,d24pa,19,train
1888.942003250122,5,0,1,2,3,4,H-,1,5,0,0,1000,250.0,5,d24pa,20,train
1776.8869400024414,5,0,1,2,3,4,H-,1,0,1,0,1000,250.0,0,d24pa,21,train
1873.0289936065674,5,0,1,2,3,4,H-,1,2,3,0,1000,250.0,2,d24pa,22,train
1200.6199359893799,5,0,1,2,3,4,H-,0,1,2,0,1000,250.0,0,d24pa,23,train
784.8560810089111,5,0,1,2,3,4,H-,1,1,2,0,1000,250.0,1,d24pa,24,train
2464.937925338745,5,0,1,2,3,4,H-,1,3,4,0,1000,250.0,3,d24pa,25,train
1953.0739784240723,5,0,1,2,3,4,H-,1,3,4,0,1000,250.0,3,d24pa,26,train
1392.6899433135986,5,0,1,2,3,4,H-,1,3,4,0,1000,250.0,3,d24pa,27,train
1585.0191116333008,5,0,1,2,3,4,H-,1,4,5,0,1000,250.0,4,d24pa,28,train
3137.1099948883057,5,0,1,2,3,4,H-,1,1,2,0,1000,250.0,1,d24pa,29,train
1857.0411205291748,5,0,1,2,3,4,H-,1,2,3,0,1000,250.0,2,d24pa,30,train
1648.6680507659912,5,0,1,2,3,4,H-,1,1,2,0,1000,250.0,1,d24pa,31,train
912.7240180969238,5,0,1,2,3,4,H-,1,1,2,0,1000,250.0,1,d24pa,32,train
784.8160266876221,5,0,1,2,3,4,H-,1,1,2,0,1000,250.0,1,d24pa,33,train
2656.8551063537598,5,0,1,2,3,4,H-,1,3,4,0,1000,250.0,3,d24pa,34,train
2673.0430126190186,5,0,1,2,3,4,H-,1,4,5,0,1000,250.0,4,d24pa,35,train
4656.836032867432,5,0,1,2,3,4,H-,1,5,0,0,1000,250.0,5,d24pa,36,train
2176.882028579712,5,0,1,2,3,4,H-,1,2,3,0,1000,250.0,2,d24pa,37,train
1264.8561000823975,5,0,1,2,3,4,H-,1,1,2,0,1000,250.0,1,d24pa,38,train
2545.003890991211,5,0,1,2,3,4,H-,1,4,5,0,1000,250.0,4,d24pa,39,train
2528.766870498657,5,0,1,2,3,4,H-,1,0,1,0,1000,250.0,0,d24pa,40,train
1664.8669242858887,5,0,1,2,3,4,H-,1,1,2,0,1000,250.0,1,d24pa,41,train
1664.8778915405273,5,0,1,2,3,4,H-,1,0,1,0,1000,250.0,0,d24pa,42,train
3568.819046020508,5,0,1,2,3,4,H-,1,5,0,0,1000,250.0,5,d24pa,43,train
1680.8109283447266,5,0,1,2,3,4,H-,1,5,0,0,1000,250.0,5,d24pa,44,train
2048.809051513672,5,0,1,2,3,4,H-,1,1,2,0,1000,250.0,1,d24pa,45,train
2256.8399906158447,5,0,1,2,3,4,H-,1,2,3,0,1000,250.0,2,d24pa,46,train
2336.369037628174,5,0,1,2,3,4,H-,1,4,5,0,1000,250.0,4,d24pa,47,train
1984.7898483276367,5,0,1,2,3,4,H-,1,1,2,0,1000,250.0,1,d24pa,48,train
2736.988067626953,5,0,1,2,3,4,H-,1,3,4,0,1000,250.0,3,d24pa,49,train
1904.9170017242432,5,0,1,2,3,4,H-,1,2,3,0,1000,250.0,2,d24pa,50,train
2064.831018447876,5,0,1,2,3,4,H-,1,3,4,0,1000,250.0,3,d24pa,51,train
1680.7379722595215,5,0,1,2,3,4,H-,1,1,2,0,1000,250.0,1,d24pa,52,train
1440.7060146331787,5,0,1,2,3,4,H-,1,2,3,0,1000,250.0,2,d24pa,53,train
2048.7220287323,5,0,1,2,3,4,H-,1,3,4,0,1000,250.0,3,d24pa,54,train
1728.0540466308594,5,0,1,2,3,4,H-,1,4,5,0,1000,250.0,4,d24pa,55,train
1840.7330513000488,5,0,1,2,3,4,H-,1,5,0,0,1000,250.0,5,d24pa,56,train
2480.983018875122,5,0,1,2,3,4,H-,1,3,4,0,1000,250.0,3,d24pa,57,train
1472.9340076446533,5,0,1,2,3,4,H-,1,5,0,0,1000,250.0,5,d24pa,58,train
2640.748977661133,5,0,1,2,3,4,H-,1,3,4,0,1000,250.0,3,d24pa,59,train
1504.7252178192139,5,0,1,2,3,4,H-,1,1,2,0,1000,250.0,1,d24pa,60,train
1696.8591213226318,5,0,1,2,3,4,H-,1,1,2,0,1000,250.0,1,d24pa,61,train
1056.8361282348633,5,0,1,2,3,4,H-,1,1,2,0,1000,250.0,1,d24pa,62,train
2368.8788414001465,5,0,1,2,3,4,H-,1,5,0,0,1000,250.0,5,d24pa,63,train
784.7580909729004,5,0,1,2,3,4,H-,1,5,0,0,1000,250.0,5,d24pa,64,train
2096.9109535217285,5,0,1,2,3,4,H-,1,2,3,0,1000,250.0,2,d24pa,65,train
1984.846830368042,5,0,1,2,3,4,H-,1,3,4,0,1000,250.0,3,d24pa,66,train
1776.7441272735596,5,0,1,2,3,4,H-,1,3,4,0,1000,250.0,3,d24pa,67,train
3616.8508529663086,5,0,1,2,3,4,H-,1,2,3,0,1000,250.0,2,d24pa,68,train
1696.6989040374756,5,0,1,2,3,4,H-,1,3,4,0,1000,250.0,3,d24pa,69,train
1648.7221717834473,5,0,1,2,3,4,H-,1,0,1,0,1000,250.0,0,d24pa,70,train
1776.731014251709,5,0,1,2,3,4,H-,1,2,3,0,1000,250.0,2,d24pa,71,train
2304.780960083008,5,0,1,2,3,4,H-,1,5,0,0,1000,250.0,5,d24pa,72,train
1632.7369213104248,5,0,1,2,3,4,H-,0,1,2,0,1000,250.0,0,d24pa,73,train
784.6889495849609,5,0,1,2,3,4,H-,1,1,2,0,1000,250.0,1,d24pa,74,train
2656.6548347473145,5,0,1,2,3,4,H-,1,5,0,0,1000,250.0,5,d24pa,75,train
1856.360912322998,5,0,1,2,3,4,H-,1,3,4,0,1000,250.0,3,d24pa,76,train
3168.9529418945312,5,0,1,2,3,4,H-,1,3,4,0,1000,250.0,3,d24pa,77,train
1648.7438678741455,5,0,1,2,3,4,H-,1,0,1,0,1000,250.0,0,d24pa,78,train
1008.6719989776611,5,0,1,2,3,4,H-,1,0,1,0,1000,250.0,0,d24pa,79,train
1600.7099151611328,5,0,1,2,3,4,H-,1,1,2,0,1000,250.0,1,d24pa,80,train
1264.8119926452637,5,0,1,2,3,4,H-,1,1,2,0,1000,250.0,1,d24pa,81,train
768.7299251556396,5,0,1,2,3,4,H-,1,1,2,0,1000,250.0,1,d24pa,82,train
2288.7799739837646,5,0,1,2,3,4,H-,1,5,0,0,1000,250.0,5,d24pa,83,train
1216.6759967803955,5,0,1,2,3,4,H-,1,5,0,0,1000,250.0,5,d24pa,84,train
768.7900066375732,5,0,1,2,3,4,H-,1,5,0,0,1000,250.0,5,d24pa,85,train
784.7511768341064,5,0,1,2,3,4,H-,1,5,0,0,1000,250.0,5,d24pa,86,train
1360.8059883117676,5,0,1,2,3,4,H-,1,0,1,0,1000,250.0,0,d24pa,87,train
3040.7791137695312,5,0,1,2,3,4,H-,1,3,4,0,1000,250.0,3,d24pa,88,train
1312.5951290130615,5,0,1,2,3,4,H-,1,0,1,0,1000,250.0,0,d24pa,89,train
1536.7779731750488,5,0,1,2,3,4,H-,1,2,3,0,1000,250.0,2,d24pa,90,train
1344.702959060669,5,0,1,2,3,4,H-,1,1,2,0,1000,250.0,1,d24pa,91,train
2144.7699069976807,5,0,1,2,3,4,H-,1,3,4,0,1000,250.0,3,d24pa,92,train
2608.7281703948975,5,0,1,2,3,4,H-,1,5,0,0,1000,250.0,5,d24pa,93,train
928.4279346466064,5,0,1,2,3,4,H-,1,5,0,0,1000,250.0,5,d24pa,94,train
1424.739122390747,5,0,1,2,3,4,H-,1,0,1,0,1000,250.0,0,d24pa,95,train
880.850076675415,5,0,1,2,3,4,H-,1,1,2,0,1000,250.0,1,d24pa,96,train
1120.737075805664,5,0,1,2,3,4,H-,1,5,0,0,1000,250.0,5,d24pa,97,train
1392.866849899292,5,0,1,2,3,4,H-,1,4,5,0,1000,250.0,4,d24pa,98,train
1872.7600574493408,5,0,1,2,3,4,H-,1,0,1,0,1000,250.0,0,d24pa,99,train
2176.8100261688232,5,0,1,2,3,4,H-,1,3,4,0,1000,250.0,3,d24pa,100,train
2192.751884460449,5,0,1,2,3,4,H-,1,5,0,0,1000,250.0,5,d24pa,101,train
1680.8698177337646,5,0,1,2,3,4,H-,1,1,2,0,1000,250.0,1,d24pa,102,train
1888.7991905212402,5,0,1,2,3,4,H-,1,3,4,0,1000,250.0,3,d24pa,103,train
3392.853021621704,5,0,1,2,3,4,H-,1,3,4,0,1000,250.0,3,d24pa,104,train
736.7398738861084,5,0,1,2,3,4,H-,1,3,4,0,1000,250.0,3,d24pa,105,train
1312.6220703125,5,0,1,2,3,4,H-,1,5,0,0,1000,250.0,5,d24pa,106,train
576.8399238586426,5,0,1,2,3,4,H-,1,5,0,0,1000,250.0,5,d24pa,107,train
1856.7769527435303,5,0,1,2,3,4,H-,1,1,2,0,1000,250.0,1,d24pa,108,train
1456.8090438842773,5,0,1,2,3,4,H-,1,5,0,0,1000,250.0,5,d24pa,109,train
1360.8429431915283,5,0,1,2,3,4,H-,1,1,2,0,1000,250.0,1,d24pa,110,train
1408.7798595428467,5,0,1,2,3,4,H-,1,2,3,0,1000,250.0,2,d24pa,111,train
784.8777770996094,5,0,1,2,3,4,H-,1,2,3,0,1000,250.0,2,d24pa,112,train
2176.841974258423,5,0,1,2,3,4,H-,1,3,4,0,1000,250.0,3,d24pa,113,train
1600.7819175720215,5,0,1,2,3,4,H-,1,2,3,0,1000,250.0,2,d24pa,114,train
1392.6639556884766,5,0,1,2,3,4,H-,1,5,0,0,1000,250.0,5,d24pa,115,train
1216.9170379638672,5,0,1,2,3,4,H-,1,0,1,0,1000,250.0,0,d24pa,116,train
1440.709114074707,5,0,1,2,3,4,H-,1,5,0,0,1000,250.0,5,d24pa,117,train
1040.6980514526367,5,0,1,2,3,4,H-,1,0,1,0,1000,250.0,0,d24pa,118,train
2016.657829284668,5,0,1,2,3,4,H-,1,2,3,0,1000,250.0,2,d24pa,119,train
976.7801761627197,5,0,1,2,3,4,H-,1,0,1,0,1000,250.0,0,d24pa,120,train
960.7911109924316,5,0,1,2,3,4,H-,1,0,1,0,1000,250.0,0,d24pa,121,train
2256.4029693603516,5,0,1,2,3,4,H-,1,4,5,0,1000,250.0,4,d24pa,122,train
2800.6889820098877,5,0,1,2,3,4,H-,1,4,5,0,1000,250.0,4,d24pa,123,train
1392.7009105682373,5,0,1,2,3,4,H-,1,3,4,0,1000,250.0,3,d24pa,124,train
1216.8660163879395,5,0,1,2,3,4,H-,1,3,4,0,1000,250.0,3,d24pa,125,train
1424.7851371765137,5,0,1,2,3,4,H-,1,0,1,0,1000,250.0,0,d24pa,126,train
2000.75101852417,5,0,1,2,3,4,H-,1,4,5,0,1000,250.0,4,d24pa,127,train
1456.4399719238281,5,0,1,2,3,4,H-,1,2,3,0,1000,250.0,2,d24pa,128,train
1424.731969833374,5,0,1,2,3,4,H-,1,5,0,0,1000,250.0,5,d24pa,129,train
1040.876865386963,5,0,1,2,3,4,H-,1,2,3,0,1000,250.0,2,d24pa,130,train
1520.6868648529053,5,0,1,2,3,4,H-,0,4,5,0,1000,250.0,5,d24pa,131,train
1568.7980651855469,5,0,1,2,3,4,H-,1,2,3,0,1000,250.0,2,d24pa,132,train
1360.619068145752,5,0,1,2,3,4,H-,1,2,3,0,1000,250.0,2,d24pa,133,train
1424.787998199463,5,0,1,2,3,4,H-,1,5,0,0,1000,250.0,5,d24pa,134,train
1104.7329902648926,5,0,1,2,3,4,H-,1,2,3,0,1000,250.0,2,d24pa,135,train
1408.656120300293,5,0,1,2,3,4,H-,1,4,5,0,1000,250.0,4,d24pa,136,train
1120.758056640625,5,0,1,2,3,4,H-,1,3,4,0,1000,250.0,3,d24pa,137,train
944.7269439697266,5,0,1,2,3,4,H-,1,2,3,0,1000,250.0,2,d24pa,138,train
1712.834119796753,5,0,1,2,3,4,H-,1,5,0,0,1000,250.0,5,d24pa,139,train
1536.6771221160889,5,0,1,2,3,4,H-,1,1,2,0,1000,250.0,1,d24pa,140,train
1728.827953338623,5,0,1,2,3,4,H-,1,3,4,0,1000,250.0,3,d24pa,141,train
1248.669147491455,5,0,1,2,3,4,H-,1,5,0,0,1000,250.0,5,d24pa,142,train
1376.7259120941162,5,0,1,2,3,4,H-,1,0,1,0,1000,250.0,0,d24pa,143,train
1552.7360439300537,5,0,1,2,3,4,H-,1,5,0,0,1000,250.0,5,d24pa,144,train
1440.6349658966064,5,0,1,2,3,4,H-,1,1,2,0,1000,250.0,1,d24pa,145,train
1632.8010559082031,5,0,1,2,3,4,H-,1,4,5,0,1000,250.0,4,d24pa,146,train
992.5229549407959,5,0,1,2,3,4,H-,1,2,3,0,1000,250.0,2,d24pa,147,train
960.8221054077148,5,0,1,2,3,4,H-,1,2,3,0,1000,250.0,2,d24pa,148,train
1456.6688537597656,5,0,1,2,3,4,H-,1,3,4,0,1000,250.0,3,d24pa,149,train
1520.738124847412,5,0,1,2,3,4,H-,1,3,4,0,1000,250.0,3,d24pa,150,train
992.9080009460449,5,0,1,2,3,4,H-,1,0,1,0,1000,250.0,0,d24pa,151,train
1776.7620086669922,5,0,1,2,3,4,H-,1,5,0,0,1000,250.0,5,d24pa,152,train
1136.8389129638672,5,0,1,2,3,4,H-,1,5,0,0,1000,250.0,5,d24pa,153,train
1280.7888984680176,5,0,1,2,3,4,H-,1,4,5,0,1000,250.0,4,d24pa,154,train
1152.7180671691895,5,0,1,2,3,4,H-,1,3,4,0,1000,250.0,3,d24pa,155,train
1312.696933746338,5,0,1,2,3,4,H-,1,4,5,0,1000,250.0,4,d24pa,156,train
1536.808967590332,5,0,1,2,3,4,H-,1,5,0,0,1000,250.0,5,d24pa,157,train
1424.7441291809082,5,0,1,2,3,4,H-,1,1,2,0,1000,250.0,1,d24pa,158,train
1680.8109283447266,5,0,1,2,3,4,H-,1,4,5,0,1000,250.0,4,d24pa,159,train
1344.7380065917969,5,0,1,2,3,4,H-,1,1,2,0,1000,250.0,1,d24pa,160,train
1664.741039276123,5,0,1,2,3,4,H-,1,0,1,0,1000,250.0,0,d24pa,161,train
1936.729907989502,5,0,1,2,3,4,H-,1,2,3,0,1000,250.0,2,d24pa,162,train
1568.558931350708,5,0,1,2,3,4,H-,1,4,5,0,1000,250.0,4,d24pa,163,train
1216.6790962219238,5,0,1,2,3,4,H-,1,4,5,0,1000,250.0,4,d24pa,164,train
1073.2221603393555,5,0,1,2,3,4,H-,1,0,1,0,1000,250.0,0,d24pa,165,train
496.92392349243164,5,0,1,2,3,4,H-,1,0,1,0,1000,250.0,0,d24pa,166,train
1649.0428447723389,5,0,1,2,3,4,H-,1,4,5,0,1000,250.0,4,d24pa,167,train
1345.0942039489746,5,0,1,2,3,4,H-,1,2,3,0,1000,250.0,2,d24pa,168,train
849.2188453674316,5,0,1,2,3,4,H-,1,0,1,0,1000,250.0,0,d24pa,169,train
1089.0929698944092,5,0,1,2,3,4,H-,0,2,3,0,1000,250.0,0,d24pa,170,train
817.2099590301514,5,0,1,2,3,4,H-,1,2,3,0,1000,250.0,2,d24pa,171,train
1201.1020183563232,5,0,1,2,3,4,H-,1,3,4,0,1000,250.0,3,d24pa,172,train
801.2280464172363,5,0,1,2,3,4,H-,1,3,4,0,1000,250.0,3,d24pa,173,train
1009.2098712921143,5,0,1,2,3,4,H-,1,0,1,0,1000,250.0,0,d24pa,174,train
849.0710258483887,5,0,1,2,3,4,H-,1,2,3,0,1000,250.0,2,d24pa,175,train
1649.0719318389893,5,0,1,2,3,4,H-,1,5,0,0,1000,250.0,5,d24pa,176,train
945.1189041137695,5,0,1,2,3,4,H-,1,2,3,0,1000,250.0,2,d24pa,177,train
1425.1420497894287,5,0,1,2,3,4,H-,1,1,2,0,1000,250.0,1,d24pa,178,train
1777.1010398864746,5,0,1,2,3,4,H-,1,5,0,0,1000,250.0,5,d24pa,179,train
913.2218360900879,5,0,1,2,3,4,H-,1,2,3,0,1000,250.0,2,d24pa,180,train
1280.973196029663,5,0,1,2,3,4,H-,0,3,4,0,1000,250.0,4,d24pa,181,train
689.018964767456,5,0,1,2,3,4,H-,1,3,4,0,1000,250.0,3,d24pa,182,train
1440.9890174865723,5,0,1,2,3,4,H-,1,1,2,0,1000,250.0,1,d24pa,183,train
2129.1518211364746,5,0,1,2,3,4,H-,1,5,0,0,1000,250.0,5,d24pa,184,train
1265.049934387207,5,0,1,2,3,4,H-,0,4,5,0,1000,250.0,5,d24pa,185,train
1552.9849529266357,5,0,1,2,3,4,H-,1,0,1,0,1000,250.0,0,d24pa,186,train
865.034818649292,5,0,1,2,3,4,H-,1,0,1,0,1000,250.0,0,d24pa,187,train
1537.1558666229248,5,0,1,2,3,4,H-,1,4,5,0,1000,250.0,4,d24pa,188,train
1409.1160297393799,5,0,1,2,3,4,H-,1,3,4,0,1000,250.0,3,d24pa,189,train
865.2420043945312,5,0,1,2,3,4,H-,1,0,1,0,1000,250.0,0,d24pa,190,train
593.1000709533691,5,0,1,2,3,4,H-,1,0,1,0,1000,250.0,0,d24pa,191,train
1233.0410480499268,5,0,1,2,3,4,H-,1,2,3,0,1000,250.0,2,d24pa,192,train
1168.816089630127,5,0,1,2,3,4,H-,1,3,4,0,1000,250.0,3,d24pa,193,train
817.1210289001465,5,0,1,2,3,4,H-,1,4,5,0,1000,250.0,4,d24pa,194,train
656.9859981536865,5,0,1,2,3,4,H-,1,4,5,0,1000,250.0,4,d24pa,195,train
769.183874130249,5,0,1,2,3,4,H-,1,0,1,0,1000,250.0,0,d24pa,196,train
1009.1159343719482,5,0,1,2,3,4,H-,1,3,4,0,1000,250.0,3,d24pa,197,train
673.1760501861572,5,0,1,2,3,4,H-,1,3,4,0,1000,250.0,3,d24pa,198,train
897.1338272094727,5,0,1,2,3,4,H-,1,4,5,0,1000,250.0,4,d24pa,199,train
929.2330741882324,5,0,1,2,3,4,H-,1,3,4,0,1000,250.0,3,d24pa,200,train
1073.0299949645996,5,0,1,2,3,4,H-,1,0,1,0,1000,250.0,0,d24pa,201,train
1633.0058574676514,5,0,1,2,3,4,H-,1,2,3,0,1000,250.0,2,d24pa,202,train
1473.1779098510742,5,0,1,2,3,4,H-,0,4,5,0,1000,250.0,5,d24pa,203,train
1009.1698169708252,5,0,1,2,3,4,H-,1,3,4,0,1000,250.0,3,d24pa,204,train
1009.0019702911377,5,0,1,2,3,4,H-,1,0,1,0,1000,250.0,0,d24pa,205,train
801.0871410369873,5,0,1,2,3,4,H-,1,0,1,0,1000,250.0,0,d24pa,206,train
1249.1569519042969,5,0,1,2,3,4,H-,1,1,2,0,1000,250.0,1,d24pa,207,train
2001.2500286102295,5,0,1,2,3,4,H-,1,4,5,0,1000,250.0,4,d24pa,208,train
1121.203899383545,5,0,1,2,3,4,H-,1,3,4,0,1000,250.0,3,d24pa,209,train
1217.087984085083,5,0,1,2,3,4,H-,1,4,5,0,1000,250.0,4,d24pa,210,train
1041.1150455474854,5,0,1,2,3,4,H-,1,2,3,0,1000,250.0,2,d24pa,211,train
1025.1679420471191,5,0,1,2,3,4,H-,1,2,3,0,1000,250.0,2,d24pa,212,train
1377.1419525146484,5,0,1,2,3,4,H-,1,3,4,0,1000,250.0,3,d24pa,213,train
1377.1350383758545,5,0,1,2,3,4,H-,1,5,0,0,1000,250.0,5,d24pa,214,train
1217.0138359069824,5,0,1,2,3,4,H-,1,2,3,0,1000,250.0,2,d24pa,215,train
1185.0237846374512,5,0,1,2,3,4,H-,1,4,5,0,1000,250.0,4,d24pa,216,train
2497.205972671509,5,0,1,2,3,4,H-,1,1,2,0,1000,250.0,1,d24pa,217,train
1777.2331237792969,5,0,1,2,3,4,H-,1,5,0,0,1000,250.0,5,d24pa,218,train
1585.0610733032227,5,0,1,2,3,4,H-,1,1,2,0,1000,250.0,1,d24pa,219,train
1905.229091644287,5,0,1,2,3,4,H-,1,4,5,0,1000,250.0,4,d24pa,220,train
1921.1671352386475,5,0,1,2,3,4,H-,1,1,2,0,1000,250.0,1,d24pa,221,train
1265.15793800354,5,0,1,2,3,4,H-,1,0,1,0,1000,250.0,0,d24pa,222,train
1857.1388721466064,5,0,1,2,3,4,H-,1,5,0,0,1000,250.0,5,d24pa,223,train
1489.0949726104736,5,0,1,2,3,4,H-,1,3,4,0,1000,250.0,3,d24pa,224,train
1537.2178554534912,5,0,1,2,3,4,H-,1,1,2,0,1000,250.0,1,d24pa,225,train
2320.902109146118,5,0,1,2,3,4,H-,1,5,0,0,1000,250.0,5,d24pa,226,train
753.0598640441895,5,0,1,2,3,4,H-,1,5,0,0,1000,250.0,5,d24pa,227,train
1184.865951538086,5,0,1,2,3,4,H-,1,0,1,0,1000,250.0,0,d24pa,228,train
1825.1850605010986,5,0,1,2,3,4,H-,1,3,4,0,1000,250.0,3,d24pa,229,train
2385.150909423828,5,0,1,2,3,4,H-,1,1,2,0,1000,250.0,1,d24pa,230,train
1857.0640087127686,5,0,1,2,3,4,H-,0,3,4,0,1000,250.0,4,d24pa,231,train
1281.1551094055176,5,0,1,2,3,4,H-,1,1,2,0,1000,250.0,1,d24pa,232,train
2193.0718421936035,5,0,1,2,3,4,H-,1,3,4,0,1000,250.0,3,d24pa,233,train
1344.9978828430176,5,0,1,2,3,4,H-,0,4,5,0,1000,250.0,5,d24pa,234,train
1025.1550674438477,5,0,1,2,3,4,H-,1,5,0,0,1000,250.0,5,d24pa,235,train
1360.9800338745117,5,0,1,2,3,4,H-,1,3,4,0,1000,250.0,3,d24pa,236,train
1201.1840343475342,5,0,1,2,3,4,H-,1,0,1,0,1000,250.0,0,d24pa,237,train
1809.1330528259277,5,0,1,2,3,4,H-,1,4,5,0,1000,250.0,4,d24pa,238,train
1393.1231498718262,5,0,1,2,3,4,H-,1,4,5,0,1000,250.0,4,d24pa,239,train
592.8890705108643,5,0,1,2,3,4,H-,1,4,5,0,1000,250.0,4,d24pa,240,train
416.9731140136719,5,0,1,2,3,4,H-,1,4,5,0,1000,250.0,4,d24pa,241,train
1457.2439193725586,5,0,1,2,3,4,H-,1,1,2,0,1000,250.0,1,d24pa,242,train
1329.1850090026855,5,0,1,2,3,4,H-,1,4,5,0,1000,250.0,4,d24pa,243,train
529.2010307312012,5,0,1,2,3,4,H-,1,4,5,0,1000,250.0,4,d24pa,244,train
1040.8940315246582,5,0,1,2,3,4,H-,1,5,0,0,1000,250.0,5,d24pa,245,train
673.1400489807129,5,0,1,2,3,4,H-,1,4,5,0,1000,250.0,4,d24pa,246,train
1265.1968002319336,5,0,1,2,3,4,H-,1,1,2,0,1000,250.0,1,d24pa,247,train
705.1401138305664,5,0,1,2,3,4,H-,1,1,2,0,1000,250.0,1,d24pa,248,train
993.1998252868652,5,0,1,2,3,4,H-,1,5,0,0,1000,250.0,5,d24pa,249,train
3440.941095352173,0,3,5,2,4,1,H-,1,3,1,0,1000,250.0,3,d24pa,250,test
1473.085880279541,0,3,5,2,4,1,H-,0,2,3,0,1000,250.0,1,d24pa,251,test
1632.9419612884521,0,3,5,2,4,1,H-,1,3,1,0,1000,250.0,3,d24pa,252,test
913.0091667175293,0,3,5,2,4,1,H-,1,3,1,0,1000,250.0,3,d24pa,253,test
3393.1589126586914,0,3,5,2,4,1,H-,1,5,2,0,1000,250.0,5,d24pa,254,test
3089.0378952026367,0,3,5,2,4,1,H-,0,5,2,0,1000,250.0,3,d24pa,255,test
1713.075876235962,0,3,5,2,4,1,H-,1,4,4,0,1000,250.0,4,d24pa,256,test
2448.8959312438965,0,3,5,2,4,1,H-,1,0,0,0,1000,250.0,0,d24pa,257,test
2416.7850017547607,0,3,5,2,4,1,H-,1,5,2,0,1000,250.0,5,d24pa,258,test
2273.160219192505,0,3,5,2,4,1,H-,1,1,5,0,1000,250.0,1,d24pa,259,test
641.2348747253418,0,3,5,2,4,1,H-,1,1,5,0,1000,250.0,1,d24pa,260,test
2337.1307849884033,0,3,5,2,4,1,H-,1,0,0,0,1000,250.0,0,d24pa,261,test
833.1799507141113,0,3,5,2,4,1,H-,1,0,0,0,1000,250.0,0,d24pa,262,test
1649.2340564727783,0,3,5,2,4,1,H-,1,3,1,0,1000,250.0,3,d24pa,263,test
1665.1489734649658,0,3,5,2,4,1,H-,1,2,3,0,1000,250.0,2,d24pa,264,test
2353.074073791504,0,3,5,2,4,1,H-,1,5,2,0,1000,250.0,5,d24pa,265,test
1776.9341468811035,0,3,5,2,4,1,H-,1,1,5,0,1000,250.0,1,d24pa,266,test
1793.2429313659668,0,3,5,2,4,1,H-,1,3,1,0,1000,250.0,3,d24pa,267,test
1393.1999206542969,0,3,5,2,4,1,H-,1,1,5,0,1000,250.0,1,d24pa,268,test
2545.0539588928223,0,3,5,2,4,1,H-,1,0,0,0,1000,250.0,0,d24pa,269,test
1905.2419662475586,0,3,5,2,4,1,H-,1,2,3,0,1000,250.0,2,d24pa,270,test
1697.1750259399414,0,3,5,2,4,1,H-,1,4,4,0,1000,250.0,4,d24pa,271,test
1889.1849517822266,0,3,5,2,4,1,H-,1,3,1,0,1000,250.0,3,d24pa,272,test
2081.2160968780518,0,3,5,2,4,1,H-,1,5,2,0,1000,250.0,5,d24pa,273,test
1889.0199661254883,0,3,5,2,4,1,H-,1,4,4,0,1000,250.0,4,d24pa,274,test
1745.2259063720703,0,3,5,2,4,1,H-,1,1,5,0,1000,250.0,1,d24pa,275,test
1856.9979667663574,0,3,5,2,4,1,H-,1,2,3,0,1000,250.0,2,d24pa,276,test
2769.08802986145,0,3,5,2,4,1,H-,1,5,2,0,1000,250.0,5,d24pa,277,test
2209.28692817688,0,3,5,2,4,1,H-,1,1,5,0,1000,250.0,1,d24pa,278,test
1537.174940109253,0,3,5,2,4,1,H-,1,2,3,0,1000,250.0,2,d24pa,279,test
1825.0219821929932,0,3,5,2,4,1,H-,1,3,1,0,1000,250.0,3,d24pa,280,test
2577.0440101623535,0,3,5,2,4,1,H-,1,0,0,0,1000,250.0,0,d24pa,281,test
1665.2469635009766,0,3,5,2,4,1,H-,1,2,3,0,1000,250.0,2,d24pa,282,test
2273.1878757476807,0,3,5,2,4,1,H-,1,5,2,0,1000,250.0,5,d24pa,283,test
2241.2240505218506,0,3,5,2,4,1,H-,1,0,0,0,1000,250.0,0,d24pa,284,test
2721.0350036621094,0,3,5,2,4,1,H-,1,5,2,0,1000,250.0,5,d24pa,285,test
1617.2211170196533,0,3,5,2,4,1,H-,1,2,3,0,1000,250.0,2,d24pa,286,test
2209.177017211914,0,3,5,2,4,1,H-,1,4,4,0,1000,250.0,4,d24pa,287,test
2065.264940261841,0,3,5,2,4,1,H-,1,0,0,0,1000,250.0,0,d24pa,288,test
2225.231885910034,0,3,5,2,4,1,H-,1,4,4,0,1000,250.0,4,d24pa,289,test
977.0019054412842,0,3,5,2,4,1,H-,1,4,4,0,1000,250.0,4,d24pa,290,test
1985.2449893951416,0,3,5,2,4,1,H-,1,3,1,0,1000,250.0,3,d24pa,291,test
1985.2368831634521,0,3,5,2,4,1,H-,1,1,5,0,1000,250.0,1,d24pa,292,test
1953.2339572906494,0,3,5,2,4,1,H-,1,0,0,0,1000,250.0,0,d24pa,293,test
1393.1198120117188,0,3,5,2,4,1,H-,1,2,3,0,1000,250.0,2,d24pa,294,test
1889.2021179199219,0,3,5,2,4,1,H-,1,4,4,0,1000,250.0,4,d24pa,295,test
1729.22682762146,0,3,5,2,4,1,H-,1,5,2,0,1000,250.0,5,d24pa,296,test
1457.1518898010254,0,3,5,2,4,1,H-,1,3,1,0,1000,250.0,3,d24pa,297,test
2385.1780891418457,0,3,5,2,4,1,H-,1,5,2,0,1000,250.0,5,d24pa,298,test
2432.9991340637207,0,3,5,2,4,1,H-,1,0,0,0,1000,250.0,0,d24pa,299,test
800.6889820098877,0,3,5,2,4,1,H-,1,1,5,0,1000,250.0,1,d24pa,300,test
2001.1789798736572,0,3,5,2,4,1,H-,1,4,4,0,1000,250.0,4,d24pa,301,test
1201.158046722412,0,3,5,2,4,1,H-,1,5,2,0,1000,250.0,5,d24pa,302,test
1600.93092918396,0,3,5,2,4,1,H-,1,2,3,0,1000,250.0,2,d24pa,303,test
1264.7099494934082,0,3,5,2,4,1,H-,1,0,0,0,1000,250.0,0,d24pa,304,test
1248.7499713897705,0,3,5,2,4,1,H-,1,2,3,0,1000,250.0,2,d24pa,305,test
752.7539730072021,0,3,5,2,4,1,H-,1,2,3,0,1000,250.0,2,d24pa,306,test
1472.8429317474365,0,3,5,2,4,1,H-,1,5,2,0,1000,250.0,5,d24pa,307,test
1248.7938404083252,0,3,5,2,4,1,H-,1,1,5,0,1000,250.0,1,d24pa,308,test
1744.5998191833496,0,3,5,2,4,1,H-,1,4,4,0,1000,250.0,4,d24pa,309,test
1216.6831493377686,0,3,5,2,4,1,H-,1,5,2,0,1000,250.0,5,d24pa,310,test
1408.7660312652588,0,3,5,2,4,1,H-,1,1,5,0,1000,250.0,1,d24pa,311,test
1936.7609024047852,0,3,5,2,4,1,H-,1,4,4,0,1000,250.0,4,d24pa,312,test
864.8629188537598,0,3,5,2,4,1,H-,1,5,2,0,1000,250.0,5,d24pa,313,test
1120.8429336547852,0,3,5,2,4,1,H-,1,1,5,0,1000,250.0,1,d24pa,314,test
1169.2779064178467,0,3,5,2,4,1,H-,1,2,3,0,1000,250.0,2,d24pa,315,test
2257.179021835327,0,3,5,2,4,1,H-,1,5,2,0,1000,250.0,5,d24pa,316,test
1905.1058292388916,0,3,5,2,4,1,H-,1,0,0,0,1000,250.0,0,d24pa,317,test
1089.3030166625977,0,3,5,2,4,1,H-,1,0,0,0,1000,250.0,0,d24pa,318,test
1777.212142944336,0,3,5,2,4,1,H-,1,5,2,0,1000,250.0,5,d24pa,319,test
2337.104082107544,0,3,5,2,4,1,H-,1,3,1,0,1000,250.0,3,d24pa,320,test
1201.2670040130615,0,3,5,2,4,1,H-,1,1,5,0,1000,250.0,1,d24pa,321,test
1569.1871643066406,0,3,5,2,4,1,H-,1,5,2,0,1000,250.0,5,d24pa,322,test
1265.151023864746,0,3,5,2,4,1,H-,1,4,4,0,1000,250.0,4,d24pa,323,test
2337.2209072113037,0,3,5,2,4,1,H-,1,3,1,0,1000,250.0,3,d24pa,324,test
1761.2278461456299,0,3,5,2,4,1,H-,1,5,2,0,1000,250.0,5,d24pa,325,test
1345.2320098876953,0,3,5,2,4,1,H-,1,4,4,0,1000,250.0,4,d24pa,326,test
1777.2729396820068,0,3,5,2,4,1,H-,1,1,5,0,1000,250.0,1,d24pa,327,test
2337.2039794921875,0,3,5,2,4,1,H-,1,5,2,0,1000,250.0,5,d24pa,328,test
1393.1479454040527,0,3,5,2,4,1,H-,1,3,1,0,1000,250.0,3,d24pa,329,test
833.198070526123,0,3,5,2,4,1,H-,1,3,1,0,1000,250.0,3,d24pa,330,test
865.1330471038818,0,3,5,2,4,1,H-,1,1,5,0,1000,250.0,1,d24pa,331,test
1137.0949745178223,0,3,5,2,4,1,H-,1,0,0,0,1000,250.0,0,d24pa,332,test
737.1461391448975,0,3,5,2,4,1,H-,1,0,0,0,1000,250.0,0,d24pa,333,test
609.1251373291016,0,3,5,2,4,1,H-,1,1,5,0,1000,250.0,1,d24pa,334,test
609.138011932373,0,3,5,2,4,1,H-,1,2,3,0,1000,250.0,2,d24pa,335,test
2929.0828704833984,0,3,5,2,4,1,H-,0,3,1,0,1000,250.0,4,d24pa,336,test
1024.8839855194092,0,3,5,2,4,1,H-,1,4,4,0,1000,250.0,4,d24pa,337,test
1008.8331699371338,0,3,5,2,4,1,H-,1,1,5,0,1000,250.0,1,d24pa,338,test
960.7150554656982,0,3,5,2,4,1,H-,1,2,3,0,1000,250.0,2,d24pa,339,test
1440.359115600586,0,3,5,2,4,1,H-,1,5,2,0,1000,250.0,5,d24pa,340,test
1008.7568759918213,0,3,5,2,4,1,H-,1,4,4,0,1000,250.0,4,d24pa,341,test
832.7760696411133,0,3,5,2,4,1,H-,1,4,4,0,1000,250.0,4,d24pa,342,test
1696.7730522155762,0,3,5,2,4,1,H-,1,0,0,0,1000,250.0,0,d24pa,343,test
1280.5688381195068,0,3,5,2,4,1,H-,1,5,2,0,1000,250.0,5,d24pa,344,test
1200.6440162658691,0,3,5,2,4,1,H-,1,2,3,0,1000,250.0,2,d24pa,345,test
912.8029346466064,0,3,5,2,4,1,H-,1,1,5,0,1000,250.0,1,d24pa,346,test
1792.7179336547852,0,3,5,2,4,1,H-,1,4,4,0,1000,250.0,4,d24pa,347,test
1376.551866531372,0,3,5,2,4,1,H-,1,5,2,0,1000,250.0,5,d24pa,348,test
1520.5988883972168,0,3,5,2,4,1,H-,1,0,0,0,1000,250.0,0,d24pa,349,test
1872.7750778198242,0,3,5,2,4,1,H-,1,4,4,0,1000,250.0,4,d24pa,350,test
1472.73588180542,0,3,5,2,4,1,H-,1,2,3,0,1000,250.0,2,d24pa,351,test
1008.7878704071045,0,3,5,2,4,1,H-,1,1,5,0,1000,250.0,1,d24pa,352,test
1792.8431034088135,0,3,5,2,4,1,H-,1,4,4,0,1000,250.0,4,d24pa,353,test
1248.5408782958984,0,3,5,2,4,1,H-,1,5,2,0,1000,250.0,5,d24pa,354,test
1344.7351455688477,0,3,5,2,4,1,H-,1,5,2,0,1000,250.0,5,d24pa,355,test
1248.7390041351318,0,3,5,2,4,1,H-,1,2,3,0,1000,250.0,2,d24pa,356,test
1632.479190826416,0,3,5,2,4,1,H-,1,0,0,0,1000,250.0,0,d24pa,357,test
944.7360038757324,0,3,5,2,4,1,H-,1,1,5,0,1000,250.0,1,d24pa,358,test
1056.6351413726807,0,3,5,2,4,1,H-,1,2,3,0,1000,250.0,2,d24pa,359,test
2176.7101287841797,0,3,5,2,4,1,H-,1,4,4,0,1000,250.0,4,d24pa,360,test
1552.7949333190918,0,3,5,2,4,1,H-,1,3,1,0,1000,250.0,3,d24pa,361,test
1056.6091537475586,0,3,5,2,4,1,H-,1,1,5,0,1000,250.0,1,d24pa,362,test
2944.804906845093,0,3,5,2,4,1,H-,1,4,4,0,1000,250.0,4,d24pa,363,test
1408.823013305664,0,3,5,2,4,1,H-,1,3,1,0,1000,250.0,3,d24pa,364,test
928.8208484649658,0,3,5,2,4,1,H-,1,3,1,0,1000,250.0,3,d24pa,365,test
1264.7080421447754,0,3,5,2,4,1,H-,1,2,3,0,1000,250.0,2,d24pa,366,test
1568.9420700073242,0,3,5,2,4,1,H-,1,5,2,0,1000,250.0,5,d24pa,367,test
1392.8070068359375,0,3,5,2,4,1,H-,1,1,5,0,1000,250.0,1,d24pa,368,test
912.816047668457,0,3,5,2,4,1,H-,1,1,5,0,1000,250.0,1,d24pa,369,test
1808.948040008545,0,3,5,2,4,1,H-,1,4,4,0,1000,250.0,4,d24pa,370,test
1584.8579406738281,0,3,5,2,4,1,H-,1,0,0,0,1000,250.0,0,d24pa,371,test
1472.787857055664,0,3,5,2,4,1,H-,1,4,4,0,1000,250.0,4,d24pa,372,test
1104.768991470337,0,3,5,2,4,1,H-,1,5,2,0,1000,250.0,5,d24pa,373,test
1776.637077331543,0,3,5,2,4,1,H-,1,3,1,0,1000,250.0,3,d24pa,374,test
1520.6739902496338,0,3,5,2,4,1,H-,1,0,0,0,1000,250.0,0,d24pa,375,test
1024.7578620910645,0,3,5,2,4,1,H-,1,1,5,0,1000,250.0,1,d24pa,376,test
2320.77693939209,0,3,5,2,4,1,H-,1,5,2,0,1000,250.0,5,d24pa,377,test
1008.685827255249,0,3,5,2,4,1,H-,1,4,4,0,1000,250.0,4,d24pa,378,test
976.8719673156738,0,3,5,2,4,1,H-,1,3,1,0,1000,250.0,3,d24pa,379,test
1712.60404586792,0,3,5,2,4,1,H-,1,0,0,0,1000,250.0,0,d24pa,380,test
1424.6950149536133,0,3,5,2,4,1,H-,0,4,4,0,1000,250.0,5,d24pa,381,test
928.8430213928223,0,3,5,2,4,1,H-,1,1,5,0,1000,250.0,1,d24pa,382,test
1456.557035446167,0,3,5,2,4,1,H-,1,3,1,0,1000,250.0,3,d24pa,383,test
1136.883020401001,0,3,5,2,4,1,H-,1,5,2,0,1000,250.0,5,d24pa,384,test
1376.682996749878,0,3,5,2,4,1,H-,1,5,2,0,1000,250.0,5,d24pa,385,test
1168.571949005127,0,3,5,2,4,1,H-,1,1,5,0,1000,250.0,1,d24pa,386,test
1680.8419227600098,0,3,5,2,4,1,H-,1,3,1,0,1000,250.0,3,d24pa,387,test
1200.7288932800293,0,3,5,2,4,1,H-,1,3,1,0,1000,250.0,3,d24pa,388,test
1296.7169284820557,0,3,5,2,4,1,H-,1,2,3,0,1000,250.0,2,d24pa,389,test
1328.7558555603027,0,3,5,2,4,1,H-,1,0,0,0,1000,250.0,0,d24pa,390,test
1056.7700862884521,0,3,5,2,4,1,H-,1,0,0,0,1000,250.0,0,d24pa,391,test
2608.8759899139404,0,3,5,2,4,1,H-,1,5,2,0,1000,250.0,5,d24pa,392,test
1312.6120567321777,0,3,5,2,4,1,H-,1,1,5,0,1000,250.0,1,d24pa,393,test
2512.83597946167,0,3,5,2,4,1,H-,1,4,4,0,1000,250.0,4,d24pa,394,test
1488.7609481811523,0,3,5,2,4,1,H-,1,0,0,0,1000,250.0,0,d24pa,395,test
2448.8601684570312,0,3,5,2,4,1,H-,1,5,2,0,1000,250.0,5,d24pa,396,test
1088.953971862793,0,3,5,2,4,1,H-,1,2,3,0,1000,250.0,2,d24pa,397,test
1616.8429851531982,0,3,5,2,4,1,H-,1,4,4,0,1000,250.0,4,d24pa,398,test
1088.9191627502441,0,3,5,2,4,1,H-,1,3,1,0,1000,250.0,3,d24pa,399,test
848.8249778747559,0,3,5,2,4,1,H-,1,3,1,0,1000,250.0,3,d24pa,400,test
2160.8622074127197,0,3,5,2,4,1,H-,0,4,4,0,1000,250.0,5,d24pa,401,test
976.6910076141357,0,3,5,2,4,1,H-,1,2,3,0,1000,250.0,2,d24pa,402,test
1360.5549335479736,0,3,5,2,4,1,H-,1,0,0,0,1000,250.0,0,d24pa,403,test
1856.9300174713135,0,3,5,2,4,1,H-,1,4,4,0,1000,250.0,4,d24pa,404,test
816.6449069976807,0,3,5,2,4,1,H-,1,4,4,0,1000,250.0,4,d24pa,405,test
1105.0441265106201,0,3,5,2,4,1,H-,1,5,2,0,1000,250.0,5,d24pa,406,test
1280.9371948242188,0,3,5,2,4,1,H-,1,1,5,0,1000,250.0,1,d24pa,407,test
929.0060997009277,0,3,5,2,4,1,H-,1,2,3,0,1000,250.0,2,d24pa,408,test
1057.1539402008057,0,3,5,2,4,1,H-,1,1,5,0,1000,250.0,1,d24pa,409,test
2161.1480712890625,0,3,5,2,4,1,H-,1,4,4,0,1000,250.0,4,d24pa,410,test
1600.9299755096436,0,3,5,2,4,1,H-,1,2,3,0,1000,250.0,2,d24pa,411,test
1440.9689903259277,0,3,5,2,4,1,H-,1,3,1,0,1000,250.0,3,d24pa,412,test
2336.8659019470215,0,3,5,2,4,1,H-,1,4,4,0,1000,250.0,4,d24pa,413,test
2192.913055419922,0,3,5,2,4,1,H-,1,3,1,0,1000,250.0,3,d24pa,414,test
2112.9050254821777,0,3,5,2,4,1,H-,1,0,0,0,1000,250.0,0,d24pa,415,test
673.0639934539795,0,3,5,2,4,1,H-,1,0,0,0,1000,250.0,0,d24pa,416,test
1888.8330459594727,0,3,5,2,4,1,H-,1,3,1,0,1000,250.0,3,d24pa,417,test
1232.9790592193604,0,3,5,2,4,1,H-,1,0,0,0,1000,250.0,0,d24pa,418,test
1040.9879684448242,0,3,5,2,4,1,H-,1,0,0,0,1000,250.0,0,d24pa,419,test
1953.125,0,3,5,2,4,1,H-,1,3,1,0,1000,250.0,3,d24pa,420,test
3488.555908203125,0,3,5,2,4,1,H-,1,5,2,0,1000,250.0,5,d24pa,421,test
1008.5480213165283,0,3,5,2,4,1,H-,1,4,4,0,1000,250.0,4,d24pa,422,test
704.8130035400391,0,3,5,2,4,1,H-,1,4,4,0,1000,250.0,4,d24pa,423,test
1488.7878894805908,0,3,5,2,4,1,H-,1,3,1,0,1000,250.0,3,d24pa,424,test
1472.5639820098877,0,3,5,2,4,1,H-,1,5,2,0,1000,250.0,5,d24pa,425,test
832.7720165252686,0,3,5,2,4,1,H-,1,5,2,0,1000,250.0,5,d24pa,426,test
1232.5499057769775,0,3,5,2,4,1,H-,1,1,5,0,1000,250.0,1,d24pa,427,test
1520.6458568572998,0,3,5,2,4,1,H-,1,1,5,0,1000,250.0,1,d24pa,428,test
1792.8259372711182,0,3,5,2,4,1,H-,1,4,4,0,1000,250.0,4,d24pa,429,test
1232.8619956970215,0,3,5,2,4,1,H-,1,0,0,0,1000,250.0,0,d24pa,430,test
1088.9301300048828,0,3,5,2,4,1,H-,1,2,3,0,1000,250.0,2,d24pa,431,test
1520.8771228790283,0,3,5,2,4,1,H-,1,5,2,0,1000,250.0,5,d24pa,432,test
1312.7920627593994,0,3,5,2,4,1,H-,1,1,5,0,1000,250.0,1,d24pa,433,test
1408.8051319122314,0,3,5,2,4,1,H-,1,4,4,0,1000,250.0,4,d24pa,434,test
1024.7910022735596,0,3,5,2,4,1,H-,1,5,2,0,1000,250.0,5,d24pa,435,test
1040.7979488372803,0,3,5,2,4,1,H-,1,4,4,0,1000,250.0,4,d24pa,436,test
1361.0470294952393,0,3,5,2,4,1,H-,1,5,2,0,1000,250.0,5,d24pa,437,test
833.1120014190674,0,3,5,2,4,1,H-,1,3,1,0,1000,250.0,3,d24pa,438,test
832.8778743743896,0,3,5,2,4,1,H-,1,2,3,0,1000,250.0,2,d24pa,439,test
912.7829074859619,0,3,5,2,4,1,H-,1,1,5,0,1000,250.0,1,d24pa,440,test
928.8830757141113,0,3,5,2,4,1,H-,1,0,0,0,1000,250.0,0,d24pa,441,test
672.2397804260254,0,3,5,2,4,1,H-,1,1,5,0,1000,250.0,1,d24pa,442,test
1072.6690292358398,0,3,5,2,4,1,H-,1,3,1,0,1000,250.0,3,d24pa,443,test
1232.7120304107666,0,3,5,2,4,1,H-,1,1,5,0,1000,250.0,1,d24pa,444,test
1248.7690448760986,0,3,5,2,4,1,H-,1,4,4,0,1000,250.0,4,d24pa,445,test
1376.7499923706055,0,3,5,2,4,1,H-,1,0,0,0,1000,250.0,0,d24pa,446,test
1520.6799507141113,0,3,5,2,4,1,H-,1,5,2,0,1000,250.0,5,d24pa,447,test
1328.8440704345703,0,3,5,2,4,1,H-,1,1,5,0,1000,250.0,1,d24pa,448,test
912.8799438476562,0,3,5,2,4,1,H-,1,1,5,0,1000,250.0,1,d24pa,449,test
1840.7750129699707,0,3,5,2,4,1,H-,1,5,2,0,1000,250.0,5,d24pa,450,test
1329.1521072387695,0,3,5,2,4,1,H-,1,0,0,0,1000,250.0,0,d24pa,451,test
977.0040512084961,0,3,5,2,4,1,H-,1,2,3,0,1000,250.0,2,d24pa,452,test
832.8831195831299,0,3,5,2,4,1,H-,1,3,1,0,1000,250.0,3,d24pa,453,test
1024.6410369873047,0,3,5,2,4,1,H-,1,0,0,0,1000,250.0,0,d24pa,454,test
1200.6909847259521,0,3,5,2,4,1,H-,1,3,1,0,1000,250.0,3,d24pa,455,test
1184.9708557128906,0,3,5,2,4,1,H-,1,5,2,0,1000,250.0,5,d24pa,456,test
769.538164138794,0,3,5,2,4,1,H-,1,3,1,0,1000,250.0,3,d24pa,457,test
1681.9648742675781,0,3,5,2,4,1,H-,1,0,0,0,1000,250.0,0,d24pa,458,test
1297.6438999176025,0,3,5,2,4,1,H-,1,5,2,0,1000,250.0,5,d24pa,459,test
1313.7481212615967,0,3,5,2,4,1,H-,1,5,2,0,1000,250.0,5,d24pa,460,test
753.4730434417725,0,3,5,2,4,1,H-,1,5,2,0,1000,250.0,5,d24pa,461,test
1201.758861541748,0,3,5,2,4,1,H-,1,1,5,0,1000,250.0,1,d24pa,462,test
1201.719045639038,0,3,5,2,4,1,H-,1,3,1,0,1000,250.0,3,d24pa,463,test
721.4891910552979,0,3,5,2,4,1,H-,1,3,1,0,1000,250.0,3,d24pa,464,test
544.7359085083008,0,3,5,2,4,1,H-,1,3,1,0,1000,250.0,3,d24pa,465,test
976.7639636993408,0,3,5,2,4,1,H-,1,2,3,0,1000,250.0,2,d24pa,466,test
768.704891204834,0,3,5,2,4,1,H-,1,1,5,0,1000,250.0,1,d24pa,467,test
1488.619089126587,0,3,5,2,4,1,H-,1,5,2,0,1000,250.0,5,d24pa,468,test
864.6581172943115,0,3,5,2,4,1,H-,1,3,1,0,1000,250.0,3,d24pa,469,test
784.7640514373779,0,3,5,2,4,1,H-,1,4,4,0,1000,250.0,4,d24pa,470,test
832.827091217041,0,3,5,2,4,1,H-,1,3,1,0,1000,250.0,3,d24pa,471,test
1344.491958618164,0,3,5,2,4,1,H-,1,4,4,0,1000,250.0,4,d24pa,472,test
1040.6429767608643,0,3,5,2,4,1,H-,1,2,3,0,1000,250.0,2,d24pa,473,test
1232.8450679779053,0,3,5,2,4,1,H-,1,3,1,0,1000,250.0,3,d24pa,474,test
1313.197135925293,0,3,5,2,4,1,H-,1,0,0,0,1000,250.0,0,d24pa,475,test
864.9230003356934,0,3,5,2,4,1,H-,1,2,3,0,1000,250.0,2,d24pa,476,test
1152.9240608215332,0,3,5,2,4,1,H-,1,0,0,0,1000,250.0,0,d24pa,477,test
1600.4600524902344,0,3,5,2,4,1,H-,1,5,2,0,1000,250.0,5,d24pa,478,test
1104.8810482025146,0,3,5,2,4,1,H-,1,3,1,0,1000,250.0,3,d24pa,479,test
609.0030670166016,0,3,5,2,4,1,H-,1,3,1,0,1000,250.0,3,d24pa,480,test
1185.086965560913,0,3,5,2,4,1,H-,1,5,2,0,1000,250.0,5,d24pa,481,test
976.9339561462402,0,3,5,2,4,1,H-,1,3,1,0,1000,250.0,3,d24pa,482,test
1888.944149017334,0,3,5,2,4,1,H-,1,4,4,0,1000,250.0,4,d24pa,483,test
1200.7520198822021,0,3,5,2,4,1,H-,1,1,5,0,1000,250.0,1,d24pa,484,test
1329.0109634399414,0,3,5,2,4,1,H-,1,4,4,0,1000,250.0,4,d24pa,485,test
992.9640293121338,0,3,5,2,4,1,H-,1,5,2,0,1000,250.0,5,d24pa,486,test
784.8420143127441,0,3,5,2,4,1,H-,1,4,4,0,1000,250.0,4,d24pa,487,test
768.7728404998779,0,3,5,2,4,1,H-,1,4,4,0,1000,250.0,4,d24pa,488,test
640.9668922424316,0,3,5,2,4,1,H-,1,4,4,0,1000,250.0,4,d24pa,489,test
1088.3259773254395,0,3,5,2,4,1,H-,1,0,0,0,1000,250.0,0,d24pa,490,test
1089.1311168670654,0,3,5,2,4,1,H-,1,3,1,0,1000,250.0,3,d24pa,491,test
528.7570953369141,0,3,5,2,4,1,H-,1,3,1,0,1000,250.0,3,d24pa,492,test
1280.761957168579,0,3,5,2,4,1,H-,1,0,0,0,1000,250.0,0,d24pa,493,test
593.2168960571289,0,3,5,2,4,1,H-,1,1,5,0,1000,250.0,1,d24pa,494,test
736.7761135101318,0,3,5,2,4,1,H-,1,2,3,0,1000,250.0,2,d24pa,495,test
1649.2300033569336,0,3,5,2,4,1,H-,1,5,2,0,1000,250.0,5,d24pa,496,test
1537.1971130371094,0,3,5,2,4,1,H-,1,0,0,0,1000,250.0,0,d24pa,497,test
1360.7878684997559,0,3,5,2,4,1,H-,1,4,4,0,1000,250.0,4,d24pa,498,test
1137.2148990631104,0,3,5,2,4,1,H-,1,5,2,0,1000,250.0,5,d24pa,499,test
