RT,SRmap_0,SRmap_1,SRmap_2,SRmap_3,SRmap_4,SRmap_5,condition,correct,correct_response,curstim,ms-precue,ms-prestimblank,ntrials,response,subject,trial,type
6432.225942611694,2,4,3,5,1,0,H-,0,4,1,0,1000,250.0,3,C19MI,0,train
4112.60199546814,2,4,3,5,1,0,H-,1,0,5,0,1000,250.0,0,C19MI,1,train
976.8350124359131,2,4,3,5,1,0,H-,1,0,5,0,1000,250.0,0,C19MI,2,train
2736.9980812072754,2,4,3,5,1,0,H-,1,0,5,0,1000,250.0,0,C19MI,3,train
3456.921100616455,2,4,3,5,1,0,H-,1,5,3,0,1000,250.0,5,C19MI,4,train
3456.7489624023438,2,4,3,5,1,0,H-,1,1,4,0,1000,250.0,1,C19MI,5,train
832.9389095306396,2,4,3,5,1,0,H-,1,0,5,0,1000,250.0,0,C19MI,6,train
1600.7640361785889,2,4,3,5,1,0,H-,1,2,0,0,1000,250.0,2,C19MI,7,train
2144.624948501587,2,4,3,5,1,0,H-,1,5,3,0,1000,250.0,5,C19MI,8,train
2737.1039390563965,2,4,3,5,1,0,H-,1,5,3,0,1000,250.0,5,C19MI,9,train
688.8918876647949,2,4,3,5,1,0,H-,1,0,5,0,1000,250.0,0,C19MI,10,train
1168.6298847198486,2,4,3,5,1,0,H-,1,4,1,0,1000,250.0,4,C19MI,11,train
1280.9059619903564,2,4,3,5,1,0,H-,1,5,3,0,1000,250.0,5,C19MI,12,train
2080.8660984039307,2,4,3,5,1,0,H-,1,5,3,0,1000,250.0,5,C19MI,13,train
1089.1189575195312,2,4,3,5,1,0,H-,1,4,1,0,1000,250.0,4,C19MI,14,train
816.7572021484375,2,4,3,5,1,0,H-,1,0,5,0,1000,250.0,0,C19MI,15,train
656.9099426269531,2,4,3,5,1,0,H-,1,0,5,0,1000,250.0,0,C19MI,16,train
1905.0090312957764,2,4,3,5,1,0,H-,1,3,2,0,1000,250.0,3,C19MI,17,train
544.6939468383789,2,4,3,5,1,0,H-,1,0,5,0,1000,250.0,0,C19MI,18,train
784.8629951477051,2,4,3,5,1,0,H-,1,2,0,0,1000,250.0,2,C19MI,19,train
656.9950580596924,2,4,3,5,1,0,H-,0,2,0,0,1000,250.0,1,C19MI,20,train
1504.8861503601074,2,4,3,5,1,0,H-,1,1,4,0,1000,250.0,1,C19MI,21,train
512.4530792236328,2,4,3,5,1,0,H-,1,0,5,0,1000,250.0,0,C19MI,22,train
672.900915145874,2,4,3,5,1,0,H-,1,0,5,0,1000,250.0,0,C19MI,23,train
608.9320182800293,2,4,3,5,1,0,H-,1,3,2,0,1000,250.0,3,C19MI,24,train
575.5259990692139,2,4,3,5,1,0,H-,1,0,5,0,1000,250.0,0,C19MI,25,train
528.8238525390625,2,4,3,5,1,0,H-,1,0,5,0,1000,250.0,0,C19MI,26,train
576.76100730896,2,4,3,5,1,0,H-,1,0,5,0,1000,250.0,0,C19MI,27,train
800.7700443267822,2,4,3,5,1,0,H-,1,1,4,0,1000,250.0,1,C19MI,28,train
624.8750686645508,2,4,3,5,1,0,H-,1,0,5,0,1000,250.0,0,C19MI,29,train
576.7180919647217,2,4,3,5,1,0,H-,1,0,5,0,1000,250.0,0,C19MI,30,train
848.6051559448242,2,4,3,5,1,0,H-,1,5,3,0,1000,250.0,5,C19MI,31,train
528.9158821105957,2,4,3,5,1,0,H-,1,0,5,0,1000,250.0,0,C19MI,32,train
640.6228542327881,2,4,3,5,1,0,H-,1,3,2,0,1000,250.0,3,C19MI,33,train
816.8032169342041,2,4,3,5,1,0,H-,1,3,2,0,1000,250.0,3,C19MI,34,train
640.963077545166,2,4,3,5,1,0,H-,0,5,3,0,1000,250.0,0,C19MI,35,train
512.6559734344482,2,4,3,5,1,0,H-,1,0,5,0,1000,250.0,0,C19MI,36,train
752.5200843811035,2,4,3,5,1,0,H-,1,5,3,0,1000,250.0,5,C19MI,37,train
928.8909435272217,2,4,3,5,1,0,H-,1,4,1,0,1000,250.0,4,C19MI,38,train
928.6329746246338,2,4,3,5,1,0,H-,0,4,1,0,1000,250.0,3,C19MI,39,train
848.9840030670166,2,4,3,5,1,0,H-,1,5,3,0,1000,250.0,5,C19MI,40,train
944.5569515228271,2,4,3,5,1,0,H-,1,3,2,0,1000,250.0,3,C19MI,41,train
784.8188877105713,2,4,3,5,1,0,H-,1,3,2,0,1000,250.0,3,C19MI,42,train
592.7979946136475,2,4,3,5,1,0,H-,1,3,2,0,1000,250.0,3,C19MI,43,train
512.9299163818359,2,4,3,5,1,0,H-,1,3,2,0,1000,250.0,3,C19MI,44,train
1216.996192932129,2,4,3,5,1,0,H-,1,2,0,0,1000,250.0,2,C19MI,45,train
560.8828067779541,2,4,3,5,1,0,H-,1,0,5,0,1000,250.0,0,C19MI,46,train
656.5978527069092,2,4,3,5,1,0,H-,1,3,2,0,1000,250.0,3,C19MI,47,train
576.164960861206,2,4,3,5,1,0,H-,1,0,5,0,1000,250.0,0,C19MI,48,train
480.6859493255615,2,4,3,5,1,0,H-,1,0,5,0,1000,250.0,0,C19MI,49,train
704.5669555664062,2,4,3,5,1,0,H-,0,2,0,0,1000,250.0,1,C19MI,50,train
656.8090915679932,2,4,3,5,1,0,H-,0,5,3,0,1000,250.0,0,C19MI,51,train
672.9450225830078,2,4,3,5,1,0,H-,1,0,5,0,1000,250.0,0,C19MI,52,train
832.892894744873,2,4,3,5,1,0,H-,1,1,4,0,1000,250.0,1,C19MI,53,train
784.6949100494385,2,4,3,5,1,0,H-,1,1,4,0,1000,250.0,1,C19MI,54,train
592.8010940551758,2,4,3,5,1,0,H-,1,1,4,0,1000,250.0,1,C19MI,55,train
928.6999702453613,2,4,3,5,1,0,H-,1,3,2,0,1000,250.0,3,C19MI,56,train
672.6889610290527,2,4,3,5,1,0,H-,0,5,3,0,1000,250.0,0,C19MI,57,train
1136.6159915924072,2,4,3,5,1,0,H-,1,4,1,0,1000,250.0,4,C19MI,58,train
1056.9632053375244,2,4,3,5,1,0,H-,1,3,2,0,1000,250.0,3,C19MI,59,train
1024.9171257019043,2,4,3,5,1,0,H-,1,2,0,0,1000,250.0,2,C19MI,60,train
816.8010711669922,2,4,3,5,1,0,H-,1,1,4,0,1000,250.0,1,C19MI,61,train
1568.572998046875,2,4,3,5,1,0,H-,1,2,0,0,1000,250.0,2,C19MI,62,train
528.9180278778076,2,4,3,5,1,0,H-,1,1,4,0,1000,250.0,1,C19MI,63,train
544.9831485748291,2,4,3,5,1,0,H-,1,0,5,0,1000,250.0,0,C19MI,64,train
656.8708419799805,2,4,3,5,1,0,H-,1,1,4,0,1000,250.0,1,C19MI,65,train
912.7781391143799,2,4,3,5,1,0,H-,1,4,1,0,1000,250.0,4,C19MI,66,train
993.0999279022217,2,4,3,5,1,0,H-,1,2,0,0,1000,250.0,2,C19MI,67,train
608.6421012878418,2,4,3,5,1,0,H-,1,1,4,0,1000,250.0,1,C19MI,68,train
976.7940044403076,2,4,3,5,1,0,H-,1,0,5,0,1000,250.0,0,C19MI,69,train
1120.732069015503,2,4,3,5,1,0,H-,1,3,2,0,1000,250.0,3,C19MI,70,train
672.8079319000244,2,4,3,5,1,0,H-,1,3,2,0,1000,250.0,3,C19MI,71,train
816.8060779571533,2,4,3,5,1,0,H-,1,5,3,0,1000,250.0,5,C19MI,72,train
833.0159187316895,2,4,3,5,1,0,H-,1,5,3,0,1000,250.0,5,C19MI,73,train
528.9490222930908,2,4,3,5,1,0,H-,1,5,3,0,1000,250.0,5,C19MI,74,train
768.7039375305176,2,4,3,5,1,0,H-,1,3,2,0,1000,250.0,3,C19MI,75,train
656.5520763397217,2,4,3,5,1,0,H-,1,0,5,0,1000,250.0,0,C19MI,76,train
768.9051628112793,2,4,3,5,1,0,H-,1,2,0,0,1000,250.0,2,C19MI,77,train
624.9589920043945,2,4,3,5,1,0,H-,0,5,3,0,1000,250.0,0,C19MI,78,train
816.7459964752197,2,4,3,5,1,0,H-,1,0,5,0,1000,250.0,0,C19MI,79,train
624.4997978210449,2,4,3,5,1,0,H-,1,0,5,0,1000,250.0,0,C19MI,80,train
385.1001262664795,2,4,3,5,1,0,H-,1,5,3,0,1000,250.0,5,C19MI,81,train
688.6520385742188,2,4,3,5,1,0,H-,1,1,4,0,1000,250.0,1,C19MI,82,train
1169.0828800201416,2,4,3,5,1,0,H-,1,1,4,0,1000,250.0,1,C19MI,83,train
960.9279632568359,2,4,3,5,1,0,H-,1,2,0,0,1000,250.0,2,C19MI,84,train
656.8081378936768,2,4,3,5,1,0,H-,1,2,0,0,1000,250.0,2,C19MI,85,train
1008.8589191436768,2,4,3,5,1,0,H-,1,3,2,0,1000,250.0,3,C19MI,86,train
848.9198684692383,2,4,3,5,1,0,H-,1,4,1,0,1000,250.0,4,C19MI,87,train
881.0348510742188,2,4,3,5,1,0,H-,1,2,0,0,1000,250.0,2,C19MI,88,train
672.8460788726807,2,4,3,5,1,0,H-,1,0,5,0,1000,250.0,0,C19MI,89,train
704.6730518341064,2,4,3,5,1,0,H-,0,2,0,0,1000,250.0,1,C19MI,90,train
672.8699207305908,2,4,3,5,1,0,H-,1,1,4,0,1000,250.0,1,C19MI,91,train
609.0090274810791,2,4,3,5,1,0,H-,1,0,5,0,1000,250.0,0,C19MI,92,train
880.8119297027588,2,4,3,5,1,0,H-,1,2,0,0,1000,250.0,2,C19MI,93,train
944.7269439697266,2,4,3,5,1,0,H-,1,4,1,0,1000,250.0,4,C19MI,94,train
688.7011528015137,2,4,3,5,1,0,H-,1,0,5,0,1000,250.0,0,C19MI,95,train
640.7668590545654,2,4,3,5,1,0,H-,1,5,3,0,1000,250.0,5,C19MI,96,train
640.8929824829102,2,4,3,5,1,0,H-,1,0,5,0,1000,250.0,0,C19MI,97,train
896.8098163604736,2,4,3,5,1,0,H-,1,3,2,0,1000,250.0,3,C19MI,98,train
1056.8630695343018,2,4,3,5,1,0,H-,1,3,2,0,1000,250.0,3,C19MI,99,train
656.764030456543,2,4,3,5,1,0,H-,1,5,3,0,1000,250.0,5,C19MI,100,train
928.6460876464844,2,4,3,5,1,0,H-,1,1,4,0,1000,250.0,1,C19MI,101,train
1072.7880001068115,2,4,3,5,1,0,H-,1,4,1,0,1000,250.0,4,C19MI,102,train
640.6199932098389,2,4,3,5,1,0,H-,1,0,5,0,1000,250.0,0,C19MI,103,train
1024.507999420166,2,4,3,5,1,0,H-,1,3,2,0,1000,250.0,3,C19MI,104,train
672.8041172027588,2,4,3,5,1,0,H-,1,3,2,0,1000,250.0,3,C19MI,105,train
880.7320594787598,2,4,3,5,1,0,H-,1,5,3,0,1000,250.0,5,C19MI,106,train
688.8711452484131,2,4,3,5,1,0,H-,1,4,1,0,1000,250.0,4,C19MI,107,train
1024.7390270233154,2,4,3,5,1,0,H-,1,4,1,0,1000,250.0,4,C19MI,108,train
656.8889617919922,2,4,3,5,1,0,H-,1,1,4,0,1000,250.0,1,C19MI,109,train
704.2310237884521,2,4,3,5,1,0,H-,1,2,0,0,1000,250.0,2,C19MI,110,train
976.6910076141357,2,4,3,5,1,0,H-,1,4,1,0,1000,250.0,4,C19MI,111,train
608.471155166626,2,4,3,5,1,0,H-,1,0,5,0,1000,250.0,0,C19MI,112,train
672.7449893951416,2,4,3,5,1,0,H-,1,0,5,0,1000,250.0,0,C19MI,113,train
848.9401340484619,2,4,3,5,1,0,H-,1,4,1,0,1000,250.0,4,C19MI,114,train
799.3350028991699,2,4,3,5,1,0,H-,1,1,4,0,1000,250.0,1,C19MI,115,train
1056.8020343780518,2,4,3,5,1,0,H-,1,3,2,0,1000,250.0,3,C19MI,116,train
992.9180145263672,2,4,3,5,1,0,H-,1,2,0,0,1000,250.0,2,C19MI,117,train
560.5330467224121,2,4,3,5,1,0,H-,1,1,4,0,1000,250.0,1,C19MI,118,train
944.8771476745605,2,4,3,5,1,0,H-,1,4,1,0,1000,250.0,4,C19MI,119,train
1184.8251819610596,2,4,3,5,1,0,H-,1,3,2,0,1000,250.0,3,C19MI,120,train
704.8079967498779,2,4,3,5,1,0,H-,1,0,5,0,1000,250.0,0,C19MI,121,train
878.7050247192383,2,4,3,5,1,0,H-,1,1,4,0,1000,250.0,1,C19MI,122,train
880.6190490722656,2,4,3,5,1,0,H-,1,4,1,0,1000,250.0,4,C19MI,123,train
512.9070281982422,2,4,3,5,1,0,H-,1,4,1,0,1000,250.0,4,C19MI,124,train
480.6709289550781,2,4,3,5,1,0,H-,1,1,4,0,1000,250.0,1,C19MI,125,train
528.9578437805176,2,4,3,5,1,0,H-,1,0,5,0,1000,250.0,0,C19MI,126,train
576.5361785888672,2,4,3,5,1,0,H-,1,1,4,0,1000,250.0,1,C19MI,127,train
527.7900695800781,2,4,3,5,1,0,H-,1,0,5,0,1000,250.0,0,C19MI,128,train
416.6438579559326,2,4,3,5,1,0,H-,1,5,3,0,1000,250.0,5,C19MI,129,train
640.9168243408203,2,4,3,5,1,0,H-,1,0,5,0,1000,250.0,0,C19MI,130,train
512.8509998321533,2,4,3,5,1,0,H-,1,1,4,0,1000,250.0,1,C19MI,131,train
463.8099670410156,2,4,3,5,1,0,H-,1,0,5,0,1000,250.0,0,C19MI,132,train
624.6988773345947,2,4,3,5,1,0,H-,1,4,1,0,1000,250.0,4,C19MI,133,train
433.06899070739746,2,4,3,5,1,0,H-,1,4,1,0,1000,250.0,4,C19MI,134,train
576.7490863800049,2,4,3,5,1,0,H-,0,2,0,0,1000,250.0,1,C19MI,135,train
529.0122032165527,2,4,3,5,1,0,H-,1,0,5,0,1000,250.0,0,C19MI,136,train
560.7461929321289,2,4,3,5,1,0,H-,1,0,5,0,1000,250.0,0,C19MI,137,train
624.985933303833,2,4,3,5,1,0,H-,1,1,4,0,1000,250.0,1,C19MI,138,train
848.4680652618408,2,4,3,5,1,0,H-,1,2,0,0,1000,250.0,2,C19MI,139,train
816.6241645812988,2,4,3,5,1,0,H-,1,5,3,0,1000,250.0,5,C19MI,140,train
1489.044189453125,2,4,3,5,1,0,H-,1,1,4,0,1000,250.0,1,C19MI,141,train
560.8029365539551,2,4,3,5,1,0,H-,1,0,5,0,1000,250.0,0,C19MI,142,train
752.5160312652588,2,4,3,5,1,0,H-,1,3,2,0,1000,250.0,3,C19MI,143,train
576.915979385376,2,4,3,5,1,0,H-,1,0,5,0,1000,250.0,0,C19MI,144,train
880.9280395507812,2,4,3,5,1,0,H-,1,4,1,0,1000,250.0,4,C19MI,145,train
560.6918334960938,2,4,3,5,1,0,H-,1,0,5,0,1000,250.0,0,C19MI,146,train
752.4440288543701,2,4,3,5,1,0,H-,1,4,1,0,1000,250.0,4,C19MI,147,train
560.6651306152344,2,4,3,5,1,0,H-,1,4,1,0,1000,250.0,4,C19MI,148,train
720.9200859069824,2,4,3,5,1,0,H-,1,5,3,0,1000,250.0,5,C19MI,149,train
608.738899230957,2,4,3,5,1,0,H-,1,5,3,0,1000,250.0,5,C19MI,150,train
592.7951335906982,2,4,3,5,1,0,H-,1,4,1,0,1000,250.0,4,C19MI,151,train
432.76000022888184,2,4,3,5,1,0,H-,1,4,1,0,1000,250.0,4,C19MI,152,train
544.9109077453613,2,4,3,5,1,0,H-,1,5,3,0,1000,250.0,5,C19MI,153,train
464.9698734283447,2,4,3,5,1,0,H-,0,2,0,0,1000,250.0,0,C19MI,154,train
432.9850673675537,2,4,3,5,1,0,H-,1,2,0,0,1000,250.0,2,C19MI,155,train
463.85788917541504,2,4,3,5,1,0,H-,1,2,0,0,1000,250.0,2,C19MI,156,train
592.8969383239746,2,4,3,5,1,0,H-,1,0,5,0,1000,250.0,0,C19MI,157,train
656.9530963897705,2,4,3,5,1,0,H-,1,1,4,0,1000,250.0,1,C19MI,158,train
704.6940326690674,2,4,3,5,1,0,H-,1,4,1,0,1000,250.0,4,C19MI,159,train
961.0190391540527,2,4,3,5,1,0,H-,1,2,0,0,1000,250.0,2,C19MI,160,train
720.9470272064209,2,4,3,5,1,0,H-,1,4,1,0,1000,250.0,4,C19MI,161,train
656.6810607910156,2,4,3,5,1,0,H-,1,4,1,0,1000,250.0,4,C19MI,162,train
544.7120666503906,2,4,3,5,1,0,H-,1,1,4,0,1000,250.0,1,C19MI,163,train
544.7490215301514,2,4,3,5,1,0,H-,1,1,4,0,1000,250.0,1,C19MI,164,train
656.562089920044,2,4,3,5,1,0,H-,1,2,0,0,1000,250.0,2,C19MI,165,train
528.5041332244873,2,4,3,5,1,0,H-,1,1,4,0,1000,250.0,1,C19MI,166,train
416.7640209197998,2,4,3,5,1,0,H-,1,5,3,0,1000,250.0,5,C19MI,167,train
512.9649639129639,2,4,3,5,1,0,H-,1,4,1,0,1000,250.0,4,C19MI,168,train
496.92487716674805,2,4,3,5,1,0,H-,1,1,4,0,1000,250.0,1,C19MI,169,train
528.9361476898193,2,4,3,5,1,0,H-,1,1,4,0,1000,250.0,1,C19MI,170,train
528.641939163208,2,4,3,5,1,0,H-,1,0,5,0,1000,250.0,0,C19MI,171,train
576.76100730896,2,4,3,5,1,0,H-,1,2,0,0,1000,250.0,2,C19MI,172,train
1792.5570011138916,2,4,3,5,1,0,H-,1,0,5,0,1000,250.0,0,C19MI,173,train
432.80911445617676,2,4,3,5,1,0,H-,0,0,5,0,1000,250.0,2,C19MI,174,train
1040.9321784973145,2,4,3,5,1,0,H-,1,3,2,0,1000,250.0,3,C19MI,175,train
528.8290977478027,2,4,3,5,1,0,H-,1,3,2,0,1000,250.0,3,C19MI,176,train
560.7640743255615,2,4,3,5,1,0,H-,1,1,4,0,1000,250.0,1,C19MI,177,train
544.1780090332031,2,4,3,5,1,0,H-,1,2,0,0,1000,250.0,2,C19MI,178,train
832.9489231109619,2,4,3,5,1,0,H-,1,0,5,0,1000,250.0,0,C19MI,179,train
529.0369987487793,2,4,3,5,1,0,H-,1,5,3,0,1000,250.0,5,C19MI,180,train
543.0998802185059,2,4,3,5,1,0,H-,1,5,3,0,1000,250.0,5,C19MI,181,train
768.6769962310791,2,4,3,5,1,0,H-,1,2,0,0,1000,250.0,2,C19MI,182,train
752.8629302978516,2,4,3,5,1,0,H-,1,3,2,0,1000,250.0,3,C19MI,183,train
560.7321262359619,2,4,3,5,1,0,H-,1,0,5,0,1000,250.0,0,C19MI,184,train
464.7359848022461,2,4,3,5,1,0,H-,1,5,3,0,1000,250.0,5,C19MI,185,train
592.7479267120361,2,4,3,5,1,0,H-,1,3,2,0,1000,250.0,3,C19MI,186,train
928.7610054016113,2,4,3,5,1,0,H-,1,4,1,0,1000,250.0,4,C19MI,187,train
896.7320919036865,2,4,3,5,1,0,H-,1,2,0,0,1000,250.0,2,C19MI,188,train
577.003002166748,2,4,3,5,1,0,H-,1,5,3,0,1000,250.0,5,C19MI,189,train
880.5339336395264,2,4,3,5,1,0,H-,1,4,1,0,1000,250.0,4,C19MI,190,train
688.849925994873,2,4,3,5,1,0,H-,1,5,3,0,1000,250.0,5,C19MI,191,train
1088.8252258300781,2,4,3,5,1,0,H-,1,2,0,0,1000,250.0,2,C19MI,192,train
592.8220748901367,2,4,3,5,1,0,H-,1,3,2,0,1000,250.0,3,C19MI,193,train
561.1200332641602,2,4,3,5,1,0,H-,1,1,4,0,1000,250.0,1,C19MI,194,train
752.8600692749023,2,4,3,5,1,0,H-,1,0,5,0,1000,250.0,0,C19MI,195,train
544.5609092712402,2,4,3,5,1,0,H-,1,3,2,0,1000,250.0,3,C19MI,196,train
576.6491889953613,2,4,3,5,1,0,H-,1,5,3,0,1000,250.0,5,C19MI,197,train
448.64511489868164,2,4,3,5,1,0,H-,1,5,3,0,1000,250.0,5,C19MI,198,train
976.8369197845459,2,4,3,5,1,0,H-,1,2,0,0,1000,250.0,2,C19MI,199,train
560.6379508972168,2,4,3,5,1,0,H-,1,5,3,0,1000,250.0,5,C19MI,200,train
1008.9249610900879,2,4,3,5,1,0,H-,1,0,5,0,1000,250.0,0,C19MI,201,train
592.7269458770752,2,4,3,5,1,0,H-,1,0,5,0,1000,250.0,0,C19MI,202,train
800.9970188140869,2,4,3,5,1,0,H-,1,1,4,0,1000,250.0,1,C19MI,203,train
800.5349636077881,2,4,3,5,1,0,H-,1,2,0,0,1000,250.0,2,C19MI,204,train
384.9818706512451,2,4,3,5,1,0,H-,1,0,5,0,1000,250.0,0,C19MI,205,train
640.8729553222656,2,4,3,5,1,0,H-,1,4,1,0,1000,250.0,4,C19MI,206,train
528.8791656494141,2,4,3,5,1,0,H-,1,3,2,0,1000,250.0,3,C19MI,207,train
609.0188026428223,2,4,3,5,1,0,H-,1,1,4,0,1000,250.0,1,C19MI,208,train
368.5028553009033,2,4,3,5,1,0,H-,1,0,5,0,1000,250.0,0,C19MI,209,train
592.9160118103027,2,4,3,5,1,0,H-,1,4,1,0,1000,250.0,4,C19MI,210,train
640.4209136962891,2,4,3,5,1,0,H-,1,1,4,0,1000,250.0,1,C19MI,211,train
639.9478912353516,2,4,3,5,1,0,H-,0,4,1,0,1000,250.0,5,C19MI,212,train
464.813232421875,2,4,3,5,1,0,H-,1,4,1,0,1000,250.0,4,C19MI,213,train
608.9730262756348,2,4,3,5,1,0,H-,1,5,3,0,1000,250.0,5,C19MI,214,train
609.0230941772461,2,4,3,5,1,0,H-,1,0,5,0,1000,250.0,0,C19MI,215,train
624.7739791870117,2,4,3,5,1,0,H-,1,1,4,0,1000,250.0,1,C19MI,216,train
560.7030391693115,2,4,3,5,1,0,H-,1,5,3,0,1000,250.0,5,C19MI,217,train
688.7099742889404,2,4,3,5,1,0,H-,1,3,2,0,1000,250.0,3,C19MI,218,train
576.866865158081,2,4,3,5,1,0,H-,1,0,5,0,1000,250.0,0,C19MI,219,train
496.5400695800781,2,4,3,5,1,0,H-,1,0,5,0,1000,250.0,0,C19MI,220,train
576.740026473999,2,4,3,5,1,0,H-,1,4,1,0,1000,250.0,4,C19MI,221,train
464.9689197540283,2,4,3,5,1,0,H-,1,2,0,0,1000,250.0,2,C19MI,222,train
688.7538433074951,2,4,3,5,1,0,H-,1,4,1,0,1000,250.0,4,C19MI,223,train
656.4681529998779,2,4,3,5,1,0,H-,1,5,3,0,1000,250.0,5,C19MI,224,train
640.286922454834,2,4,3,5,1,0,H-,1,2,0,0,1000,250.0,2,C19MI,225,train
400.79212188720703,2,4,3,5,1,0,H-,1,2,0,0,1000,250.0,2,C19MI,226,train
624.8478889465332,2,4,3,5,1,0,H-,1,3,2,0,1000,250.0,3,C19MI,227,train
560.5769157409668,2,4,3,5,1,0,H-,1,0,5,0,1000,250.0,0,C19MI,228,train
479.24113273620605,2,4,3,5,1,0,H-,1,3,2,0,1000,250.0,3,C19MI,229,train
478.7290096282959,2,4,3,5,1,0,H-,1,3,2,0,1000,250.0,3,C19MI,230,train
544.9960231781006,2,4,3,5,1,0,H-,1,5,3,0,1000,250.0,5,C19MI,231,train
448.40192794799805,2,4,3,5,1,0,H-,1,5,3,0,1000,250.0,5,C19MI,232,train
592.8230285644531,2,4,3,5,1,0,H-,1,4,1,0,1000,250.0,4,C19MI,233,train
608.7300777435303,2,4,3,5,1,0,H-,1,0,5,0,1000,250.0,0,C19MI,234,train
592.3919677734375,2,4,3,5,1,0,H-,1,1,4,0,1000,250.0,1,C19MI,235,train
576.7569541931152,2,4,3,5,1,0,H-,1,2,0,0,1000,250.0,2,C19MI,236,train
576.6849517822266,2,4,3,5,1,0,H-,1,0,5,0,1000,250.0,0,C19MI,237,train
560.69016456604,2,4,3,5,1,0,H-,1,4,1,0,1000,250.0,4,C19MI,238,train
494.9820041656494,2,4,3,5,1,0,H-,1,4,1,0,1000,250.0,4,C19MI,239,train
528.8090705871582,2,4,3,5,1,0,H-,1,2,0,0,1000,250.0,2,C19MI,240,train
576.8811702728271,2,4,3,5,1,0,H-,1,4,1,0,1000,250.0,4,C19MI,241,train
624.8130798339844,2,4,3,5,1,0,H-,1,1,4,0,1000,250.0,1,C19MI,242,train
544.5518493652344,2,4,3,5,1,0,H-,1,3,2,0,1000,250.0,3,C19MI,243,train
513.4150981903076,2,4,3,5,1,0,H-,1,1,4,0,1000,250.0,1,C19MI,244,train
576.9498348236084,2,4,3,5,1,0,H-,1,4,1,0,1000,250.0,4,C19MI,245,train
656.7559242248535,2,4,3,5,1,0,H-,1,0,5,0,1000,250.0,0,C19MI,246,train
560.9071254730225,2,4,3,5,1,0,H-,1,3,2,0,1000,250.0,3,C19MI,247,train
528.7179946899414,2,4,3,5,1,0,H-,1,0,5,0,1000,250.0,0,C19MI,248,train
640.826940536499,2,4,3,5,1,0,H-,1,2,0,0,1000,250.0,2,C19MI,249,train
2017.090082168579,1,3,0,5,2,4,H-,1,3,1,0,1000,250.0,3,C19MI,250,test
1008.4421634674072,1,3,0,5,2,4,H-,1,5,3,0,1000,250.0,5,C19MI,251,test
800.9850978851318,1,3,0,5,2,4,H-,0,0,2,0,1000,250.0,3,C19MI,252,test
2400.8219242095947,1,3,0,5,2,4,H-,1,4,5,0,1000,250.0,4,C19MI,253,test
1553.0359745025635,1,3,0,5,2,4,H-,1,2,4,0,1000,250.0,2,C19MI,254,test
864.6910190582275,1,3,0,5,2,4,H-,1,5,3,0,1000,250.0,5,C19MI,255,test
1281.3560962677002,1,3,0,5,2,4,H-,1,1,0,0,1000,250.0,1,C19MI,256,test
736.9120121002197,1,3,0,5,2,4,H-,1,5,3,0,1000,250.0,5,C19MI,257,test
1136.160135269165,1,3,0,5,2,4,H-,1,2,4,0,1000,250.0,2,C19MI,258,test
1024.986982345581,1,3,0,5,2,4,H-,1,3,1,0,1000,250.0,3,C19MI,259,test
672.0671653747559,1,3,0,5,2,4,H-,0,2,4,0,1000,250.0,1,C19MI,260,test
672.6498603820801,1,3,0,5,2,4,H-,1,5,3,0,1000,250.0,5,C19MI,261,test
1216.9058322906494,1,3,0,5,2,4,H-,1,1,0,0,1000,250.0,1,C19MI,262,test
576.6310691833496,1,3,0,5,2,4,H-,1,1,0,0,1000,250.0,1,C19MI,263,test
800.724983215332,1,3,0,5,2,4,H-,1,2,4,0,1000,250.0,2,C19MI,264,test
1440.384864807129,1,3,0,5,2,4,H-,1,4,5,0,1000,250.0,4,C19MI,265,test
913.0401611328125,1,3,0,5,2,4,H-,1,3,1,0,1000,250.0,3,C19MI,266,test
816.6971206665039,1,3,0,5,2,4,H-,1,1,0,0,1000,250.0,1,C19MI,267,test
864.9029731750488,1,3,0,5,2,4,H-,1,5,3,0,1000,250.0,5,C19MI,268,test
1728.9299964904785,1,3,0,5,2,4,H-,1,0,2,0,1000,250.0,0,C19MI,269,test
640.7930850982666,1,3,0,5,2,4,H-,1,0,2,0,1000,250.0,0,C19MI,270,test
1358.6981296539307,1,3,0,5,2,4,H-,1,2,4,0,1000,250.0,2,C19MI,271,test
896.8708515167236,1,3,0,5,2,4,H-,1,2,4,0,1000,250.0,2,C19MI,272,test
528.5661220550537,1,3,0,5,2,4,H-,1,2,4,0,1000,250.0,2,C19MI,273,test
1504.8549175262451,1,3,0,5,2,4,H-,1,4,5,0,1000,250.0,4,C19MI,274,test
816.9279098510742,1,3,0,5,2,4,H-,1,5,3,0,1000,250.0,5,C19MI,275,test
897.1002101898193,1,3,0,5,2,4,H-,1,0,2,0,1000,250.0,0,C19MI,276,test
1008.8698863983154,1,3,0,5,2,4,H-,1,1,0,0,1000,250.0,1,C19MI,277,test
816.655158996582,1,3,0,5,2,4,H-,1,0,2,0,1000,250.0,0,C19MI,278,test
944.6032047271729,1,3,0,5,2,4,H-,1,2,4,0,1000,250.0,2,C19MI,279,test
688.9111995697021,1,3,0,5,2,4,H-,1,0,2,0,1000,250.0,0,C19MI,280,test
832.8530788421631,1,3,0,5,2,4,H-,0,4,5,0,1000,250.0,2,C19MI,281,test
656.7509174346924,1,3,0,5,2,4,H-,1,0,2,0,1000,250.0,0,C19MI,282,test
992.6249980926514,1,3,0,5,2,4,H-,1,1,0,0,1000,250.0,1,C19MI,283,test
864.9299144744873,1,3,0,5,2,4,H-,1,3,1,0,1000,250.0,3,C19MI,284,test
848.872184753418,1,3,0,5,2,4,H-,1,4,5,0,1000,250.0,4,C19MI,285,test
624.8559951782227,1,3,0,5,2,4,H-,1,5,3,0,1000,250.0,5,C19MI,286,test
848.9911556243896,1,3,0,5,2,4,H-,0,2,4,0,1000,250.0,1,C19MI,287,test
720.1769351959229,1,3,0,5,2,4,H-,1,3,1,0,1000,250.0,3,C19MI,288,test
720.9250926971436,1,3,0,5,2,4,H-,1,5,3,0,1000,250.0,5,C19MI,289,test
912.4019145965576,1,3,0,5,2,4,H-,1,2,4,0,1000,250.0,2,C19MI,290,test
1248.5218048095703,1,3,0,5,2,4,H-,1,5,3,0,1000,250.0,5,C19MI,291,test
720.6358909606934,1,3,0,5,2,4,H-,1,0,2,0,1000,250.0,0,C19MI,292,test
1024.8281955718994,1,3,0,5,2,4,H-,1,4,5,0,1000,250.0,4,C19MI,293,test
911.2470149993896,1,3,0,5,2,4,H-,1,3,1,0,1000,250.0,3,C19MI,294,test
960.8440399169922,1,3,0,5,2,4,H-,1,1,0,0,1000,250.0,1,C19MI,295,test
928.8411140441895,1,3,0,5,2,4,H-,1,3,1,0,1000,250.0,3,C19MI,296,test
784.480094909668,1,3,0,5,2,4,H-,0,2,4,0,1000,250.0,1,C19MI,297,test
816.8978691101074,1,3,0,5,2,4,H-,1,2,4,0,1000,250.0,2,C19MI,298,test
817.0409202575684,1,3,0,5,2,4,H-,1,3,1,0,1000,250.0,3,C19MI,299,test
848.9279747009277,1,3,0,5,2,4,H-,1,1,0,0,1000,250.0,1,C19MI,300,test
737.0250225067139,1,3,0,5,2,4,H-,1,2,4,0,1000,250.0,2,C19MI,301,test
1248.887062072754,1,3,0,5,2,4,H-,1,1,0,0,1000,250.0,1,C19MI,302,test
736.5097999572754,1,3,0,5,2,4,H-,1,2,4,0,1000,250.0,2,C19MI,303,test
656.9480895996094,1,3,0,5,2,4,H-,1,5,3,0,1000,250.0,5,C19MI,304,test
992.7809238433838,1,3,0,5,2,4,H-,1,1,0,0,1000,250.0,1,C19MI,305,test
624.9949932098389,1,3,0,5,2,4,H-,1,1,0,0,1000,250.0,1,C19MI,306,test
736.8128299713135,1,3,0,5,2,4,H-,1,2,4,0,1000,250.0,2,C19MI,307,test
752.6290416717529,1,3,0,5,2,4,H-,0,2,4,0,1000,250.0,1,C19MI,308,test
752.8650760650635,1,3,0,5,2,4,H-,1,1,0,0,1000,250.0,1,C19MI,309,test
704.1409015655518,1,3,0,5,2,4,H-,1,5,3,0,1000,250.0,5,C19MI,310,test
848.6449718475342,1,3,0,5,2,4,H-,1,5,3,0,1000,250.0,5,C19MI,311,test
816.6220188140869,1,3,0,5,2,4,H-,1,3,1,0,1000,250.0,3,C19MI,312,test
880.993127822876,1,3,0,5,2,4,H-,0,4,5,0,1000,250.0,1,C19MI,313,test
991.0650253295898,1,3,0,5,2,4,H-,1,5,3,0,1000,250.0,5,C19MI,314,test
1041.7399406433105,1,3,0,5,2,4,H-,0,4,5,0,1000,250.0,5,C19MI,315,test
880.5429935455322,1,3,0,5,2,4,H-,1,1,0,0,1000,250.0,1,C19MI,316,test
624.4981288909912,1,3,0,5,2,4,H-,1,5,3,0,1000,250.0,5,C19MI,317,test
816.8659210205078,1,3,0,5,2,4,H-,1,3,1,0,1000,250.0,3,C19MI,318,test
641.0579681396484,1,3,0,5,2,4,H-,1,3,1,0,1000,250.0,3,C19MI,319,test
1120.6181049346924,1,3,0,5,2,4,H-,1,2,4,0,1000,250.0,2,C19MI,320,test
1536.4489555358887,1,3,0,5,2,4,H-,1,3,1,0,1000,250.0,3,C19MI,321,test
1984.6060276031494,1,3,0,5,2,4,H-,1,1,0,0,1000,250.0,1,C19MI,322,test
784.7301959991455,1,3,0,5,2,4,H-,1,5,3,0,1000,250.0,5,C19MI,323,test
960.8428478240967,1,3,0,5,2,4,H-,1,3,1,0,1000,250.0,3,C19MI,324,test
880.6478977203369,1,3,0,5,2,4,H-,1,1,0,0,1000,250.0,1,C19MI,325,test
704.827070236206,1,3,0,5,2,4,H-,0,0,2,0,1000,250.0,3,C19MI,326,test
576.7431259155273,1,3,0,5,2,4,H-,1,0,2,0,1000,250.0,0,C19MI,327,test
816.7650699615479,1,3,0,5,2,4,H-,1,3,1,0,1000,250.0,3,C19MI,328,test
736.9399070739746,1,3,0,5,2,4,H-,1,0,2,0,1000,250.0,0,C19MI,329,test
736.638069152832,1,3,0,5,2,4,H-,1,1,0,0,1000,250.0,1,C19MI,330,test
846.5650081634521,1,3,0,5,2,4,H-,1,3,1,0,1000,250.0,3,C19MI,331,test
671.1628437042236,1,3,0,5,2,4,H-,1,3,1,0,1000,250.0,3,C19MI,332,test
401.00693702697754,1,3,0,5,2,4,H-,1,3,1,0,1000,250.0,3,C19MI,333,test
688.8837814331055,1,3,0,5,2,4,H-,0,4,5,0,1000,250.0,5,C19MI,334,test
1232.619047164917,1,3,0,5,2,4,H-,1,2,4,0,1000,250.0,2,C19MI,335,test
1073.077917098999,1,3,0,5,2,4,H-,1,1,0,0,1000,250.0,1,C19MI,336,test
736.901044845581,1,3,0,5,2,4,H-,1,0,2,0,1000,250.0,0,C19MI,337,test
833.0569267272949,1,3,0,5,2,4,H-,1,5,3,0,1000,250.0,5,C19MI,338,test
1088.683843612671,1,3,0,5,2,4,H-,1,2,4,0,1000,250.0,2,C19MI,339,test
1184.7569942474365,1,3,0,5,2,4,H-,1,4,5,0,1000,250.0,4,C19MI,340,test
752.5990009307861,1,3,0,5,2,4,H-,1,3,1,0,1000,250.0,3,C19MI,341,test
800.00901222229,1,3,0,5,2,4,H-,1,2,4,0,1000,250.0,2,C19MI,342,test
864.6321296691895,1,3,0,5,2,4,H-,1,1,0,0,1000,250.0,1,C19MI,343,test
1072.8480815887451,1,3,0,5,2,4,H-,1,4,5,0,1000,250.0,4,C19MI,344,test
591.6650295257568,1,3,0,5,2,4,H-,1,4,5,0,1000,250.0,4,C19MI,345,test
976.9208431243896,1,3,0,5,2,4,H-,1,3,1,0,1000,250.0,3,C19MI,346,test
752.8729438781738,1,3,0,5,2,4,H-,0,2,4,0,1000,250.0,1,C19MI,347,test
1136.9221210479736,1,3,0,5,2,4,H-,1,2,4,0,1000,250.0,2,C19MI,348,test
832.2060108184814,1,3,0,5,2,4,H-,1,5,3,0,1000,250.0,5,C19MI,349,test
816.6711330413818,1,3,0,5,2,4,H-,1,2,4,0,1000,250.0,2,C19MI,350,test
912.6408100128174,1,3,0,5,2,4,H-,1,0,2,0,1000,250.0,0,C19MI,351,test
1104.753017425537,1,3,0,5,2,4,H-,1,1,0,0,1000,250.0,1,C19MI,352,test
1040.8289432525635,1,3,0,5,2,4,H-,1,0,2,0,1000,250.0,0,C19MI,353,test
1008.8510513305664,1,3,0,5,2,4,H-,1,2,4,0,1000,250.0,2,C19MI,354,test
896.5611457824707,1,3,0,5,2,4,H-,1,5,3,0,1000,250.0,5,C19MI,355,test
1041.029930114746,1,3,0,5,2,4,H-,1,1,0,0,1000,250.0,1,C19MI,356,test
993.0160045623779,1,3,0,5,2,4,H-,1,1,0,0,1000,250.0,1,C19MI,357,test
2112.809896469116,1,3,0,5,2,4,H-,1,4,5,0,1000,250.0,4,C19MI,358,test
961.0581398010254,1,3,0,5,2,4,H-,1,4,5,0,1000,250.0,4,C19MI,359,test
976.6509532928467,1,3,0,5,2,4,H-,1,1,0,0,1000,250.0,1,C19MI,360,test
880.666971206665,1,3,0,5,2,4,H-,1,3,1,0,1000,250.0,3,C19MI,361,test
624.5310306549072,1,3,0,5,2,4,H-,1,4,5,0,1000,250.0,4,C19MI,362,test
528.6581516265869,1,3,0,5,2,4,H-,1,4,5,0,1000,250.0,4,C19MI,363,test
720.5631732940674,1,3,0,5,2,4,H-,1,3,1,0,1000,250.0,3,C19MI,364,test
609.0409755706787,1,3,0,5,2,4,H-,1,4,5,0,1000,250.0,4,C19MI,365,test
1008.5971355438232,1,3,0,5,2,4,H-,1,1,0,0,1000,250.0,1,C19MI,366,test
864.5970821380615,1,3,0,5,2,4,H-,1,0,2,0,1000,250.0,0,C19MI,367,test
928.6839962005615,1,3,0,5,2,4,H-,1,2,4,0,1000,250.0,2,C19MI,368,test
1006.6730976104736,1,3,0,5,2,4,H-,1,5,3,0,1000,250.0,5,C19MI,369,test
1072.6749897003174,1,3,0,5,2,4,H-,1,2,4,0,1000,250.0,2,C19MI,370,test
992.042064666748,1,3,0,5,2,4,H-,1,3,1,0,1000,250.0,3,C19MI,371,test
800.9309768676758,1,3,0,5,2,4,H-,1,4,5,0,1000,250.0,4,C19MI,372,test
880.5789947509766,1,3,0,5,2,4,H-,1,2,4,0,1000,250.0,2,C19MI,373,test
863.062858581543,1,3,0,5,2,4,H-,1,3,1,0,1000,250.0,3,C19MI,374,test
784.6889495849609,1,3,0,5,2,4,H-,0,4,5,0,1000,250.0,5,C19MI,375,test
1424.936056137085,1,3,0,5,2,4,H-,1,2,4,0,1000,250.0,2,C19MI,376,test
688.9960765838623,1,3,0,5,2,4,H-,1,4,5,0,1000,250.0,4,C19MI,377,test
832.8530788421631,1,3,0,5,2,4,H-,1,5,3,0,1000,250.0,5,C19MI,378,test
1184.7290992736816,1,3,0,5,2,4,H-,1,2,4,0,1000,250.0,2,C19MI,379,test
768.0931091308594,1,3,0,5,2,4,H-,1,2,4,0,1000,250.0,2,C19MI,380,test
800.6360530853271,1,3,0,5,2,4,H-,1,1,0,0,1000,250.0,1,C19MI,381,test
576.711893081665,1,3,0,5,2,4,H-,1,2,4,0,1000,250.0,2,C19MI,382,test
880.9630870819092,1,3,0,5,2,4,H-,1,0,2,0,1000,250.0,0,C19MI,383,test
736.976146697998,1,3,0,5,2,4,H-,1,5,3,0,1000,250.0,5,C19MI,384,test
912.6479625701904,1,3,0,5,2,4,H-,1,2,4,0,1000,250.0,2,C19MI,385,test
560.6250762939453,1,3,0,5,2,4,H-,1,2,4,0,1000,250.0,2,C19MI,386,test
1056.7500591278076,1,3,0,5,2,4,H-,1,4,5,0,1000,250.0,4,C19MI,387,test
592.5731658935547,1,3,0,5,2,4,H-,1,4,5,0,1000,250.0,4,C19MI,388,test
721.0299968719482,1,3,0,5,2,4,H-,1,3,1,0,1000,250.0,3,C19MI,389,test
513.0641460418701,1,3,0,5,2,4,H-,1,3,1,0,1000,250.0,3,C19MI,390,test
640.5789852142334,1,3,0,5,2,4,H-,1,2,4,0,1000,250.0,2,C19MI,391,test
673.1071472167969,1,3,0,5,2,4,H-,1,3,1,0,1000,250.0,3,C19MI,392,test
624.8390674591064,1,3,0,5,2,4,H-,1,2,4,0,1000,250.0,2,C19MI,393,test
785.0368022918701,1,3,0,5,2,4,H-,0,4,5,0,1000,250.0,0,C19MI,394,test
734.6978187561035,1,3,0,5,2,4,H-,1,2,4,0,1000,250.0,2,C19MI,395,test
672.9640960693359,1,3,0,5,2,4,H-,1,2,4,0,1000,250.0,2,C19MI,396,test
1040.9469604492188,1,3,0,5,2,4,H-,1,1,0,0,1000,250.0,1,C19MI,397,test
704.5810222625732,1,3,0,5,2,4,H-,1,1,0,0,1000,250.0,1,C19MI,398,test
976.7098426818848,1,3,0,5,2,4,H-,1,0,2,0,1000,250.0,0,C19MI,399,test
816.5609836578369,1,3,0,5,2,4,H-,1,4,5,0,1000,250.0,4,C19MI,400,test
945.0290203094482,1,3,0,5,2,4,H-,1,0,2,0,1000,250.0,0,C19MI,401,test
993.0047988891602,1,3,0,5,2,4,H-,1,1,0,0,1000,250.0,1,C19MI,402,test
592.5090312957764,1,3,0,5,2,4,H-,1,1,0,0,1000,250.0,1,C19MI,403,test
736.5450859069824,1,3,0,5,2,4,H-,1,5,3,0,1000,250.0,5,C19MI,404,test
544.6248054504395,1,3,0,5,2,4,H-,1,5,3,0,1000,250.0,5,C19MI,405,test
880.6350231170654,1,3,0,5,2,4,H-,1,0,2,0,1000,250.0,0,C19MI,406,test
846.6968536376953,1,3,0,5,2,4,H-,1,1,0,0,1000,250.0,1,C19MI,407,test
704.6639919281006,1,3,0,5,2,4,H-,1,2,4,0,1000,250.0,2,C19MI,408,test
1504.8809051513672,1,3,0,5,2,4,H-,1,4,5,0,1000,250.0,4,C19MI,409,test
896.8281745910645,1,3,0,5,2,4,H-,1,0,2,0,1000,250.0,0,C19MI,410,test
656.8479537963867,1,3,0,5,2,4,H-,1,0,2,0,1000,250.0,0,C19MI,411,test
912.9509925842285,1,3,0,5,2,4,H-,1,4,5,0,1000,250.0,4,C19MI,412,test
878.6399364471436,1,3,0,5,2,4,H-,1,0,2,0,1000,250.0,0,C19MI,413,test
527.4801254272461,1,3,0,5,2,4,H-,1,0,2,0,1000,250.0,0,C19MI,414,test
928.7309646606445,1,3,0,5,2,4,H-,1,2,4,0,1000,250.0,2,C19MI,415,test
1216.9218063354492,1,3,0,5,2,4,H-,1,0,2,0,1000,250.0,0,C19MI,416,test
992.9418563842773,1,3,0,5,2,4,H-,1,1,0,0,1000,250.0,1,C19MI,417,test
688.9519691467285,1,3,0,5,2,4,H-,1,3,1,0,1000,250.0,3,C19MI,418,test
1232.8479290008545,1,3,0,5,2,4,H-,1,2,4,0,1000,250.0,2,C19MI,419,test
559.222936630249,1,3,0,5,2,4,H-,1,3,1,0,1000,250.0,3,C19MI,420,test
912.9061698913574,1,3,0,5,2,4,H-,1,4,5,0,1000,250.0,4,C19MI,421,test
960.9100818634033,1,3,0,5,2,4,H-,1,2,4,0,1000,250.0,2,C19MI,422,test
672.6031303405762,1,3,0,5,2,4,H-,1,3,1,0,1000,250.0,3,C19MI,423,test
912.9691123962402,1,3,0,5,2,4,H-,1,1,0,0,1000,250.0,1,C19MI,424,test
1408.663034439087,1,3,0,5,2,4,H-,1,2,4,0,1000,250.0,2,C19MI,425,test
512.8729343414307,1,3,0,5,2,4,H-,1,2,4,0,1000,250.0,2,C19MI,426,test
944.8680877685547,1,3,0,5,2,4,H-,0,4,5,0,1000,250.0,5,C19MI,427,test
656.8849086761475,1,3,0,5,2,4,H-,1,3,1,0,1000,250.0,3,C19MI,428,test
976.9260883331299,1,3,0,5,2,4,H-,1,1,0,0,1000,250.0,1,C19MI,429,test
624.8970031738281,1,3,0,5,2,4,H-,1,3,1,0,1000,250.0,3,C19MI,430,test
752.587080001831,1,3,0,5,2,4,H-,1,0,2,0,1000,250.0,0,C19MI,431,test
992.9277896881104,1,3,0,5,2,4,H-,1,0,2,0,1000,250.0,0,C19MI,432,test
736.5601062774658,1,3,0,5,2,4,H-,1,1,0,0,1000,250.0,1,C19MI,433,test
816.8048858642578,1,3,0,5,2,4,H-,1,3,1,0,1000,250.0,3,C19MI,434,test
688.6169910430908,1,3,0,5,2,4,H-,1,2,4,0,1000,250.0,2,C19MI,435,test
832.6930999755859,1,3,0,5,2,4,H-,1,0,2,0,1000,250.0,0,C19MI,436,test
736.907958984375,1,3,0,5,2,4,H-,1,4,5,0,1000,250.0,4,C19MI,437,test
528.9959907531738,1,3,0,5,2,4,H-,1,0,2,0,1000,250.0,0,C19MI,438,test
848.721981048584,1,3,0,5,2,4,H-,1,3,1,0,1000,250.0,3,C19MI,439,test
608.206033706665,1,3,0,5,2,4,H-,0,0,2,0,1000,250.0,3,C19MI,440,test
848.9320278167725,1,3,0,5,2,4,H-,1,1,0,0,1000,250.0,1,C19MI,441,test
784.6839427947998,1,3,0,5,2,4,H-,1,0,2,0,1000,250.0,0,C19MI,442,test
816.9629573822021,1,3,0,5,2,4,H-,1,5,3,0,1000,250.0,5,C19MI,443,test
544.9578762054443,1,3,0,5,2,4,H-,1,5,3,0,1000,250.0,5,C19MI,444,test
1584.9871635437012,1,3,0,5,2,4,H-,0,4,5,0,1000,250.0,3,C19MI,445,test
912.970781326294,1,3,0,5,2,4,H-,1,2,4,0,1000,250.0,2,C19MI,446,test
800.4271984100342,1,3,0,5,2,4,H-,1,3,1,0,1000,250.0,3,C19MI,447,test
1184.9629878997803,1,3,0,5,2,4,H-,1,2,4,0,1000,250.0,2,C19MI,448,test
1504.9448013305664,1,3,0,5,2,4,H-,1,0,2,0,1000,250.0,0,C19MI,449,test
880.2759647369385,1,3,0,5,2,4,H-,1,0,2,0,1000,250.0,0,C19MI,450,test
800.8332252502441,1,3,0,5,2,4,H-,1,5,3,0,1000,250.0,5,C19MI,451,test
704.9829959869385,1,3,0,5,2,4,H-,1,4,5,0,1000,250.0,4,C19MI,452,test
928.9150238037109,1,3,0,5,2,4,H-,1,2,4,0,1000,250.0,2,C19MI,453,test
800.9078502655029,1,3,0,5,2,4,H-,1,2,4,0,1000,250.0,2,C19MI,454,test
976.5670299530029,1,3,0,5,2,4,H-,1,4,5,0,1000,250.0,4,C19MI,455,test
784.3070030212402,1,3,0,5,2,4,H-,1,3,1,0,1000,250.0,3,C19MI,456,test
688.9059543609619,1,3,0,5,2,4,H-,1,1,0,0,1000,250.0,1,C19MI,457,test
577.0349502563477,1,3,0,5,2,4,H-,1,0,2,0,1000,250.0,0,C19MI,458,test
785.0010395050049,1,3,0,5,2,4,H-,1,3,1,0,1000,250.0,3,C19MI,459,test
513.3588314056396,1,3,0,5,2,4,H-,1,3,1,0,1000,250.0,3,C19MI,460,test
640.704870223999,1,3,0,5,2,4,H-,1,0,2,0,1000,250.0,0,C19MI,461,test
704.5400142669678,1,3,0,5,2,4,H-,1,1,0,0,1000,250.0,1,C19MI,462,test
704.848051071167,1,3,0,5,2,4,H-,0,4,5,0,1000,250.0,3,C19MI,463,test
656.796932220459,1,3,0,5,2,4,H-,1,0,2,0,1000,250.0,0,C19MI,464,test
720.8950519561768,1,3,0,5,2,4,H-,1,1,0,0,1000,250.0,1,C19MI,465,test
673.5479831695557,1,3,0,5,2,4,H-,1,1,0,0,1000,250.0,1,C19MI,466,test
592.0619964599609,1,3,0,5,2,4,H-,1,3,1,0,1000,250.0,3,C19MI,467,test
880.8388710021973,1,3,0,5,2,4,H-,1,0,2,0,1000,250.0,0,C19MI,468,test
832.9200744628906,1,3,0,5,2,4,H-,1,1,0,0,1000,250.0,1,C19MI,469,test
704.6761512756348,1,3,0,5,2,4,H-,1,2,4,0,1000,250.0,2,C19MI,470,test
801.4941215515137,1,3,0,5,2,4,H-,1,3,1,0,1000,250.0,3,C19MI,471,test
768.5949802398682,1,3,0,5,2,4,H-,1,4,5,0,1000,250.0,4,C19MI,472,test
640.7821178436279,1,3,0,5,2,4,H-,1,3,1,0,1000,250.0,3,C19MI,473,test
528.7349224090576,1,3,0,5,2,4,H-,1,5,3,0,1000,250.0,5,C19MI,474,test
720.8771705627441,1,3,0,5,2,4,H-,1,2,4,0,1000,250.0,2,C19MI,475,test
832.8988552093506,1,3,0,5,2,4,H-,1,1,0,0,1000,250.0,1,C19MI,476,test
557.9841136932373,1,3,0,5,2,4,H-,1,0,2,0,1000,250.0,0,C19MI,477,test
608.8850498199463,1,3,0,5,2,4,H-,1,1,0,0,1000,250.0,1,C19MI,478,test
576.9689083099365,1,3,0,5,2,4,H-,1,5,3,0,1000,250.0,5,C19MI,479,test
832.7720165252686,1,3,0,5,2,4,H-,0,2,4,0,1000,250.0,1,C19MI,480,test
592.858076095581,1,3,0,5,2,4,H-,1,5,3,0,1000,250.0,5,C19MI,481,test
720.5429077148438,1,3,0,5,2,4,H-,1,5,3,0,1000,250.0,5,C19MI,482,test
944.8878765106201,1,3,0,5,2,4,H-,1,3,1,0,1000,250.0,3,C19MI,483,test
1504.9939155578613,1,3,0,5,2,4,H-,1,2,4,0,1000,250.0,2,C19MI,484,test
1456.9718837738037,1,3,0,5,2,4,H-,1,3,1,0,1000,250.0,3,C19MI,485,test
704.7948837280273,1,3,0,5,2,4,H-,1,3,1,0,1000,250.0,3,C19MI,486,test
528.9452075958252,1,3,0,5,2,4,H-,1,3,1,0,1000,250.0,3,C19MI,487,test
672.9538440704346,1,3,0,5,2,4,H-,1,0,2,0,1000,250.0,0,C19MI,488,test
800.5709648132324,1,3,0,5,2,4,H-,1,1,0,0,1000,250.0,1,C19MI,489,test
672.6620197296143,1,3,0,5,2,4,H-,1,2,4,0,1000,250.0,2,C19MI,490,test
1295.8409786224365,1,3,0,5,2,4,H-,1,4,5,0,1000,250.0,4,C19MI,491,test
913.0549430847168,1,3,0,5,2,4,H-,1,1,0,0,1000,250.0,1,C19MI,492,test
1441.0638809204102,1,3,0,5,2,4,H-,1,4,5,0,1000,250.0,4,C19MI,493,test
496.60301208496094,1,3,0,5,2,4,H-,1,4,5,0,1000,250.0,4,C19MI,494,test
1040.7450199127197,1,3,0,5,2,4,H-,1,2,4,0,1000,250.0,2,C19MI,495,test
736.9089126586914,1,3,0,5,2,4,H-,1,3,1,0,1000,250.0,3,C19MI,496,test
800.6360530853271,1,3,0,5,2,4,H-,1,1,0,0,1000,250.0,1,C19MI,497,test
1136.5480422973633,1,3,0,5,2,4,H-,1,2,4,0,1000,250.0,2,C19MI,498,test
640.376091003418,1,3,0,5,2,4,H-,1,3,1,0,1000,250.0,3,C19MI,499,test
