RT,SRmap_0,SRmap_1,SRmap_2,SRmap_3,SRmap_4,SRmap_5,condition,correct,correct_response,curstim,ms-precue,ms-prestimblank,ntrials,response,subject,trial,type
7130.414009094238,5,0,2,3,1,4,E+,1,0,1,400,600,250.0,0,c10gw,0,train
2474.9858379364014,5,0,2,3,1,4,E+,0,2,2,400,600,250.0,1,c10gw,1,train
2123.0010986328125,5,0,2,3,1,4,E+,1,4,5,400,600,250.0,4,c10gw,2,train
1003.3841133117676,5,0,2,3,1,4,E+,1,3,3,400,600,250.0,3,c10gw,3,train
1275.5200862884521,5,0,2,3,1,4,E+,1,2,2,400,600,250.0,2,c10gw,4,train
986.9680404663086,5,0,2,3,1,4,E+,1,3,3,400,600,250.0,3,c10gw,5,train
1194.9498653411865,5,0,2,3,1,4,E+,1,1,4,400,600,250.0,1,c10gw,6,train
699.5360851287842,5,0,2,3,1,4,E+,1,0,1,400,600,250.0,0,c10gw,7,train
779.1550159454346,5,0,2,3,1,4,E+,1,2,2,400,600,250.0,2,c10gw,8,train
1066.9519901275635,5,0,2,3,1,4,E+,0,1,4,400,600,250.0,0,c10gw,9,train
970.9861278533936,5,0,2,3,1,4,E+,1,2,2,400,600,250.0,2,c10gw,10,train
954.9369812011719,5,0,2,3,1,4,E+,1,0,1,400,600,250.0,0,c10gw,11,train
1210.874080657959,5,0,2,3,1,4,E+,1,5,0,400,600,250.0,5,c10gw,12,train
1147.136926651001,5,0,2,3,1,4,E+,0,2,2,400,600,250.0,0,c10gw,13,train
842.9930210113525,5,0,2,3,1,4,E+,1,3,3,400,600,250.0,3,c10gw,14,train
1067.1718120574951,5,0,2,3,1,4,E+,1,2,2,400,600,250.0,2,c10gw,15,train
2251.361846923828,5,0,2,3,1,4,E+,1,1,4,400,600,250.0,1,c10gw,16,train
1307.0380687713623,5,0,2,3,1,4,E+,1,5,0,400,600,250.0,5,c10gw,17,train
1658.0801010131836,5,0,2,3,1,4,E+,1,5,0,400,600,250.0,5,c10gw,18,train
1003.0138492584229,5,0,2,3,1,4,E+,1,1,4,400,600,250.0,1,c10gw,19,train
875.0159740447998,5,0,2,3,1,4,E+,1,0,1,400,600,250.0,0,c10gw,20,train
971.0230827331543,5,0,2,3,1,4,E+,1,1,4,400,600,250.0,1,c10gw,21,train
810.8201026916504,5,0,2,3,1,4,E+,1,1,4,400,600,250.0,1,c10gw,22,train
635.1289749145508,5,0,2,3,1,4,E+,1,0,1,400,600,250.0,0,c10gw,23,train
699.0110874176025,5,0,2,3,1,4,E+,1,5,0,400,600,250.0,5,c10gw,24,train
540.255069732666,5,0,2,3,1,4,E+,1,5,0,400,600,250.0,5,c10gw,25,train
570.9171295166016,5,0,2,3,1,4,E+,1,0,1,400,600,250.0,0,c10gw,26,train
443.2940483093262,5,0,2,3,1,4,E+,1,1,4,400,600,250.0,1,c10gw,27,train
907.0360660552979,5,0,2,3,1,4,E+,1,4,5,400,600,250.0,4,c10gw,28,train
906.9051742553711,5,0,2,3,1,4,E+,1,1,4,400,600,250.0,1,c10gw,29,train
713.6340141296387,5,0,2,3,1,4,E+,1,2,2,400,600,250.0,2,c10gw,30,train
1643.8231468200684,5,0,2,3,1,4,E+,1,2,2,400,600,250.0,2,c10gw,31,train
698.7659931182861,5,0,2,3,1,4,E+,1,0,1,400,600,250.0,0,c10gw,32,train
602.9019355773926,5,0,2,3,1,4,E+,1,2,2,400,600,250.0,2,c10gw,33,train
554.9309253692627,5,0,2,3,1,4,E+,1,0,1,400,600,250.0,0,c10gw,34,train
427.16288566589355,5,0,2,3,1,4,E+,1,0,1,400,600,250.0,0,c10gw,35,train
587.0058536529541,5,0,2,3,1,4,E+,1,1,4,400,600,250.0,1,c10gw,36,train
586.8380069732666,5,0,2,3,1,4,E+,1,2,2,400,600,250.0,2,c10gw,37,train
762.9189491271973,5,0,2,3,1,4,E+,1,2,2,400,600,250.0,2,c10gw,38,train
826.9879817962646,5,0,2,3,1,4,E+,1,3,3,400,600,250.0,3,c10gw,39,train
634.9318027496338,5,0,2,3,1,4,E+,1,3,3,400,600,250.0,3,c10gw,40,train
1530.8239459991455,5,0,2,3,1,4,E+,1,2,2,400,600,250.0,2,c10gw,41,train
539.215087890625,5,0,2,3,1,4,E+,1,3,3,400,600,250.0,3,c10gw,42,train
938.791036605835,5,0,2,3,1,4,E+,1,0,1,400,600,250.0,0,c10gw,43,train
939.068078994751,5,0,2,3,1,4,E+,1,4,5,400,600,250.0,4,c10gw,44,train
923.1419563293457,5,0,2,3,1,4,E+,1,2,2,400,600,250.0,2,c10gw,45,train
475.3570556640625,5,0,2,3,1,4,E+,1,3,3,400,600,250.0,3,c10gw,46,train
1162.8150939941406,5,0,2,3,1,4,E+,1,5,0,400,600,250.0,5,c10gw,47,train
474.81393814086914,5,0,2,3,1,4,E+,0,3,3,400,600,250.0,4,c10gw,48,train
778.9671421051025,5,0,2,3,1,4,E+,1,3,3,400,600,250.0,3,c10gw,49,train
650.9590148925781,5,0,2,3,1,4,E+,1,3,3,400,600,250.0,3,c10gw,50,train
874.8869895935059,5,0,2,3,1,4,E+,1,2,2,400,600,250.0,2,c10gw,51,train
778.998851776123,5,0,2,3,1,4,E+,1,3,3,400,600,250.0,3,c10gw,52,train
506.78086280822754,5,0,2,3,1,4,E+,1,3,3,400,600,250.0,3,c10gw,53,train
748.1338977813721,5,0,2,3,1,4,E+,1,0,1,400,600,250.0,0,c10gw,54,train
1163.0029678344727,5,0,2,3,1,4,E+,1,1,4,400,600,250.0,1,c10gw,55,train
954.7250270843506,5,0,2,3,1,4,E+,1,4,5,400,600,250.0,4,c10gw,56,train
1178.3819198608398,5,0,2,3,1,4,E+,1,1,4,400,600,250.0,1,c10gw,57,train
667.5300598144531,5,0,2,3,1,4,E+,1,2,2,400,600,250.0,2,c10gw,58,train
811.0380172729492,5,0,2,3,1,4,E+,1,1,4,400,600,250.0,1,c10gw,59,train
1387.063980102539,5,0,2,3,1,4,E+,1,5,0,400,600,250.0,5,c10gw,60,train
795.1071262359619,5,0,2,3,1,4,E+,1,5,0,400,600,250.0,5,c10gw,61,train
938.8220310211182,5,0,2,3,1,4,E+,1,2,2,400,600,250.0,2,c10gw,62,train
570.854902267456,5,0,2,3,1,4,E+,1,2,2,400,600,250.0,2,c10gw,63,train
490.0708198547363,5,0,2,3,1,4,E+,1,2,2,400,600,250.0,2,c10gw,64,train
714.6720886230469,5,0,2,3,1,4,E+,1,3,3,400,600,250.0,3,c10gw,65,train
586.7629051208496,5,0,2,3,1,4,E+,1,3,3,400,600,250.0,3,c10gw,66,train
1322.4990367889404,5,0,2,3,1,4,E+,1,1,4,400,600,250.0,1,c10gw,67,train
1242.7940368652344,5,0,2,3,1,4,E+,1,4,5,400,600,250.0,4,c10gw,68,train
810.83083152771,5,0,2,3,1,4,E+,1,0,1,400,600,250.0,0,c10gw,69,train
523.327112197876,5,0,2,3,1,4,E+,1,0,1,400,600,250.0,0,c10gw,70,train
651.0841846466064,5,0,2,3,1,4,E+,1,1,4,400,600,250.0,1,c10gw,71,train
603.2290458679199,5,0,2,3,1,4,E+,1,2,2,400,600,250.0,2,c10gw,72,train
1131.5979957580566,5,0,2,3,1,4,E+,1,1,4,400,600,250.0,1,c10gw,73,train
906.886100769043,5,0,2,3,1,4,E+,1,4,5,400,600,250.0,4,c10gw,74,train
1626.9419193267822,5,0,2,3,1,4,E+,1,1,4,400,600,250.0,1,c10gw,75,train
715.3899669647217,5,0,2,3,1,4,E+,1,3,3,400,600,250.0,3,c10gw,76,train
1018.88108253479,5,0,2,3,1,4,E+,1,4,5,400,600,250.0,4,c10gw,77,train
667.3998832702637,5,0,2,3,1,4,E+,1,0,1,400,600,250.0,0,c10gw,78,train
939.082145690918,5,0,2,3,1,4,E+,1,3,3,400,600,250.0,3,c10gw,79,train
987.231969833374,5,0,2,3,1,4,E+,1,4,5,400,600,250.0,4,c10gw,80,train
715.3820991516113,5,0,2,3,1,4,E+,1,3,3,400,600,250.0,3,c10gw,81,train
602.6051044464111,5,0,2,3,1,4,E+,1,0,1,400,600,250.0,0,c10gw,82,train
1003.1709671020508,5,0,2,3,1,4,E+,1,2,2,400,600,250.0,2,c10gw,83,train
842.9338932037354,5,0,2,3,1,4,E+,1,5,0,400,600,250.0,5,c10gw,84,train
138.79084587097168,5,0,2,3,1,4,E+,1,5,0,400,600,250.0,5,c10gw,85,train
58.86721611022949,5,0,2,3,1,4,E+,1,4,5,400,600,250.0,4,c10gw,86,train
298.8018989562988,5,0,2,3,1,4,E+,1,1,4,400,600,250.0,1,c10gw,87,train
10.754108428955078,5,0,2,3,1,4,E+,1,1,4,400,600,250.0,1,c10gw,88,train
859.248161315918,5,0,2,3,1,4,E+,1,2,2,400,600,250.0,2,c10gw,89,train
139.09411430358887,5,0,2,3,1,4,E+,1,1,4,400,600,250.0,1,c10gw,90,train
138.90504837036133,5,0,2,3,1,4,E+,0,3,3,400,600,250.0,5,c10gw,91,train
555.2258491516113,5,0,2,3,1,4,E+,1,2,2,400,600,250.0,2,c10gw,92,train
106.79292678833008,5,0,2,3,1,4,E+,1,3,3,400,600,250.0,3,c10gw,93,train
202.87203788757324,5,0,2,3,1,4,E+,1,0,1,400,600,250.0,0,c10gw,94,train
426.82886123657227,5,0,2,3,1,4,E+,0,2,2,400,600,250.0,1,c10gw,95,train
682.9760074615479,5,0,2,3,1,4,E+,1,5,0,400,600,250.0,5,c10gw,96,train
460.0541591644287,5,0,2,3,1,4,E+,1,1,4,400,600,250.0,1,c10gw,97,train
266.95704460144043,5,0,2,3,1,4,E+,0,3,3,400,600,250.0,2,c10gw,98,train
155.04717826843262,5,0,2,3,1,4,E+,1,2,2,400,600,250.0,2,c10gw,99,train
313.8740062713623,5,0,2,3,1,4,E+,1,4,5,400,600,250.0,4,c10gw,100,train
282.8528881072998,5,0,2,3,1,4,E+,1,3,3,400,600,250.0,3,c10gw,101,train
219.96092796325684,5,0,2,3,1,4,E+,1,5,0,400,600,250.0,5,c10gw,102,train
107.10597038269043,5,0,2,3,1,4,E+,1,5,0,400,600,250.0,5,c10gw,103,train
0.164031982421875,5,0,2,3,1,4,E+,1,5,0,400,600,250.0,5,c10gw,104,train
411.06414794921875,5,0,2,3,1,4,E+,1,2,2,400,600,250.0,2,c10gw,105,train
107.11503028869629,5,0,2,3,1,4,E+,1,1,4,400,600,250.0,1,c10gw,106,train
154.83498573303223,5,0,2,3,1,4,E+,1,5,0,400,600,250.0,5,c10gw,107,train
58.75706672668457,5,0,2,3,1,4,E+,1,0,1,400,600,250.0,0,c10gw,108,train
266.88098907470703,5,0,2,3,1,4,E+,1,1,4,400,600,250.0,1,c10gw,109,train
266.4909362792969,5,0,2,3,1,4,E+,1,4,5,400,600,250.0,4,c10gw,110,train
122.99299240112305,5,0,2,3,1,4,E+,1,5,0,400,600,250.0,5,c10gw,111,train
154.9699306488037,5,0,2,3,1,4,E+,1,3,3,400,600,250.0,3,c10gw,112,train
122.79915809631348,5,0,2,3,1,4,E+,1,5,0,400,600,250.0,5,c10gw,113,train
267.136812210083,5,0,2,3,1,4,E+,1,1,4,400,600,250.0,1,c10gw,114,train
58.69317054748535,5,0,2,3,1,4,E+,1,0,1,400,600,250.0,0,c10gw,115,train
458.8479995727539,5,0,2,3,1,4,E+,1,5,0,400,600,250.0,5,c10gw,116,train
298.86889457702637,5,0,2,3,1,4,E+,1,5,0,400,600,250.0,5,c10gw,117,train
170.68099975585938,5,0,2,3,1,4,E+,1,1,4,400,600,250.0,1,c10gw,118,train
1163.1238460540771,5,0,2,3,1,4,E+,1,3,3,400,600,250.0,3,c10gw,119,train
266.4480209350586,5,0,2,3,1,4,E+,1,1,4,400,600,250.0,1,c10gw,120,train
106.52804374694824,5,0,2,3,1,4,E+,1,5,0,400,600,250.0,5,c10gw,121,train
90.51799774169922,5,0,2,3,1,4,E+,1,1,4,400,600,250.0,1,c10gw,122,train
42.33598709106445,5,0,2,3,1,4,E+,1,1,4,400,600,250.0,1,c10gw,123,train
282.75203704833984,5,0,2,3,1,4,E+,1,5,0,400,600,250.0,5,c10gw,124,train
91.0029411315918,5,0,2,3,1,4,E+,0,4,5,400,600,250.0,5,c10gw,125,train
282.5350761413574,5,0,2,3,1,4,E+,1,1,4,400,600,250.0,1,c10gw,126,train
219.45905685424805,5,0,2,3,1,4,E+,1,2,2,400,600,250.0,2,c10gw,127,train
218.80197525024414,5,0,2,3,1,4,E+,1,5,0,400,600,250.0,5,c10gw,128,train
331.1190605163574,5,0,2,3,1,4,E+,1,3,3,400,600,250.0,3,c10gw,129,train
122.75481224060059,5,0,2,3,1,4,E+,1,0,1,400,600,250.0,0,c10gw,130,train
154.8140048980713,5,0,2,3,1,4,E+,1,5,0,400,600,250.0,5,c10gw,131,train
26.430845260620117,5,0,2,3,1,4,E+,1,4,5,400,600,250.0,4,c10gw,132,train
123.07000160217285,5,0,2,3,1,4,E+,1,0,1,400,600,250.0,0,c10gw,133,train
778.9649963378906,5,0,2,3,1,4,E+,1,2,2,400,600,250.0,2,c10gw,134,train
0.18095970153808594,5,0,2,3,1,4,E+,1,2,2,400,600,250.0,2,c10gw,135,train
186.91420555114746,5,0,2,3,1,4,E+,1,3,3,400,600,250.0,3,c10gw,136,train
170.9139347076416,5,0,2,3,1,4,E+,1,5,0,400,600,250.0,5,c10gw,137,train
570.7869529724121,5,0,2,3,1,4,E+,1,3,3,400,600,250.0,3,c10gw,138,train
282.77015686035156,5,0,2,3,1,4,E+,1,1,4,400,600,250.0,1,c10gw,139,train
779.1340351104736,5,0,2,3,1,4,E+,1,4,5,400,600,250.0,4,c10gw,140,train
16.01386070251465,5,0,2,3,1,4,E+,1,5,0,400,600,250.0,5,c10gw,141,train
170.73798179626465,5,0,2,3,1,4,E+,1,1,4,400,600,250.0,1,c10gw,142,train
155.134916305542,5,0,2,3,1,4,E+,1,4,5,400,600,250.0,4,c10gw,143,train
138.8838291168213,5,0,2,3,1,4,E+,1,5,0,400,600,250.0,5,c10gw,144,train
74.65505599975586,5,0,2,3,1,4,E+,1,5,0,400,600,250.0,5,c10gw,145,train
346.8341827392578,5,0,2,3,1,4,E+,0,3,3,400,600,250.0,2,c10gw,146,train
202.84700393676758,5,0,2,3,1,4,E+,1,5,0,400,600,250.0,5,c10gw,147,train
442.0130252838135,5,0,2,3,1,4,E+,1,2,2,400,600,250.0,2,c10gw,148,train
1034.895896911621,5,0,2,3,1,4,E+,1,4,5,400,600,250.0,4,c10gw,149,train
43.11108589172363,5,0,2,3,1,4,E+,1,5,0,400,600,250.0,5,c10gw,150,train
122.72906303405762,5,0,2,3,1,4,E+,1,4,5,400,600,250.0,4,c10gw,151,train
362.71190643310547,5,0,2,3,1,4,E+,1,2,2,400,600,250.0,2,c10gw,152,train
26.490211486816406,5,0,2,3,1,4,E+,1,2,2,400,600,250.0,2,c10gw,153,train
282.67621994018555,5,0,2,3,1,4,E+,1,4,5,400,600,250.0,4,c10gw,154,train
0.12803077697753906,5,0,2,3,1,4,E+,1,3,3,400,600,250.0,3,c10gw,155,train
0.17404556274414062,5,0,2,3,1,4,E+,1,3,3,400,600,250.0,3,c10gw,156,train
0.18286705017089844,5,0,2,3,1,4,E+,1,4,5,400,600,250.0,4,c10gw,157,train
138.86308670043945,5,0,2,3,1,4,E+,1,0,1,400,600,250.0,0,c10gw,158,train
58.88009071350098,5,0,2,3,1,4,E+,1,1,4,400,600,250.0,1,c10gw,159,train
810.8398914337158,5,0,2,3,1,4,E+,1,2,2,400,600,250.0,2,c10gw,160,train
170.81499099731445,5,0,2,3,1,4,E+,1,1,4,400,600,250.0,1,c10gw,161,train
426.9120693206787,5,0,2,3,1,4,E+,1,4,5,400,600,250.0,4,c10gw,162,train
234.9100112915039,5,0,2,3,1,4,E+,1,2,2,400,600,250.0,2,c10gw,163,train
1418.7791347503662,5,0,2,3,1,4,E+,1,2,2,400,600,250.0,2,c10gw,164,train
266.6940689086914,5,0,2,3,1,4,E+,1,4,5,400,600,250.0,4,c10gw,165,train
954.6499252319336,5,0,2,3,1,4,E+,1,3,3,400,600,250.0,3,c10gw,166,train
842.7979946136475,5,0,2,3,1,4,E+,1,3,3,400,600,250.0,3,c10gw,167,train
138.75699043273926,5,0,2,3,1,4,E+,0,1,4,400,600,250.0,0,c10gw,168,train
250.89001655578613,5,0,2,3,1,4,E+,1,1,4,400,600,250.0,1,c10gw,169,train
314.75305557250977,5,0,2,3,1,4,E+,1,5,0,400,600,250.0,5,c10gw,170,train
730.6489944458008,5,0,2,3,1,4,E+,1,4,5,400,600,250.0,4,c10gw,171,train
362.6689910888672,5,0,2,3,1,4,E+,1,3,3,400,600,250.0,3,c10gw,172,train
122.72810935974121,5,0,2,3,1,4,E+,1,5,0,400,600,250.0,5,c10gw,173,train
91.09902381896973,5,0,2,3,1,4,E+,1,5,0,400,600,250.0,5,c10gw,174,train
154.9520492553711,5,0,2,3,1,4,E+,1,1,4,400,600,250.0,1,c10gw,175,train
586.9019031524658,5,0,2,3,1,4,E+,1,3,3,400,600,250.0,3,c10gw,176,train
42.83404350280762,5,0,2,3,1,4,E+,1,4,5,400,600,250.0,4,c10gw,177,train
90.69490432739258,5,0,2,3,1,4,E+,1,3,3,400,600,250.0,3,c10gw,178,train
315.1729106903076,5,0,2,3,1,4,E+,1,1,4,400,600,250.0,1,c10gw,179,train
346.81200981140137,5,0,2,3,1,4,E+,1,2,2,400,600,250.0,2,c10gw,180,train
218.85395050048828,5,0,2,3,1,4,E+,1,5,0,400,600,250.0,5,c10gw,181,train
715.2719497680664,5,0,2,3,1,4,E+,1,2,2,400,600,250.0,2,c10gw,182,train
107.13791847229004,5,0,2,3,1,4,E+,1,3,3,400,600,250.0,3,c10gw,183,train
74.69606399536133,5,0,2,3,1,4,E+,1,3,3,400,600,250.0,3,c10gw,184,train
88.7460708618164,5,0,2,3,1,4,E+,1,5,0,400,600,250.0,5,c10gw,185,train
200.69384574890137,5,0,2,3,1,4,E+,1,0,1,400,600,250.0,0,c10gw,186,train
248.76904487609863,5,0,2,3,1,4,E+,1,4,5,400,600,250.0,4,c10gw,187,train
298.8870143890381,5,0,2,3,1,4,E+,1,1,4,400,600,250.0,1,c10gw,188,train
42.54007339477539,5,0,2,3,1,4,E+,1,2,2,400,600,250.0,2,c10gw,189,train
202.8648853302002,5,0,2,3,1,4,E+,1,0,1,400,600,250.0,0,c10gw,190,train
378.79300117492676,5,0,2,3,1,4,E+,0,2,2,400,600,250.0,3,c10gw,191,train
154.62994575500488,5,0,2,3,1,4,E+,1,0,1,400,600,250.0,0,c10gw,192,train
442.87919998168945,5,0,2,3,1,4,E+,1,3,3,400,600,250.0,3,c10gw,193,train
187.14499473571777,5,0,2,3,1,4,E+,1,1,4,400,600,250.0,1,c10gw,194,train
90.89493751525879,5,0,2,3,1,4,E+,0,2,2,400,600,250.0,1,c10gw,195,train
330.8689594268799,5,0,2,3,1,4,E+,1,1,4,400,600,250.0,1,c10gw,196,train
746.8931674957275,5,0,2,3,1,4,E+,1,4,5,400,600,250.0,4,c10gw,197,train
122.72500991821289,5,0,2,3,1,4,E+,1,3,3,400,600,250.0,3,c10gw,198,train
27.13298797607422,5,0,2,3,1,4,E+,1,3,3,400,600,250.0,3,c10gw,199,train
122.79200553894043,5,0,2,3,1,4,E+,1,0,1,400,600,250.0,0,c10gw,200,train
363.18111419677734,5,0,2,3,1,4,E+,1,4,5,400,600,250.0,4,c10gw,201,train
138.8261318206787,5,0,2,3,1,4,E+,1,5,0,400,600,250.0,5,c10gw,202,train
122.86996841430664,5,0,2,3,1,4,E+,1,4,5,400,600,250.0,4,c10gw,203,train
10.926008224487305,5,0,2,3,1,4,E+,1,4,5,400,600,250.0,4,c10gw,204,train
586.9770050048828,5,0,2,3,1,4,E+,1,4,5,400,600,250.0,4,c10gw,205,train
187.0880126953125,5,0,2,3,1,4,E+,1,0,1,400,600,250.0,0,c10gw,206,train
843.1599140167236,5,0,2,3,1,4,E+,1,3,3,400,600,250.0,3,c10gw,207,train
106.85205459594727,5,0,2,3,1,4,E+,1,0,1,400,600,250.0,0,c10gw,208,train
410.78782081604004,5,0,2,3,1,4,E+,1,0,1,400,600,250.0,0,c10gw,209,train
586.7938995361328,5,0,2,3,1,4,E+,1,2,2,400,600,250.0,2,c10gw,210,train
43.107032775878906,5,0,2,3,1,4,E+,1,2,2,400,600,250.0,2,c10gw,211,train
665.6382083892822,5,0,2,3,1,4,E+,1,2,2,400,600,250.0,2,c10gw,212,train
346.88806533813477,5,0,2,3,1,4,E+,1,3,3,400,600,250.0,3,c10gw,213,train
218.92905235290527,5,0,2,3,1,4,E+,1,1,4,400,600,250.0,1,c10gw,214,train
10.664939880371094,5,0,2,3,1,4,E+,1,0,1,400,600,250.0,0,c10gw,215,train
154.90102767944336,5,0,2,3,1,4,E+,1,5,0,400,600,250.0,5,c10gw,216,train
410.9148979187012,5,0,2,3,1,4,E+,1,3,3,400,600,250.0,3,c10gw,217,train
122.77603149414062,5,0,2,3,1,4,E+,1,5,0,400,600,250.0,5,c10gw,218,train
27.09817886352539,5,0,2,3,1,4,E+,1,4,5,400,600,250.0,4,c10gw,219,train
266.887903213501,5,0,2,3,1,4,E+,1,2,2,400,600,250.0,2,c10gw,220,train
90.43288230895996,5,0,2,3,1,4,E+,1,5,0,400,600,250.0,5,c10gw,221,train
74.68008995056152,5,0,2,3,1,4,E+,1,5,0,400,600,250.0,5,c10gw,222,train
488.69800567626953,5,0,2,3,1,4,E+,1,3,3,400,600,250.0,3,c10gw,223,train
330.74402809143066,5,0,2,3,1,4,E+,1,2,2,400,600,250.0,2,c10gw,224,train
154.9232006072998,5,0,2,3,1,4,E+,1,1,4,400,600,250.0,1,c10gw,225,train
250.8070468902588,5,0,2,3,1,4,E+,1,2,2,400,600,250.0,2,c10gw,226,train
107.1019172668457,5,0,2,3,1,4,E+,1,5,0,400,600,250.0,5,c10gw,227,train
202.86297798156738,5,0,2,3,1,4,E+,1,0,1,400,600,250.0,0,c10gw,228,train
122.78985977172852,5,0,2,3,1,4,E+,1,1,4,400,600,250.0,1,c10gw,229,train
427.06990242004395,5,0,2,3,1,4,E+,1,3,3,400,600,250.0,3,c10gw,230,train
91.16792678833008,5,0,2,3,1,4,E+,1,0,1,400,600,250.0,0,c10gw,231,train
90.88397026062012,5,0,2,3,1,4,E+,1,1,4,400,600,250.0,1,c10gw,232,train
106.83202743530273,5,0,2,3,1,4,E+,1,5,0,400,600,250.0,5,c10gw,233,train
330.8520317077637,5,0,2,3,1,4,E+,1,2,2,400,600,250.0,2,c10gw,234,train
379.18806076049805,5,0,2,3,1,4,E+,1,4,5,400,600,250.0,4,c10gw,235,train
122.78103828430176,5,0,2,3,1,4,E+,1,0,1,400,600,250.0,0,c10gw,236,train
27.18496322631836,5,0,2,3,1,4,E+,1,0,1,400,600,250.0,0,c10gw,237,train
295.55797576904297,5,0,2,3,1,4,E+,1,4,5,400,600,250.0,4,c10gw,238,train
282.912015914917,5,0,2,3,1,4,E+,0,3,3,400,600,250.0,4,c10gw,239,train
1178.189992904663,5,0,2,3,1,4,E+,1,4,5,400,600,250.0,4,c10gw,240,train
74.95903968811035,5,0,2,3,1,4,E+,1,0,1,400,600,250.0,0,c10gw,241,train
75.0589370727539,5,0,2,3,1,4,E+,1,1,4,400,600,250.0,1,c10gw,242,train
88.6681079864502,5,0,2,3,1,4,E+,1,0,1,400,600,250.0,0,c10gw,243,train
202.98385620117188,5,0,2,3,1,4,E+,1,2,2,400,600,250.0,2,c10gw,244,train
106.7659854888916,5,0,2,3,1,4,E+,1,0,1,400,600,250.0,0,c10gw,245,train
58.72201919555664,5,0,2,3,1,4,E+,0,3,3,400,600,250.0,2,c10gw,246,train
154.8480987548828,5,0,2,3,1,4,E+,1,3,3,400,600,250.0,3,c10gw,247,train
155.1969051361084,5,0,2,3,1,4,E+,1,0,1,400,600,250.0,0,c10gw,248,train
202.8961181640625,5,0,2,3,1,4,E+,1,5,0,400,600,250.0,5,c10gw,249,train
1344.8009490966797,5,0,2,3,1,4,E+,1,2,2,0,1000,250.0,2,c10gw,250,test
656.8899154663086,5,0,2,3,1,4,E+,1,2,2,0,1000,250.0,2,c10gw,251,test
1344.7561264038086,5,0,2,3,1,4,E+,1,4,5,0,1000,250.0,4,c10gw,252,test
847.6581573486328,5,0,2,3,1,4,E+,1,4,5,0,1000,250.0,4,c10gw,253,test
464.8630619049072,5,0,2,3,1,4,E+,1,4,5,0,1000,250.0,4,c10gw,254,test
624.5911121368408,5,0,2,3,1,4,E+,1,2,2,0,1000,250.0,2,c10gw,255,test
560.85205078125,5,0,2,3,1,4,E+,1,2,2,0,1000,250.0,2,c10gw,256,test
432.8179359436035,5,0,2,3,1,4,E+,1,2,2,0,1000,250.0,2,c10gw,257,test
464.75791931152344,5,0,2,3,1,4,E+,1,2,2,0,1000,250.0,2,c10gw,258,test
768.8629627227783,5,0,2,3,1,4,E+,1,3,3,0,1000,250.0,3,c10gw,259,test
672.6970672607422,5,0,2,3,1,4,E+,1,4,5,0,1000,250.0,4,c10gw,260,test
720.7310199737549,5,0,2,3,1,4,E+,1,0,1,0,1000,250.0,0,c10gw,261,test
1056.8039417266846,5,0,2,3,1,4,E+,1,4,5,0,1000,250.0,4,c10gw,262,test
672.9159355163574,5,0,2,3,1,4,E+,1,3,3,0,1000,250.0,3,c10gw,263,test
544.8400974273682,5,0,2,3,1,4,E+,1,0,1,0,1000,250.0,0,c10gw,264,test
462.6128673553467,5,0,2,3,1,4,E+,1,0,1,0,1000,250.0,0,c10gw,265,test
416.72801971435547,5,0,2,3,1,4,E+,1,0,1,0,1000,250.0,0,c10gw,266,test
944.7669982910156,5,0,2,3,1,4,E+,1,4,5,0,1000,250.0,4,c10gw,267,test
720.9980487823486,5,0,2,3,1,4,E+,1,1,4,0,1000,250.0,1,c10gw,268,test
640.9049034118652,5,0,2,3,1,4,E+,1,0,1,0,1000,250.0,0,c10gw,269,test
704.7209739685059,5,0,2,3,1,4,E+,1,3,3,0,1000,250.0,3,c10gw,270,test
736.7041110992432,5,0,2,3,1,4,E+,1,2,2,0,1000,250.0,2,c10gw,271,test
512.7780437469482,5,0,2,3,1,4,E+,1,0,1,0,1000,250.0,0,c10gw,272,test
720.2749252319336,5,0,2,3,1,4,E+,1,4,5,0,1000,250.0,4,c10gw,273,test
431.77199363708496,5,0,2,3,1,4,E+,1,0,1,0,1000,250.0,0,c10gw,274,test
800.7309436798096,5,0,2,3,1,4,E+,1,5,0,0,1000,250.0,5,c10gw,275,test
720.3559875488281,5,0,2,3,1,4,E+,1,5,0,0,1000,250.0,5,c10gw,276,test
624.8571872711182,5,0,2,3,1,4,E+,1,5,0,0,1000,250.0,5,c10gw,277,test
1232.8248023986816,5,0,2,3,1,4,E+,1,3,3,0,1000,250.0,3,c10gw,278,test
528.8839340209961,5,0,2,3,1,4,E+,1,0,1,0,1000,250.0,0,c10gw,279,test
1248.8510608673096,5,0,2,3,1,4,E+,1,4,5,0,1000,250.0,4,c10gw,280,test
736.6929054260254,5,0,2,3,1,4,E+,1,2,2,0,1000,250.0,2,c10gw,281,test
544.7120666503906,5,0,2,3,1,4,E+,1,0,1,0,1000,250.0,0,c10gw,282,test
592.634916305542,5,0,2,3,1,4,E+,1,3,3,0,1000,250.0,3,c10gw,283,test
304.7828674316406,5,0,2,3,1,4,E+,1,0,1,0,1000,250.0,0,c10gw,284,test
513.7569904327393,5,0,2,3,1,4,E+,1,3,3,0,1000,250.0,3,c10gw,285,test
304.6698570251465,5,0,2,3,1,4,E+,1,0,1,0,1000,250.0,0,c10gw,286,test
560.7099533081055,5,0,2,3,1,4,E+,1,2,2,0,1000,250.0,2,c10gw,287,test
464.72907066345215,5,0,2,3,1,4,E+,1,0,1,0,1000,250.0,0,c10gw,288,test
848.6099243164062,5,0,2,3,1,4,E+,1,4,5,0,1000,250.0,4,c10gw,289,test
976.909875869751,5,0,2,3,1,4,E+,1,2,2,0,1000,250.0,2,c10gw,290,test
353.1351089477539,5,0,2,3,1,4,E+,1,0,1,0,1000,250.0,0,c10gw,291,test
848.9270210266113,5,0,2,3,1,4,E+,1,1,4,0,1000,250.0,1,c10gw,292,test
576.7240524291992,5,0,2,3,1,4,E+,1,2,2,0,1000,250.0,2,c10gw,293,test
768.7499523162842,5,0,2,3,1,4,E+,1,1,4,0,1000,250.0,1,c10gw,294,test
640.9239768981934,5,0,2,3,1,4,E+,1,1,4,0,1000,250.0,1,c10gw,295,test
880.695104598999,5,0,2,3,1,4,E+,1,4,5,0,1000,250.0,4,c10gw,296,test
464.7080898284912,5,0,2,3,1,4,E+,1,4,5,0,1000,250.0,4,c10gw,297,test
560.7588291168213,5,0,2,3,1,4,E+,1,3,3,0,1000,250.0,3,c10gw,298,test
1057.0018291473389,5,0,2,3,1,4,E+,1,4,5,0,1000,250.0,4,c10gw,299,test
672.9719638824463,5,0,2,3,1,4,E+,1,2,2,0,1000,250.0,2,c10gw,300,test
496.7019557952881,5,0,2,3,1,4,E+,1,2,2,0,1000,250.0,2,c10gw,301,test
512.8211975097656,5,0,2,3,1,4,E+,1,0,1,0,1000,250.0,0,c10gw,302,test
832.1878910064697,5,0,2,3,1,4,E+,1,4,5,0,1000,250.0,4,c10gw,303,test
656.7521095275879,5,0,2,3,1,4,E+,1,2,2,0,1000,250.0,2,c10gw,304,test
512.9580497741699,5,0,2,3,1,4,E+,1,2,2,0,1000,250.0,2,c10gw,305,test
544.6279048919678,5,0,2,3,1,4,E+,1,0,1,0,1000,250.0,0,c10gw,306,test
960.9370231628418,5,0,2,3,1,4,E+,1,5,0,0,1000,250.0,5,c10gw,307,test
512.8700733184814,5,0,2,3,1,4,E+,1,0,1,0,1000,250.0,0,c10gw,308,test
1136.7230415344238,5,0,2,3,1,4,E+,1,1,4,0,1000,250.0,1,c10gw,309,test
480.9279441833496,5,0,2,3,1,4,E+,1,0,1,0,1000,250.0,0,c10gw,310,test
624.9070167541504,5,0,2,3,1,4,E+,1,5,0,0,1000,250.0,5,c10gw,311,test
864.6800518035889,5,0,2,3,1,4,E+,1,3,3,0,1000,250.0,3,c10gw,312,test
511.7959976196289,5,0,2,3,1,4,E+,1,0,1,0,1000,250.0,0,c10gw,313,test
1296.7560291290283,5,0,2,3,1,4,E+,1,4,5,0,1000,250.0,4,c10gw,314,test
480.9439182281494,5,0,2,3,1,4,E+,1,0,1,0,1000,250.0,0,c10gw,315,test
736.9349002838135,5,0,2,3,1,4,E+,1,3,3,0,1000,250.0,3,c10gw,316,test
448.8561153411865,5,0,2,3,1,4,E+,0,1,4,0,1000,250.0,3,c10gw,317,test
593.040943145752,5,0,2,3,1,4,E+,1,2,2,0,1000,250.0,2,c10gw,318,test
496.6120719909668,5,0,2,3,1,4,E+,1,2,2,0,1000,250.0,2,c10gw,319,test
432.877779006958,5,0,2,3,1,4,E+,1,2,2,0,1000,250.0,2,c10gw,320,test
528.6378860473633,5,0,2,3,1,4,E+,1,3,3,0,1000,250.0,3,c10gw,321,test
480.80992698669434,5,0,2,3,1,4,E+,1,2,2,0,1000,250.0,2,c10gw,322,test
448.7929344177246,5,0,2,3,1,4,E+,1,2,2,0,1000,250.0,2,c10gw,323,test
590.61598777771,5,0,2,3,1,4,E+,1,1,4,0,1000,250.0,1,c10gw,324,test
496.99997901916504,5,0,2,3,1,4,E+,1,0,1,0,1000,250.0,0,c10gw,325,test
640.7740116119385,5,0,2,3,1,4,E+,1,1,4,0,1000,250.0,1,c10gw,326,test
944.6749687194824,5,0,2,3,1,4,E+,1,4,5,0,1000,250.0,4,c10gw,327,test
560.7831478118896,5,0,2,3,1,4,E+,1,0,1,0,1000,250.0,0,c10gw,328,test
672.7399826049805,5,0,2,3,1,4,E+,1,1,4,0,1000,250.0,1,c10gw,329,test
528.9340019226074,5,0,2,3,1,4,E+,1,2,2,0,1000,250.0,2,c10gw,330,test
528.7060737609863,5,0,2,3,1,4,E+,1,0,1,0,1000,250.0,0,c10gw,331,test
1248.7280368804932,5,0,2,3,1,4,E+,1,3,3,0,1000,250.0,3,c10gw,332,test
640.6431198120117,5,0,2,3,1,4,E+,1,5,0,0,1000,250.0,5,c10gw,333,test
624.8760223388672,5,0,2,3,1,4,E+,1,3,3,0,1000,250.0,3,c10gw,334,test
593.0211544036865,5,0,2,3,1,4,E+,1,0,1,0,1000,250.0,0,c10gw,335,test
832.6718807220459,5,0,2,3,1,4,E+,1,4,5,0,1000,250.0,4,c10gw,336,test
608.8089942932129,5,0,2,3,1,4,E+,1,5,0,0,1000,250.0,5,c10gw,337,test
864.818811416626,5,0,2,3,1,4,E+,1,1,4,0,1000,250.0,1,c10gw,338,test
427.1819591522217,5,0,2,3,1,4,E+,1,1,4,0,1000,250.0,1,c10gw,339,test
528.7609100341797,5,0,2,3,1,4,E+,1,2,2,0,1000,250.0,2,c10gw,340,test
320.85704803466797,5,0,2,3,1,4,E+,1,0,1,0,1000,250.0,0,c10gw,341,test
384.71388816833496,5,0,2,3,1,4,E+,1,0,1,0,1000,250.0,0,c10gw,342,test
496.7818260192871,5,0,2,3,1,4,E+,1,2,2,0,1000,250.0,2,c10gw,343,test
608.8509559631348,5,0,2,3,1,4,E+,1,2,2,0,1000,250.0,2,c10gw,344,test
304.8529624938965,5,0,2,3,1,4,E+,0,3,3,0,1000,250.0,0,c10gw,345,test
976.7601490020752,5,0,2,3,1,4,E+,1,1,4,0,1000,250.0,1,c10gw,346,test
592.7720069885254,5,0,2,3,1,4,E+,1,2,2,0,1000,250.0,2,c10gw,347,test
496.628999710083,5,0,2,3,1,4,E+,1,0,1,0,1000,250.0,0,c10gw,348,test
799.3311882019043,5,0,2,3,1,4,E+,1,1,4,0,1000,250.0,1,c10gw,349,test
1088.886022567749,5,0,2,3,1,4,E+,1,4,5,0,1000,250.0,4,c10gw,350,test
544.7819232940674,5,0,2,3,1,4,E+,1,2,2,0,1000,250.0,2,c10gw,351,test
496.9000816345215,5,0,2,3,1,4,E+,1,5,0,0,1000,250.0,5,c10gw,352,test
448.46320152282715,5,0,2,3,1,4,E+,1,0,1,0,1000,250.0,0,c10gw,353,test
560.7638359069824,5,0,2,3,1,4,E+,1,2,2,0,1000,250.0,2,c10gw,354,test
944.8280334472656,5,0,2,3,1,4,E+,1,4,5,0,1000,250.0,4,c10gw,355,test
688.6930465698242,5,0,2,3,1,4,E+,1,0,1,0,1000,250.0,0,c10gw,356,test
784.8920822143555,5,0,2,3,1,4,E+,1,0,1,0,1000,250.0,0,c10gw,357,test
864.7398948669434,5,0,2,3,1,4,E+,1,5,0,0,1000,250.0,5,c10gw,358,test
2.1800994873046875,5,0,2,3,1,4,E+,1,5,0,0,1000,250.0,5,c10gw,359,test
689.0249252319336,5,0,2,3,1,4,E+,1,5,0,0,1000,250.0,5,c10gw,360,test
640.8381462097168,5,0,2,3,1,4,E+,1,1,4,0,1000,250.0,1,c10gw,361,test
896.914005279541,5,0,2,3,1,4,E+,1,3,3,0,1000,250.0,3,c10gw,362,test
800.9309768676758,5,0,2,3,1,4,E+,1,3,3,0,1000,250.0,3,c10gw,363,test
752.8009414672852,5,0,2,3,1,4,E+,1,4,5,0,1000,250.0,4,c10gw,364,test
2176.868200302124,5,0,2,3,1,4,E+,0,2,2,0,1000,250.0,0,c10gw,365,test
80.79791069030762,5,0,2,3,1,4,E+,0,4,5,0,1000,250.0,0,c10gw,366,test
912.7461910247803,5,0,2,3,1,4,E+,1,4,5,0,1000,250.0,4,c10gw,367,test
576.7509937286377,5,0,2,3,1,4,E+,1,0,1,0,1000,250.0,0,c10gw,368,test
704.6780586242676,5,0,2,3,1,4,E+,1,3,3,0,1000,250.0,3,c10gw,369,test
1056.9219589233398,5,0,2,3,1,4,E+,1,4,5,0,1000,250.0,4,c10gw,370,test
640.6519412994385,5,0,2,3,1,4,E+,1,5,0,0,1000,250.0,5,c10gw,371,test
784.822940826416,5,0,2,3,1,4,E+,1,0,1,0,1000,250.0,0,c10gw,372,test
656.8260192871094,5,0,2,3,1,4,E+,1,1,4,0,1000,250.0,1,c10gw,373,test
1152.6210308074951,5,0,2,3,1,4,E+,1,4,5,0,1000,250.0,4,c10gw,374,test
608.8180541992188,5,0,2,3,1,4,E+,1,0,1,0,1000,250.0,0,c10gw,375,test
608.8500022888184,5,0,2,3,1,4,E+,1,1,4,0,1000,250.0,1,c10gw,376,test
960.6940746307373,5,0,2,3,1,4,E+,1,4,5,0,1000,250.0,4,c10gw,377,test
1344.7341918945312,5,0,2,3,1,4,E+,1,2,2,0,1000,250.0,2,c10gw,378,test
704.6799659729004,5,0,2,3,1,4,E+,1,0,1,0,1000,250.0,0,c10gw,379,test
1360.6529235839844,5,0,2,3,1,4,E+,1,3,3,0,1000,250.0,3,c10gw,380,test
688.6329650878906,5,0,2,3,1,4,E+,1,1,4,0,1000,250.0,1,c10gw,381,test
576.7221450805664,5,0,2,3,1,4,E+,1,0,1,0,1000,250.0,0,c10gw,382,test
1088.40012550354,5,0,2,3,1,4,E+,1,4,5,0,1000,250.0,4,c10gw,383,test
512.7191543579102,5,0,2,3,1,4,E+,1,0,1,0,1000,250.0,0,c10gw,384,test
992.7010536193848,5,0,2,3,1,4,E+,1,4,5,0,1000,250.0,4,c10gw,385,test
784.7130298614502,5,0,2,3,1,4,E+,1,1,4,0,1000,250.0,1,c10gw,386,test
960.7357978820801,5,0,2,3,1,4,E+,1,3,3,0,1000,250.0,3,c10gw,387,test
2160.609006881714,5,0,2,3,1,4,E+,1,1,4,0,1000,250.0,1,c10gw,388,test
16.76201820373535,5,0,2,3,1,4,E+,0,5,0,0,1000,250.0,1,c10gw,389,test
1216.8309688568115,5,0,2,3,1,4,E+,1,1,4,0,1000,250.0,1,c10gw,390,test
928.8640022277832,5,0,2,3,1,4,E+,1,5,0,0,1000,250.0,5,c10gw,391,test
608.8860034942627,5,0,2,3,1,4,E+,1,5,0,0,1000,250.0,5,c10gw,392,test
688.8790130615234,5,0,2,3,1,4,E+,0,1,4,0,1000,250.0,5,c10gw,393,test
753.0429363250732,5,0,2,3,1,4,E+,1,5,0,0,1000,250.0,5,c10gw,394,test
672.8858947753906,5,0,2,3,1,4,E+,1,2,2,0,1000,250.0,2,c10gw,395,test
1136.7781162261963,5,0,2,3,1,4,E+,1,1,4,0,1000,250.0,1,c10gw,396,test
624.5980262756348,5,0,2,3,1,4,E+,1,2,2,0,1000,250.0,2,c10gw,397,test
1056.9350719451904,5,0,2,3,1,4,E+,1,5,0,0,1000,250.0,5,c10gw,398,test
144.8369026184082,5,0,2,3,1,4,E+,0,1,4,0,1000,250.0,5,c10gw,399,test
928.9429187774658,5,0,2,3,1,4,E+,1,3,3,0,1000,250.0,3,c10gw,400,test
512.6430988311768,5,0,2,3,1,4,E+,1,3,3,0,1000,250.0,3,c10gw,401,test
576.5340328216553,5,0,2,3,1,4,E+,1,3,3,0,1000,250.0,3,c10gw,402,test
1168.6770915985107,5,0,2,3,1,4,E+,1,1,4,0,1000,250.0,1,c10gw,403,test
1776.7128944396973,5,0,2,3,1,4,E+,1,5,0,0,1000,250.0,5,c10gw,404,test
625.0441074371338,5,0,2,3,1,4,E+,1,3,3,0,1000,250.0,3,c10gw,405,test
912.6548767089844,5,0,2,3,1,4,E+,1,0,1,0,1000,250.0,0,c10gw,406,test
960.9129428863525,5,0,2,3,1,4,E+,1,4,5,0,1000,250.0,4,c10gw,407,test
528.8200378417969,5,0,2,3,1,4,E+,1,0,1,0,1000,250.0,0,c10gw,408,test
400.8481502532959,5,0,2,3,1,4,E+,1,2,2,0,1000,250.0,2,c10gw,409,test
1024.7809886932373,5,0,2,3,1,4,E+,0,4,5,0,1000,250.0,3,c10gw,410,test
768.8138484954834,5,0,2,3,1,4,E+,1,5,0,0,1000,250.0,5,c10gw,411,test
576.8170356750488,5,0,2,3,1,4,E+,1,2,2,0,1000,250.0,2,c10gw,412,test
384.6280574798584,5,0,2,3,1,4,E+,1,2,2,0,1000,250.0,2,c10gw,413,test
448.58312606811523,5,0,2,3,1,4,E+,0,5,0,0,1000,250.0,4,c10gw,414,test
512.7849578857422,5,0,2,3,1,4,E+,1,2,2,0,1000,250.0,2,c10gw,415,test
608.597993850708,5,0,2,3,1,4,E+,1,3,3,0,1000,250.0,3,c10gw,416,test
592.7472114562988,5,0,2,3,1,4,E+,1,2,2,0,1000,250.0,2,c10gw,417,test
464.8599624633789,5,0,2,3,1,4,E+,1,3,3,0,1000,250.0,3,c10gw,418,test
848.7880229949951,5,0,2,3,1,4,E+,1,5,0,0,1000,250.0,5,c10gw,419,test
512.7348899841309,5,0,2,3,1,4,E+,1,2,2,0,1000,250.0,2,c10gw,420,test
464.6639823913574,5,0,2,3,1,4,E+,1,2,2,0,1000,250.0,2,c10gw,421,test
704.5869827270508,5,0,2,3,1,4,E+,1,1,4,0,1000,250.0,1,c10gw,422,test
528.8958549499512,5,0,2,3,1,4,E+,0,2,2,0,1000,250.0,3,c10gw,423,test
672.752857208252,5,0,2,3,1,4,E+,1,5,0,0,1000,250.0,5,c10gw,424,test
577.4588584899902,5,0,2,3,1,4,E+,1,0,1,0,1000,250.0,0,c10gw,425,test
528.5308361053467,5,0,2,3,1,4,E+,1,2,2,0,1000,250.0,2,c10gw,426,test
496.76513671875,5,0,2,3,1,4,E+,1,0,1,0,1000,250.0,0,c10gw,427,test
1040.498971939087,5,0,2,3,1,4,E+,1,4,5,0,1000,250.0,4,c10gw,428,test
640.5339241027832,5,0,2,3,1,4,E+,1,1,4,0,1000,250.0,1,c10gw,429,test
544.8119640350342,5,0,2,3,1,4,E+,1,0,1,0,1000,250.0,0,c10gw,430,test
832.7579498291016,5,0,2,3,1,4,E+,1,4,5,0,1000,250.0,4,c10gw,431,test
1072.741985321045,5,0,2,3,1,4,E+,1,1,4,0,1000,250.0,1,c10gw,432,test
1152.6329517364502,5,0,2,3,1,4,E+,1,1,4,0,1000,250.0,1,c10gw,433,test
624.9370574951172,5,0,2,3,1,4,E+,1,5,0,0,1000,250.0,5,c10gw,434,test
1120.455026626587,5,0,2,3,1,4,E+,1,1,4,0,1000,250.0,1,c10gw,435,test
608.90793800354,5,0,2,3,1,4,E+,1,1,4,0,1000,250.0,1,c10gw,436,test
576.9028663635254,5,0,2,3,1,4,E+,1,3,3,0,1000,250.0,3,c10gw,437,test
576.8141746520996,5,0,2,3,1,4,E+,1,3,3,0,1000,250.0,3,c10gw,438,test
928.6758899688721,5,0,2,3,1,4,E+,1,2,2,0,1000,250.0,2,c10gw,439,test
624.8371601104736,5,0,2,3,1,4,E+,1,3,3,0,1000,250.0,3,c10gw,440,test
896.8009948730469,5,0,2,3,1,4,E+,1,5,0,0,1000,250.0,5,c10gw,441,test
944.9100494384766,5,0,2,3,1,4,E+,1,5,0,0,1000,250.0,5,c10gw,442,test
1856.6689491271973,5,0,2,3,1,4,E+,1,2,2,0,1000,250.0,2,c10gw,443,test
1232.6769828796387,5,0,2,3,1,4,E+,1,4,5,0,1000,250.0,4,c10gw,444,test
720.7121849060059,5,0,2,3,1,4,E+,1,2,2,0,1000,250.0,2,c10gw,445,test
576.8189430236816,5,0,2,3,1,4,E+,1,2,2,0,1000,250.0,2,c10gw,446,test
528.7680625915527,5,0,2,3,1,4,E+,1,2,2,0,1000,250.0,2,c10gw,447,test
768.834114074707,5,0,2,3,1,4,E+,1,1,4,0,1000,250.0,1,c10gw,448,test
1088.9170169830322,5,0,2,3,1,4,E+,1,2,2,0,1000,250.0,2,c10gw,449,test
592.9050445556641,5,0,2,3,1,4,E+,1,1,4,0,1000,250.0,1,c10gw,450,test
512.0620727539062,5,0,2,3,1,4,E+,1,3,3,0,1000,250.0,3,c10gw,451,test
416.6741371154785,5,0,2,3,1,4,E+,1,3,3,0,1000,250.0,3,c10gw,452,test
448.70901107788086,5,0,2,3,1,4,E+,0,2,2,0,1000,250.0,3,c10gw,453,test
672.4178791046143,5,0,2,3,1,4,E+,1,3,3,0,1000,250.0,3,c10gw,454,test
704.6160697937012,5,0,2,3,1,4,E+,1,1,4,0,1000,250.0,1,c10gw,455,test
832.5119018554688,5,0,2,3,1,4,E+,1,4,5,0,1000,250.0,4,c10gw,456,test
896.7578411102295,5,0,2,3,1,4,E+,1,4,5,0,1000,250.0,4,c10gw,457,test
768.8369750976562,5,0,2,3,1,4,E+,1,1,4,0,1000,250.0,1,c10gw,458,test
1520.744800567627,5,0,2,3,1,4,E+,1,5,0,0,1000,250.0,5,c10gw,459,test
688.668966293335,5,0,2,3,1,4,E+,1,5,0,0,1000,250.0,5,c10gw,460,test
544.8188781738281,5,0,2,3,1,4,E+,1,5,0,0,1000,250.0,5,c10gw,461,test
560.8439445495605,5,0,2,3,1,4,E+,1,5,0,0,1000,250.0,5,c10gw,462,test
560.5239868164062,5,0,2,3,1,4,E+,1,3,3,0,1000,250.0,3,c10gw,463,test
384.54389572143555,5,0,2,3,1,4,E+,1,4,5,0,1000,250.0,4,c10gw,464,test
752.781867980957,5,0,2,3,1,4,E+,1,5,0,0,1000,250.0,5,c10gw,465,test
592.7391052246094,5,0,2,3,1,4,E+,1,5,0,0,1000,250.0,5,c10gw,466,test
560.7268810272217,5,0,2,3,1,4,E+,1,4,5,0,1000,250.0,4,c10gw,467,test
640.8078670501709,5,0,2,3,1,4,E+,1,3,3,0,1000,250.0,3,c10gw,468,test
672.8789806365967,5,0,2,3,1,4,E+,1,5,0,0,1000,250.0,5,c10gw,469,test
512.6829147338867,5,0,2,3,1,4,E+,1,3,3,0,1000,250.0,3,c10gw,470,test
1040.754795074463,5,0,2,3,1,4,E+,1,1,4,0,1000,250.0,1,c10gw,471,test
336.7760181427002,5,0,2,3,1,4,E+,1,0,1,0,1000,250.0,0,c10gw,472,test
432.33609199523926,5,0,2,3,1,4,E+,1,0,1,0,1000,250.0,0,c10gw,473,test
656.8100452423096,5,0,2,3,1,4,E+,1,5,0,0,1000,250.0,5,c10gw,474,test
544.5590019226074,5,0,2,3,1,4,E+,1,0,1,0,1000,250.0,0,c10gw,475,test
496.9029426574707,5,0,2,3,1,4,E+,1,3,3,0,1000,250.0,3,c10gw,476,test
688.8208389282227,5,0,2,3,1,4,E+,1,4,5,0,1000,250.0,4,c10gw,477,test
656.8458080291748,5,0,2,3,1,4,E+,1,5,0,0,1000,250.0,5,c10gw,478,test
16.906023025512695,5,0,2,3,1,4,E+,0,0,1,0,1000,250.0,5,c10gw,479,test
432.6949119567871,5,0,2,3,1,4,E+,1,0,1,0,1000,250.0,0,c10gw,480,test
384.80591773986816,5,0,2,3,1,4,E+,1,0,1,0,1000,250.0,0,c10gw,481,test
797.9879379272461,5,0,2,3,1,4,E+,1,4,5,0,1000,250.0,4,c10gw,482,test
640.8770084381104,5,0,2,3,1,4,E+,1,5,0,0,1000,250.0,5,c10gw,483,test
544.7490215301514,5,0,2,3,1,4,E+,0,5,0,0,1000,250.0,4,c10gw,484,test
672.7900505065918,5,0,2,3,1,4,E+,1,2,2,0,1000,250.0,2,c10gw,485,test
1808.00199508667,5,0,2,3,1,4,E+,1,4,5,0,1000,250.0,4,c10gw,486,test
512.7317905426025,5,0,2,3,1,4,E+,1,3,3,0,1000,250.0,3,c10gw,487,test
528.5978317260742,5,0,2,3,1,4,E+,1,0,1,0,1000,250.0,0,c10gw,488,test
672.666072845459,5,0,2,3,1,4,E+,1,1,4,0,1000,250.0,1,c10gw,489,test
608.6678504943848,5,0,2,3,1,4,E+,1,5,0,0,1000,250.0,5,c10gw,490,test
576.7018795013428,5,0,2,3,1,4,E+,1,0,1,0,1000,250.0,0,c10gw,491,test
688.683032989502,5,0,2,3,1,4,E+,1,5,0,0,1000,250.0,5,c10gw,492,test
704.6549320220947,5,0,2,3,1,4,E+,1,1,4,0,1000,250.0,1,c10gw,493,test
800.8489608764648,5,0,2,3,1,4,E+,1,3,3,0,1000,250.0,3,c10gw,494,test
512.2668743133545,5,0,2,3,1,4,E+,1,3,3,0,1000,250.0,3,c10gw,495,test
720.7040786743164,5,0,2,3,1,4,E+,1,2,2,0,1000,250.0,2,c10gw,496,test
656.7130088806152,5,0,2,3,1,4,E+,1,5,0,0,1000,250.0,5,c10gw,497,test
768.6798572540283,5,0,2,3,1,4,E+,0,4,5,0,1000,250.0,3,c10gw,498,test
720.6571102142334,5,0,2,3,1,4,E+,1,2,2,0,1000,250.0,2,c10gw,499,test
