RT,SRmap_0,SRmap_1,SRmap_2,SRmap_3,SRmap_4,SRmap_5,condition,correct,correct_response,curstim,ms-precue,ms-prestimblank,ntrials,response,subject,trial,type
1072.7980136871338,3,2,1,4,5,0,M,1,1,2,0,1000,250.0,1,E01GE,0,train
640.855073928833,3,2,1,4,5,0,M,1,2,1,0,1000,250.0,2,E01GE,1,train
593.0328369140625,3,2,1,4,5,0,M,1,2,1,0,1000,250.0,2,E01GE,2,train
512.9251480102539,3,2,1,4,5,0,M,1,0,5,0,1000,250.0,0,E01GE,3,train
464.5800590515137,3,2,1,4,5,0,M,1,1,2,0,1000,250.0,1,E01GE,4,train
417.0567989349365,3,2,1,4,5,0,M,1,2,1,0,1000,250.0,2,E01GE,5,train
576.9801139831543,3,2,1,4,5,0,M,0,4,3,0,1000,250.0,3,E01GE,6,train
657.0451259613037,3,2,1,4,5,0,M,1,1,2,0,1000,250.0,1,E01GE,7,train
561.0060691833496,3,2,1,4,5,0,M,1,1,2,0,1000,250.0,1,E01GE,8,train
560.9800815582275,3,2,1,4,5,0,M,1,1,2,0,1000,250.0,1,E01GE,9,train
560.964822769165,3,2,1,4,5,0,M,1,0,5,0,1000,250.0,0,E01GE,10,train
656.994104385376,3,2,1,4,5,0,M,1,4,3,0,1000,250.0,4,E01GE,11,train
449.0320682525635,3,2,1,4,5,0,M,1,4,3,0,1000,250.0,4,E01GE,12,train
560.9989166259766,3,2,1,4,5,0,M,1,5,4,0,1000,250.0,5,E01GE,13,train
641.0140991210938,3,2,1,4,5,0,M,0,2,1,0,1000,250.0,1,E01GE,14,train
640.9738063812256,3,2,1,4,5,0,M,1,4,3,0,1000,250.0,4,E01GE,15,train
673.0518341064453,3,2,1,4,5,0,M,1,0,5,0,1000,250.0,0,E01GE,16,train
480.98087310791016,3,2,1,4,5,0,M,1,0,5,0,1000,250.0,0,E01GE,17,train
768.975019454956,3,2,1,4,5,0,M,1,3,0,0,1000,250.0,3,E01GE,18,train
673.0239391326904,3,2,1,4,5,0,M,1,2,1,0,1000,250.0,2,E01GE,19,train
528.9480686187744,3,2,1,4,5,0,M,1,2,1,0,1000,250.0,2,E01GE,20,train
640.8989429473877,3,2,1,4,5,0,M,1,5,4,0,1000,250.0,5,E01GE,21,train
449.02992248535156,3,2,1,4,5,0,M,1,4,3,0,1000,250.0,4,E01GE,22,train
481.0178279876709,3,2,1,4,5,0,M,1,3,0,0,1000,250.0,3,E01GE,23,train
497.0128536224365,3,2,1,4,5,0,M,1,5,4,0,1000,250.0,5,E01GE,24,train
449.0649700164795,3,2,1,4,5,0,M,1,4,3,0,1000,250.0,4,E01GE,25,train
641.0090923309326,3,2,1,4,5,0,M,1,2,1,0,1000,250.0,2,E01GE,26,train
529.0429592132568,3,2,1,4,5,0,M,1,0,5,0,1000,250.0,0,E01GE,27,train
609.0478897094727,3,2,1,4,5,0,M,1,1,2,0,1000,250.0,1,E01GE,28,train
528.9289951324463,3,2,1,4,5,0,M,1,5,4,0,1000,250.0,5,E01GE,29,train
497.3559379577637,3,2,1,4,5,0,M,1,5,4,0,1000,250.0,5,E01GE,30,train
608.9608669281006,3,2,1,4,5,0,M,1,0,5,0,1000,250.0,0,E01GE,31,train
560.9450340270996,3,2,1,4,5,0,M,1,5,4,0,1000,250.0,5,E01GE,32,train
592.9808616638184,3,2,1,4,5,0,M,1,3,0,0,1000,250.0,3,E01GE,33,train
496.9820976257324,3,2,1,4,5,0,M,1,5,4,0,1000,250.0,5,E01GE,34,train
656.9850444793701,3,2,1,4,5,0,M,1,2,1,0,1000,250.0,2,E01GE,35,train
529.0281772613525,3,2,1,4,5,0,M,1,3,0,0,1000,250.0,3,E01GE,36,train
640.9521102905273,3,2,1,4,5,0,M,1,2,1,0,1000,250.0,2,E01GE,37,train
465.02089500427246,3,2,1,4,5,0,M,1,5,4,0,1000,250.0,5,E01GE,38,train
576.9670009613037,3,2,1,4,5,0,M,1,0,5,0,1000,250.0,0,E01GE,39,train
497.07508087158203,3,2,1,4,5,0,M,0,4,3,0,1000,250.0,5,E01GE,40,train
513.0500793457031,3,2,1,4,5,0,M,1,4,3,0,1000,250.0,4,E01GE,41,train
512.8960609436035,3,2,1,4,5,0,M,1,4,3,0,1000,250.0,4,E01GE,42,train
833.0731391906738,3,2,1,4,5,0,M,1,2,1,0,1000,250.0,2,E01GE,43,train
481.03880882263184,3,2,1,4,5,0,M,1,3,0,0,1000,250.0,3,E01GE,44,train
560.920000076294,3,2,1,4,5,0,M,1,2,1,0,1000,250.0,2,E01GE,45,train
512.9680633544922,3,2,1,4,5,0,M,1,2,1,0,1000,250.0,2,E01GE,46,train
400.9280204772949,3,2,1,4,5,0,M,1,2,1,0,1000,250.0,2,E01GE,47,train
512.9120349884033,3,2,1,4,5,0,M,1,3,0,0,1000,250.0,3,E01GE,48,train
592.7717685699463,3,2,1,4,5,0,M,1,2,1,0,1000,250.0,2,E01GE,49,train
401.0040760040283,3,2,1,4,5,0,M,1,2,1,0,1000,250.0,2,E01GE,50,train
561.046838760376,3,2,1,4,5,0,M,1,0,5,0,1000,250.0,0,E01GE,51,train
577.0461559295654,3,2,1,4,5,0,M,1,5,4,0,1000,250.0,5,E01GE,52,train
497.0519542694092,3,2,1,4,5,0,M,0,3,0,0,1000,250.0,2,E01GE,53,train
609.158992767334,3,2,1,4,5,0,M,1,3,0,0,1000,250.0,3,E01GE,54,train
561.042070388794,3,2,1,4,5,0,M,1,1,2,0,1000,250.0,1,E01GE,55,train
561.0499382019043,3,2,1,4,5,0,M,1,2,1,0,1000,250.0,2,E01GE,56,train
480.938196182251,3,2,1,4,5,0,M,1,0,5,0,1000,250.0,0,E01GE,57,train
544.9230670928955,3,2,1,4,5,0,M,1,5,4,0,1000,250.0,5,E01GE,58,train
577.0552158355713,3,2,1,4,5,0,M,1,2,1,0,1000,250.0,2,E01GE,59,train
481.0948371887207,3,2,1,4,5,0,M,1,0,5,0,1000,250.0,0,E01GE,60,train
593.0330753326416,3,2,1,4,5,0,M,1,3,0,0,1000,250.0,3,E01GE,61,train
513.1020545959473,3,2,1,4,5,0,M,1,4,3,0,1000,250.0,4,E01GE,62,train
401.04198455810547,3,2,1,4,5,0,M,1,4,3,0,1000,250.0,4,E01GE,63,train
625.0629425048828,3,2,1,4,5,0,M,1,2,1,0,1000,250.0,2,E01GE,64,train
480.9720516204834,3,2,1,4,5,0,M,1,0,5,0,1000,250.0,0,E01GE,65,train
513.0279064178467,3,2,1,4,5,0,M,1,2,1,0,1000,250.0,2,E01GE,66,train
577.0151615142822,3,2,1,4,5,0,M,1,5,4,0,1000,250.0,5,E01GE,67,train
529.033899307251,3,2,1,4,5,0,M,1,0,5,0,1000,250.0,0,E01GE,68,train
625.0,3,2,1,4,5,0,M,1,4,3,0,1000,250.0,4,E01GE,69,train
512.9270553588867,3,2,1,4,5,0,M,1,5,4,0,1000,250.0,5,E01GE,70,train
544.9850559234619,3,2,1,4,5,0,M,1,1,2,0,1000,250.0,1,E01GE,71,train
417.0401096343994,3,2,1,4,5,0,M,1,1,2,0,1000,250.0,1,E01GE,72,train
401.047945022583,3,2,1,4,5,0,M,1,1,2,0,1000,250.0,1,E01GE,73,train
561.0270500183105,3,2,1,4,5,0,M,1,4,3,0,1000,250.0,4,E01GE,74,train
560.9519481658936,3,2,1,4,5,0,M,1,3,0,0,1000,250.0,3,E01GE,75,train
560.9989166259766,3,2,1,4,5,0,M,1,2,1,0,1000,250.0,2,E01GE,76,train
753.0241012573242,3,2,1,4,5,0,M,1,4,3,0,1000,250.0,4,E01GE,77,train
545.0479984283447,3,2,1,4,5,0,M,1,1,2,0,1000,250.0,1,E01GE,78,train
672.8990077972412,3,2,1,4,5,0,M,1,2,1,0,1000,250.0,2,E01GE,79,train
480.9567928314209,3,2,1,4,5,0,M,1,4,3,0,1000,250.0,4,E01GE,80,train
576.9548416137695,3,2,1,4,5,0,M,1,5,4,0,1000,250.0,5,E01GE,81,train
496.9799518585205,3,2,1,4,5,0,M,1,5,4,0,1000,250.0,5,E01GE,82,train
609.0118885040283,3,2,1,4,5,0,M,1,2,1,0,1000,250.0,2,E01GE,83,train
385.0381374359131,3,2,1,4,5,0,M,1,2,1,0,1000,250.0,2,E01GE,84,train
529.0288925170898,3,2,1,4,5,0,M,1,4,3,0,1000,250.0,4,E01GE,85,train
481.05692863464355,3,2,1,4,5,0,M,1,5,4,0,1000,250.0,5,E01GE,86,train
545.0389385223389,3,2,1,4,5,0,M,1,0,5,0,1000,250.0,0,E01GE,87,train
465.0599956512451,3,2,1,4,5,0,M,1,5,4,0,1000,250.0,5,E01GE,88,train
529.0610790252686,3,2,1,4,5,0,M,1,4,3,0,1000,250.0,4,E01GE,89,train
592.9908752441406,3,2,1,4,5,0,M,1,2,1,0,1000,250.0,2,E01GE,90,train
497.006893157959,3,2,1,4,5,0,M,1,5,4,0,1000,250.0,5,E01GE,91,train
593.0209159851074,3,2,1,4,5,0,M,1,2,1,0,1000,250.0,2,E01GE,92,train
465.0540351867676,3,2,1,4,5,0,M,1,4,3,0,1000,250.0,4,E01GE,93,train
385.00404357910156,3,2,1,4,5,0,M,1,5,4,0,1000,250.0,5,E01GE,94,train
657.0110321044922,3,2,1,4,5,0,M,1,1,2,0,1000,250.0,1,E01GE,95,train
481.0500144958496,3,2,1,4,5,0,M,1,1,2,0,1000,250.0,1,E01GE,96,train
673.0670928955078,3,2,1,4,5,0,M,1,3,0,0,1000,250.0,3,E01GE,97,train
481.0669422149658,3,2,1,4,5,0,M,1,5,4,0,1000,250.0,5,E01GE,98,train
577.0139694213867,3,2,1,4,5,0,M,1,1,2,0,1000,250.0,1,E01GE,99,train
545.0520515441895,3,2,1,4,5,0,M,1,4,3,0,1000,250.0,4,E01GE,100,train
513.0460262298584,3,2,1,4,5,0,M,1,3,0,0,1000,250.0,3,E01GE,101,train
448.9920139312744,3,2,1,4,5,0,M,1,4,3,0,1000,250.0,4,E01GE,102,train
529.0729999542236,3,2,1,4,5,0,M,0,3,0,0,1000,250.0,2,E01GE,103,train
465.05284309387207,3,2,1,4,5,0,M,1,4,3,0,1000,250.0,4,E01GE,104,train
497.0359802246094,3,2,1,4,5,0,M,1,4,3,0,1000,250.0,4,E01GE,105,train
753.0391216278076,3,2,1,4,5,0,M,1,2,1,0,1000,250.0,2,E01GE,106,train
529.0548801422119,3,2,1,4,5,0,M,1,4,3,0,1000,250.0,4,E01GE,107,train
641.0281658172607,3,2,1,4,5,0,M,1,1,2,0,1000,250.0,1,E01GE,108,train
529.0350914001465,3,2,1,4,5,0,M,1,5,4,0,1000,250.0,5,E01GE,109,train
528.9919376373291,3,2,1,4,5,0,M,1,1,2,0,1000,250.0,1,E01GE,110,train
529.088020324707,3,2,1,4,5,0,M,1,3,0,0,1000,250.0,3,E01GE,111,train
497.0569610595703,3,2,1,4,5,0,M,1,3,0,0,1000,250.0,3,E01GE,112,train
449.04589653015137,3,2,1,4,5,0,M,1,3,0,0,1000,250.0,3,E01GE,113,train
721.052885055542,3,2,1,4,5,0,M,1,2,1,0,1000,250.0,2,E01GE,114,train
513.0431652069092,3,2,1,4,5,0,M,1,5,4,0,1000,250.0,5,E01GE,115,train
641.0689353942871,3,2,1,4,5,0,M,1,1,2,0,1000,250.0,1,E01GE,116,train
513.0341053009033,3,2,1,4,5,0,M,1,4,3,0,1000,250.0,4,E01GE,117,train
497.0729351043701,3,2,1,4,5,0,M,1,5,4,0,1000,250.0,5,E01GE,118,train
625.1301765441895,3,2,1,4,5,0,M,1,1,2,0,1000,250.0,1,E01GE,119,train
481.08720779418945,3,2,1,4,5,0,M,1,5,4,0,1000,250.0,5,E01GE,120,train
480.9379577636719,3,2,1,4,5,0,M,1,5,4,0,1000,250.0,5,E01GE,121,train
625.0569820404053,3,2,1,4,5,0,M,1,1,2,0,1000,250.0,1,E01GE,122,train
513.0801200866699,3,2,1,4,5,0,M,1,5,4,0,1000,250.0,5,E01GE,123,train
544.9330806732178,3,2,1,4,5,0,M,1,4,3,0,1000,250.0,4,E01GE,124,train
641.0539150238037,3,2,1,4,5,0,M,1,2,1,0,1000,250.0,2,E01GE,125,train
529.0639400482178,3,2,1,4,5,0,M,1,5,4,0,1000,250.0,5,E01GE,126,train
593.0449962615967,3,2,1,4,5,0,M,1,1,2,0,1000,250.0,1,E01GE,127,train
529.0567874908447,3,2,1,4,5,0,M,1,0,5,0,1000,250.0,0,E01GE,128,train
401.06797218322754,3,2,1,4,5,0,M,1,2,1,0,1000,250.0,2,E01GE,129,train
545.0441837310791,3,2,1,4,5,0,M,1,2,1,0,1000,250.0,2,E01GE,130,train
529.0119647979736,3,2,1,4,5,0,M,1,0,5,0,1000,250.0,0,E01GE,131,train
513.1230354309082,3,2,1,4,5,0,M,1,0,5,0,1000,250.0,0,E01GE,132,train
545.1250076293945,3,2,1,4,5,0,M,1,4,3,0,1000,250.0,4,E01GE,133,train
465.0270938873291,3,2,1,4,5,0,M,1,5,4,0,1000,250.0,5,E01GE,134,train
673.0718612670898,3,2,1,4,5,0,M,1,2,1,0,1000,250.0,2,E01GE,135,train
481.0168743133545,3,2,1,4,5,0,M,1,4,3,0,1000,250.0,4,E01GE,136,train
465.06690979003906,3,2,1,4,5,0,M,1,4,3,0,1000,250.0,4,E01GE,137,train
577.0130157470703,3,2,1,4,5,0,M,1,2,1,0,1000,250.0,2,E01GE,138,train
497.03288078308105,3,2,1,4,5,0,M,1,4,3,0,1000,250.0,4,E01GE,139,train
625.1010894775391,3,2,1,4,5,0,M,1,0,5,0,1000,250.0,0,E01GE,140,train
481.01186752319336,3,2,1,4,5,0,M,1,1,2,0,1000,250.0,1,E01GE,141,train
545.037031173706,3,2,1,4,5,0,M,1,4,3,0,1000,250.0,4,E01GE,142,train
576.9970417022705,3,2,1,4,5,0,M,1,2,1,0,1000,250.0,2,E01GE,143,train
577.1040916442871,3,2,1,4,5,0,M,1,4,3,0,1000,250.0,4,E01GE,144,train
560.9750747680664,3,2,1,4,5,0,M,1,0,5,0,1000,250.0,0,E01GE,145,train
641.0989761352539,3,2,1,4,5,0,M,1,3,0,0,1000,250.0,3,E01GE,146,train
592.9501056671143,3,2,1,4,5,0,M,1,1,2,0,1000,250.0,1,E01GE,147,train
625.0259876251221,3,2,1,4,5,0,M,0,2,1,0,1000,250.0,3,E01GE,148,train
528.9859771728516,3,2,1,4,5,0,M,1,0,5,0,1000,250.0,0,E01GE,149,train
513.0529403686523,3,2,1,4,5,0,M,1,1,2,0,1000,250.0,1,E01GE,150,train
481.1060428619385,3,2,1,4,5,0,M,1,0,5,0,1000,250.0,0,E01GE,151,train
673.0949878692627,3,2,1,4,5,0,M,1,3,0,0,1000,250.0,3,E01GE,152,train
433.04896354675293,3,2,1,4,5,0,M,1,4,3,0,1000,250.0,4,E01GE,153,train
529.01291847229,3,2,1,4,5,0,M,1,1,2,0,1000,250.0,1,E01GE,154,train
497.0879554748535,3,2,1,4,5,0,M,1,1,2,0,1000,250.0,1,E01GE,155,train
625.0491142272949,3,2,1,4,5,0,M,0,3,0,0,1000,250.0,2,E01GE,156,train
1441.0431385040283,3,2,1,4,5,0,M,1,5,4,0,1000,250.0,5,E01GE,157,train
545.0210571289062,3,2,1,4,5,0,M,1,1,2,0,1000,250.0,1,E01GE,158,train
401.02505683898926,3,2,1,4,5,0,M,1,3,0,0,1000,250.0,3,E01GE,159,train
513.0488872528076,3,2,1,4,5,0,M,1,5,4,0,1000,250.0,5,E01GE,160,train
497.0521926879883,3,2,1,4,5,0,M,1,3,0,0,1000,250.0,3,E01GE,161,train
416.9960021972656,3,2,1,4,5,0,M,1,3,0,0,1000,250.0,3,E01GE,162,train
545.0699329376221,3,2,1,4,5,0,M,1,1,2,0,1000,250.0,1,E01GE,163,train
561.0787868499756,3,2,1,4,5,0,M,1,5,4,0,1000,250.0,5,E01GE,164,train
705.0521373748779,3,2,1,4,5,0,M,1,4,3,0,1000,250.0,4,E01GE,165,train
465.02208709716797,3,2,1,4,5,0,M,1,4,3,0,1000,250.0,4,E01GE,166,train
865.0829792022705,3,2,1,4,5,0,M,1,1,2,0,1000,250.0,1,E01GE,167,train
737.0660305023193,3,2,1,4,5,0,M,1,3,0,0,1000,250.0,3,E01GE,168,train
624.9959468841553,3,2,1,4,5,0,M,1,1,2,0,1000,250.0,1,E01GE,169,train
513.0550861358643,3,2,1,4,5,0,M,1,4,3,0,1000,250.0,4,E01GE,170,train
561.0651969909668,3,2,1,4,5,0,M,1,0,5,0,1000,250.0,0,E01GE,171,train
481.02307319641113,3,2,1,4,5,0,M,1,5,4,0,1000,250.0,5,E01GE,172,train
769.0658569335938,3,2,1,4,5,0,M,1,2,1,0,1000,250.0,2,E01GE,173,train
529.0310382843018,3,2,1,4,5,0,M,1,0,5,0,1000,250.0,0,E01GE,174,train
801.0210990905762,3,2,1,4,5,0,M,1,2,1,0,1000,250.0,2,E01GE,175,train
513.0810737609863,3,2,1,4,5,0,M,1,0,5,0,1000,250.0,0,E01GE,176,train
689.0349388122559,3,2,1,4,5,0,M,1,2,1,0,1000,250.0,2,E01GE,177,train
545.0639724731445,3,2,1,4,5,0,M,1,1,2,0,1000,250.0,1,E01GE,178,train
561.0361099243164,3,2,1,4,5,0,M,1,1,2,0,1000,250.0,1,E01GE,179,train
449.0470886230469,3,2,1,4,5,0,M,1,1,2,0,1000,250.0,1,E01GE,180,train
497.0130920410156,3,2,1,4,5,0,M,1,1,2,0,1000,250.0,1,E01GE,181,train
817.0809745788574,3,2,1,4,5,0,M,0,3,0,0,1000,250.0,2,E01GE,182,train
721.04811668396,3,2,1,4,5,0,M,1,4,3,0,1000,250.0,4,E01GE,183,train
689.054012298584,3,2,1,4,5,0,M,1,2,1,0,1000,250.0,2,E01GE,184,train
625.0050067901611,3,2,1,4,5,0,M,1,5,4,0,1000,250.0,5,E01GE,185,train
561.0458850860596,3,2,1,4,5,0,M,1,4,3,0,1000,250.0,4,E01GE,186,train
417.02890396118164,3,2,1,4,5,0,M,1,4,3,0,1000,250.0,4,E01GE,187,train
417.0401096343994,3,2,1,4,5,0,M,1,3,0,0,1000,250.0,3,E01GE,188,train
529.0601253509521,3,2,1,4,5,0,M,1,1,2,0,1000,250.0,1,E01GE,189,train
481.0311794281006,3,2,1,4,5,0,M,1,0,5,0,1000,250.0,0,E01GE,190,train
513.1020545959473,3,2,1,4,5,0,M,1,5,4,0,1000,250.0,5,E01GE,191,train
464.9791717529297,3,2,1,4,5,0,M,1,0,5,0,1000,250.0,0,E01GE,192,train
688.9219284057617,3,2,1,4,5,0,M,1,3,0,0,1000,250.0,3,E01GE,193,train
593.0581092834473,3,2,1,4,5,0,M,1,2,1,0,1000,250.0,2,E01GE,194,train
465.0111198425293,3,2,1,4,5,0,M,1,4,3,0,1000,250.0,4,E01GE,195,train
561.0461235046387,3,2,1,4,5,0,M,1,0,5,0,1000,250.0,0,E01GE,196,train
544.9669361114502,3,2,1,4,5,0,M,1,3,0,0,1000,250.0,3,E01GE,197,train
433.0718517303467,3,2,1,4,5,0,M,1,3,0,0,1000,250.0,3,E01GE,198,train
497.04694747924805,3,2,1,4,5,0,M,1,5,4,0,1000,250.0,5,E01GE,199,train
561.0768795013428,3,2,1,4,5,0,M,1,1,2,0,1000,250.0,1,E01GE,200,train
529.0899276733398,3,2,1,4,5,0,M,1,0,5,0,1000,250.0,0,E01GE,201,train
673.0749607086182,3,2,1,4,5,0,M,1,2,1,0,1000,250.0,2,E01GE,202,train
544.9948310852051,3,2,1,4,5,0,M,1,3,0,0,1000,250.0,3,E01GE,203,train
481.07099533081055,3,2,1,4,5,0,M,1,0,5,0,1000,250.0,0,E01GE,204,train
833.0399990081787,3,2,1,4,5,0,M,1,4,3,0,1000,250.0,4,E01GE,205,train
417.0539379119873,3,2,1,4,5,0,M,1,4,3,0,1000,250.0,4,E01GE,206,train
769.0808773040771,3,2,1,4,5,0,M,1,2,1,0,1000,250.0,2,E01GE,207,train
401.0510444641113,3,2,1,4,5,0,M,1,2,1,0,1000,250.0,2,E01GE,208,train
512.6988887786865,3,2,1,4,5,0,M,1,0,5,0,1000,250.0,0,E01GE,209,train
448.95195960998535,3,2,1,4,5,0,M,1,1,2,0,1000,250.0,1,E01GE,210,train
544.9860095977783,3,2,1,4,5,0,M,1,5,4,0,1000,250.0,5,E01GE,211,train
433.0248832702637,3,2,1,4,5,0,M,1,4,3,0,1000,250.0,4,E01GE,212,train
400.8510112762451,3,2,1,4,5,0,M,0,3,0,0,1000,250.0,2,E01GE,213,train
448.98009300231934,3,2,1,4,5,0,M,1,3,0,0,1000,250.0,3,E01GE,214,train
432.8939914703369,3,2,1,4,5,0,M,1,3,0,0,1000,250.0,3,E01GE,215,train
448.962926864624,3,2,1,4,5,0,M,1,3,0,0,1000,250.0,3,E01GE,216,train
464.98703956604004,3,2,1,4,5,0,M,1,4,3,0,1000,250.0,4,E01GE,217,train
448.98319244384766,3,2,1,4,5,0,M,1,3,0,0,1000,250.0,3,E01GE,218,train
417.04797744750977,3,2,1,4,5,0,M,1,4,3,0,1000,250.0,4,E01GE,219,train
433.0580234527588,3,2,1,4,5,0,M,1,5,4,0,1000,250.0,5,E01GE,220,train
433.08305740356445,3,2,1,4,5,0,M,1,5,4,0,1000,250.0,5,E01GE,221,train
592.9470062255859,3,2,1,4,5,0,M,1,4,3,0,1000,250.0,4,E01GE,222,train
689.0640258789062,3,2,1,4,5,0,M,1,0,5,0,1000,250.0,0,E01GE,223,train
512.855052947998,3,2,1,4,5,0,M,1,2,1,0,1000,250.0,2,E01GE,224,train
543.1509017944336,3,2,1,4,5,0,M,1,2,1,0,1000,250.0,2,E01GE,225,train
496.9210624694824,3,2,1,4,5,0,M,1,5,4,0,1000,250.0,5,E01GE,226,train
400.96402168273926,3,2,1,4,5,0,M,1,4,3,0,1000,250.0,4,E01GE,227,train
400.9420871734619,3,2,1,4,5,0,M,1,4,3,0,1000,250.0,4,E01GE,228,train
785.0580215454102,3,2,1,4,5,0,M,1,1,2,0,1000,250.0,1,E01GE,229,train
513.0398273468018,3,2,1,4,5,0,M,1,0,5,0,1000,250.0,0,E01GE,230,train
481.0922145843506,3,2,1,4,5,0,M,1,5,4,0,1000,250.0,5,E01GE,231,train
401.00693702697754,3,2,1,4,5,0,M,1,4,3,0,1000,250.0,4,E01GE,232,train
929.0690422058105,3,2,1,4,5,0,M,1,3,0,0,1000,250.0,3,E01GE,233,train
465.00492095947266,3,2,1,4,5,0,M,1,3,0,0,1000,250.0,3,E01GE,234,train
401.03697776794434,3,2,1,4,5,0,M,1,3,0,0,1000,250.0,3,E01GE,235,train
545.0441837310791,3,2,1,4,5,0,M,1,0,5,0,1000,250.0,0,E01GE,236,train
513.099193572998,3,2,1,4,5,0,M,1,0,5,0,1000,250.0,0,E01GE,237,train
401.09992027282715,3,2,1,4,5,0,M,1,0,5,0,1000,250.0,0,E01GE,238,train
657.1378707885742,3,2,1,4,5,0,M,1,3,0,0,1000,250.0,3,E01GE,239,train
417.00100898742676,3,2,1,4,5,0,M,1,4,3,0,1000,250.0,4,E01GE,240,train
497.03311920166016,3,2,1,4,5,0,M,1,0,5,0,1000,250.0,0,E01GE,241,train
496.9921112060547,3,2,1,4,5,0,M,1,1,2,0,1000,250.0,1,E01GE,242,train
464.9162292480469,3,2,1,4,5,0,M,0,4,3,0,1000,250.0,2,E01GE,243,train
465.00492095947266,3,2,1,4,5,0,M,1,4,3,0,1000,250.0,4,E01GE,244,train
688.5921955108643,3,2,1,4,5,0,M,1,1,2,0,1000,250.0,1,E01GE,245,train
577.0430564880371,3,2,1,4,5,0,M,1,5,4,0,1000,250.0,5,E01GE,246,train
689.0649795532227,3,2,1,4,5,0,M,1,2,1,0,1000,250.0,2,E01GE,247,train
497.07508087158203,3,2,1,4,5,0,M,1,1,2,0,1000,250.0,1,E01GE,248,train
577.0461559295654,3,2,1,4,5,0,M,1,2,1,0,1000,250.0,2,E01GE,249,train
2880.81693649292,3,2,1,4,5,0,M,1,2,1,0,1000,250.0,2,E01GE,250,test
1120.9568977355957,3,2,1,4,5,0,M,1,4,3,0,1000,250.0,4,E01GE,251,test
2000.9419918060303,3,2,1,4,5,0,M,1,5,4,0,1000,250.0,5,E01GE,252,test
1728.8990020751953,3,2,1,4,5,0,M,1,0,5,0,1000,250.0,0,E01GE,253,test
848.9489555358887,3,2,1,4,5,0,M,1,0,5,0,1000,250.0,0,E01GE,254,test
1184.926986694336,3,2,1,4,5,0,M,1,2,1,0,1000,250.0,2,E01GE,255,test
1184.8790645599365,3,2,1,4,5,0,M,1,3,0,0,1000,250.0,3,E01GE,256,test
736.9751930236816,3,2,1,4,5,0,M,1,3,0,0,1000,250.0,3,E01GE,257,test
1216.9499397277832,3,2,1,4,5,0,M,1,0,5,0,1000,250.0,0,E01GE,258,test
720.919132232666,3,2,1,4,5,0,M,1,2,1,0,1000,250.0,2,E01GE,259,test
864.9389743804932,3,2,1,4,5,0,M,1,5,4,0,1000,250.0,5,E01GE,260,test
656.9550037384033,3,2,1,4,5,0,M,1,0,5,0,1000,250.0,0,E01GE,261,test
1312.8697872161865,3,2,1,4,5,0,M,1,1,2,0,1000,250.0,1,E01GE,262,test
705.0540447235107,3,2,1,4,5,0,M,1,2,1,0,1000,250.0,2,E01GE,263,test
720.7801342010498,3,2,1,4,5,0,M,1,0,5,0,1000,250.0,0,E01GE,264,test
577.0671367645264,3,2,1,4,5,0,M,1,5,4,0,1000,250.0,5,E01GE,265,test
688.9159679412842,3,2,1,4,5,0,M,1,0,5,0,1000,250.0,0,E01GE,266,test
689.000129699707,3,2,1,4,5,0,M,1,5,4,0,1000,250.0,5,E01GE,267,test
624.9489784240723,3,2,1,4,5,0,M,1,4,3,0,1000,250.0,4,E01GE,268,test
673.0129718780518,3,2,1,4,5,0,M,1,3,0,0,1000,250.0,3,E01GE,269,test
657.0079326629639,3,2,1,4,5,0,M,1,2,1,0,1000,250.0,2,E01GE,270,test
496.9789981842041,3,2,1,4,5,0,M,1,2,1,0,1000,250.0,2,E01GE,271,test
977.0088195800781,3,2,1,4,5,0,M,1,3,0,0,1000,250.0,3,E01GE,272,test
480.95703125,3,2,1,4,5,0,M,1,3,0,0,1000,250.0,3,E01GE,273,test
1680.9029579162598,3,2,1,4,5,0,M,1,1,2,0,1000,250.0,1,E01GE,274,test
592.9491519927979,3,2,1,4,5,0,M,1,5,4,0,1000,250.0,5,E01GE,275,test
608.96897315979,3,2,1,4,5,0,M,1,3,0,0,1000,250.0,3,E01GE,276,test
496.8869686126709,3,2,1,4,5,0,M,1,1,2,0,1000,250.0,1,E01GE,277,test
752.9897689819336,3,2,1,4,5,0,M,1,5,4,0,1000,250.0,5,E01GE,278,test
753.0229091644287,3,2,1,4,5,0,M,1,1,2,0,1000,250.0,1,E01GE,279,test
688.9550685882568,3,2,1,4,5,0,M,1,0,5,0,1000,250.0,0,E01GE,280,test
976.9787788391113,3,2,1,4,5,0,M,1,4,3,0,1000,250.0,4,E01GE,281,test
720.8750247955322,3,2,1,4,5,0,M,1,0,5,0,1000,250.0,0,E01GE,282,test
928.9300441741943,3,2,1,4,5,0,M,1,4,3,0,1000,250.0,4,E01GE,283,test
896.9919681549072,3,2,1,4,5,0,M,1,0,5,0,1000,250.0,0,E01GE,284,test
432.9569339752197,3,2,1,4,5,0,M,1,1,2,0,1000,250.0,1,E01GE,285,test
640.988826751709,3,2,1,4,5,0,M,1,0,5,0,1000,250.0,0,E01GE,286,test
721.0240364074707,3,2,1,4,5,0,M,1,3,0,0,1000,250.0,3,E01GE,287,test
432.93094635009766,3,2,1,4,5,0,M,1,2,1,0,1000,250.0,2,E01GE,288,test
865.0569915771484,3,2,1,4,5,0,M,1,1,2,0,1000,250.0,1,E01GE,289,test
656.782865524292,3,2,1,4,5,0,M,1,3,0,0,1000,250.0,3,E01GE,290,test
608.9870929718018,3,2,1,4,5,0,M,1,0,5,0,1000,250.0,0,E01GE,291,test
720.9420204162598,3,2,1,4,5,0,M,1,4,3,0,1000,250.0,4,E01GE,292,test
624.9699592590332,3,2,1,4,5,0,M,1,1,2,0,1000,250.0,1,E01GE,293,test
528.9890766143799,3,2,1,4,5,0,M,1,5,4,0,1000,250.0,5,E01GE,294,test
1408.9210033416748,3,2,1,4,5,0,M,1,3,0,0,1000,250.0,3,E01GE,295,test
801.0039329528809,3,2,1,4,5,0,M,1,4,3,0,1000,250.0,4,E01GE,296,test
656.8729877471924,3,2,1,4,5,0,M,1,3,0,0,1000,250.0,3,E01GE,297,test
1121.0379600524902,3,2,1,4,5,0,M,1,2,1,0,1000,250.0,2,E01GE,298,test
608.9510917663574,3,2,1,4,5,0,M,1,3,0,0,1000,250.0,3,E01GE,299,test
624.920129776001,3,2,1,4,5,0,M,1,0,5,0,1000,250.0,0,E01GE,300,test
609.0219020843506,3,2,1,4,5,0,M,1,0,5,0,1000,250.0,0,E01GE,301,test
576.9550800323486,3,2,1,4,5,0,M,1,5,4,0,1000,250.0,5,E01GE,302,test
1344.933032989502,3,2,1,4,5,0,M,1,1,2,0,1000,250.0,1,E01GE,303,test
544.9450016021729,3,2,1,4,5,0,M,1,0,5,0,1000,250.0,0,E01GE,304,test
656.9881439208984,3,2,1,4,5,0,M,1,4,3,0,1000,250.0,4,E01GE,305,test
768.4609889984131,3,2,1,4,5,0,M,1,3,0,0,1000,250.0,3,E01GE,306,test
736.9780540466309,3,2,1,4,5,0,M,1,2,1,0,1000,250.0,2,E01GE,307,test
689.0068054199219,3,2,1,4,5,0,M,1,0,5,0,1000,250.0,0,E01GE,308,test
512.984037399292,3,2,1,4,5,0,M,1,0,5,0,1000,250.0,0,E01GE,309,test
688.9238357543945,3,2,1,4,5,0,M,1,3,0,0,1000,250.0,3,E01GE,310,test
544.9891090393066,3,2,1,4,5,0,M,1,3,0,0,1000,250.0,3,E01GE,311,test
688.9798641204834,3,2,1,4,5,0,M,1,4,3,0,1000,250.0,4,E01GE,312,test
592.864990234375,3,2,1,4,5,0,M,1,0,5,0,1000,250.0,0,E01GE,313,test
704.8981189727783,3,2,1,4,5,0,M,1,2,1,0,1000,250.0,2,E01GE,314,test
656.9337844848633,3,2,1,4,5,0,M,1,3,0,0,1000,250.0,3,E01GE,315,test
640.9649848937988,3,2,1,4,5,0,M,1,4,3,0,1000,250.0,4,E01GE,316,test
625.0040531158447,3,2,1,4,5,0,M,0,1,2,0,1000,250.0,2,E01GE,317,test
801.0461330413818,3,2,1,4,5,0,M,1,0,5,0,1000,250.0,0,E01GE,318,test
608.9701652526855,3,2,1,4,5,0,M,1,0,5,0,1000,250.0,0,E01GE,319,test
656.9819450378418,3,2,1,4,5,0,M,1,5,4,0,1000,250.0,5,E01GE,320,test
416.9590473175049,3,2,1,4,5,0,M,1,5,4,0,1000,250.0,5,E01GE,321,test
832.9191207885742,3,2,1,4,5,0,M,1,2,1,0,1000,250.0,2,E01GE,322,test
496.9358444213867,3,2,1,4,5,0,M,1,2,1,0,1000,250.0,2,E01GE,323,test
512.9721164703369,3,2,1,4,5,0,M,1,3,0,0,1000,250.0,3,E01GE,324,test
576.7719745635986,3,2,1,4,5,0,M,1,5,4,0,1000,250.0,5,E01GE,325,test
672.9369163513184,3,2,1,4,5,0,M,1,4,3,0,1000,250.0,4,E01GE,326,test
720.9432125091553,3,2,1,4,5,0,M,1,2,1,0,1000,250.0,2,E01GE,327,test
576.927900314331,3,2,1,4,5,0,M,1,0,5,0,1000,250.0,0,E01GE,328,test
688.9810562133789,3,2,1,4,5,0,M,1,2,1,0,1000,250.0,2,E01GE,329,test
432.9209327697754,3,2,1,4,5,0,M,1,2,1,0,1000,250.0,2,E01GE,330,test
576.8311023712158,3,2,1,4,5,0,M,1,4,3,0,1000,250.0,4,E01GE,331,test
577.0120620727539,3,2,1,4,5,0,M,0,1,2,0,1000,250.0,2,E01GE,332,test
640.7990455627441,3,2,1,4,5,0,M,1,2,1,0,1000,250.0,2,E01GE,333,test
928.8930892944336,3,2,1,4,5,0,M,1,4,3,0,1000,250.0,4,E01GE,334,test
576.970100402832,3,2,1,4,5,0,M,1,4,3,0,1000,250.0,4,E01GE,335,test
752.9380321502686,3,2,1,4,5,0,M,1,0,5,0,1000,250.0,0,E01GE,336,test
592.893123626709,3,2,1,4,5,0,M,1,5,4,0,1000,250.0,5,E01GE,337,test
688.9748573303223,3,2,1,4,5,0,M,1,4,3,0,1000,250.0,4,E01GE,338,test
432.85393714904785,3,2,1,4,5,0,M,1,4,3,0,1000,250.0,4,E01GE,339,test
816.7359828948975,3,2,1,4,5,0,M,1,2,1,0,1000,250.0,2,E01GE,340,test
608.4690093994141,3,2,1,4,5,0,M,1,4,3,0,1000,250.0,4,E01GE,341,test
544.4469451904297,3,2,1,4,5,0,M,1,2,1,0,1000,250.0,2,E01GE,342,test
736.5190982818604,3,2,1,4,5,0,M,1,1,2,0,1000,250.0,1,E01GE,343,test
656.4791202545166,3,2,1,4,5,0,M,1,3,0,0,1000,250.0,3,E01GE,344,test
544.4879531860352,3,2,1,4,5,0,M,1,5,4,0,1000,250.0,5,E01GE,345,test
698.2429027557373,3,2,1,4,5,0,M,1,1,2,0,1000,250.0,1,E01GE,346,test
560.4588985443115,3,2,1,4,5,0,M,1,5,4,0,1000,250.0,5,E01GE,347,test
624.4709491729736,3,2,1,4,5,0,M,1,2,1,0,1000,250.0,2,E01GE,348,test
512.9959583282471,3,2,1,4,5,0,M,1,5,4,0,1000,250.0,5,E01GE,349,test
768.4521675109863,3,2,1,4,5,0,M,1,2,1,0,1000,250.0,2,E01GE,350,test
688.424825668335,3,2,1,4,5,0,M,1,0,5,0,1000,250.0,0,E01GE,351,test
688.4799003601074,3,2,1,4,5,0,M,1,4,3,0,1000,250.0,4,E01GE,352,test
688.4899139404297,3,2,1,4,5,0,M,1,3,0,0,1000,250.0,3,E01GE,353,test
544.0599918365479,3,2,1,4,5,0,M,1,5,4,0,1000,250.0,5,E01GE,354,test
672.4908351898193,3,2,1,4,5,0,M,1,3,0,0,1000,250.0,3,E01GE,355,test
608.5209846496582,3,2,1,4,5,0,M,1,2,1,0,1000,250.0,2,E01GE,356,test
544.4037914276123,3,2,1,4,5,0,M,1,5,4,0,1000,250.0,5,E01GE,357,test
704.4639587402344,3,2,1,4,5,0,M,1,1,2,0,1000,250.0,1,E01GE,358,test
576.524019241333,3,2,1,4,5,0,M,1,5,4,0,1000,250.0,5,E01GE,359,test
512.4549865722656,3,2,1,4,5,0,M,1,5,4,0,1000,250.0,5,E01GE,360,test
560.4641437530518,3,2,1,4,5,0,M,1,5,4,0,1000,250.0,5,E01GE,361,test
1295.9740161895752,3,2,1,4,5,0,M,1,3,0,0,1000,250.0,3,E01GE,362,test
512.4340057373047,3,2,1,4,5,0,M,1,5,4,0,1000,250.0,5,E01GE,363,test
976.5441417694092,3,2,1,4,5,0,M,1,3,0,0,1000,250.0,3,E01GE,364,test
560.4031085968018,3,2,1,4,5,0,M,1,3,0,0,1000,250.0,3,E01GE,365,test
800.5471229553223,3,2,1,4,5,0,M,1,1,2,0,1000,250.0,1,E01GE,366,test
672.7638244628906,3,2,1,4,5,0,M,1,2,1,0,1000,250.0,2,E01GE,367,test
528.4788608551025,3,2,1,4,5,0,M,1,2,1,0,1000,250.0,2,E01GE,368,test
624.5419979095459,3,2,1,4,5,0,M,1,1,2,0,1000,250.0,1,E01GE,369,test
560.5340003967285,3,2,1,4,5,0,M,1,2,1,0,1000,250.0,2,E01GE,370,test
592.4279689788818,3,2,1,4,5,0,M,0,0,5,0,1000,250.0,1,E01GE,371,test
720.5801010131836,3,2,1,4,5,0,M,1,4,3,0,1000,250.0,4,E01GE,372,test
656.4550399780273,3,2,1,4,5,0,M,1,3,0,0,1000,250.0,3,E01GE,373,test
576.4880180358887,3,2,1,4,5,0,M,1,3,0,0,1000,250.0,3,E01GE,374,test
640.4869556427002,3,2,1,4,5,0,M,1,1,2,0,1000,250.0,1,E01GE,375,test
528.4581184387207,3,2,1,4,5,0,M,1,1,2,0,1000,250.0,1,E01GE,376,test
560.4519844055176,3,2,1,4,5,0,M,1,5,4,0,1000,250.0,5,E01GE,377,test
688.4799003601074,3,2,1,4,5,0,M,1,0,5,0,1000,250.0,0,E01GE,378,test
624.4950294494629,3,2,1,4,5,0,M,1,1,2,0,1000,250.0,1,E01GE,379,test
576.5080451965332,3,2,1,4,5,0,M,1,3,0,0,1000,250.0,3,E01GE,380,test
592.4258232116699,3,2,1,4,5,0,M,0,2,1,0,1000,250.0,1,E01GE,381,test
592.4711227416992,3,2,1,4,5,0,M,1,3,0,0,1000,250.0,3,E01GE,382,test
1104.4659614562988,3,2,1,4,5,0,M,1,2,1,0,1000,250.0,2,E01GE,383,test
704.4410705566406,3,2,1,4,5,0,M,1,1,2,0,1000,250.0,1,E01GE,384,test
560.4310035705566,3,2,1,4,5,0,M,1,0,5,0,1000,250.0,0,E01GE,385,test
656.4581394195557,3,2,1,4,5,0,M,1,1,2,0,1000,250.0,1,E01GE,386,test
688.513994216919,3,2,1,4,5,0,M,1,4,3,0,1000,250.0,4,E01GE,387,test
1216.4549827575684,3,2,1,4,5,0,M,1,2,1,0,1000,250.0,2,E01GE,388,test
560.5459213256836,3,2,1,4,5,0,M,1,5,4,0,1000,250.0,5,E01GE,389,test
864.5370006561279,3,2,1,4,5,0,M,1,2,1,0,1000,250.0,2,E01GE,390,test
624.9351501464844,3,2,1,4,5,0,M,1,0,5,0,1000,250.0,0,E01GE,391,test
656.8820476531982,3,2,1,4,5,0,M,1,1,2,0,1000,250.0,1,E01GE,392,test
736.922025680542,3,2,1,4,5,0,M,1,4,3,0,1000,250.0,4,E01GE,393,test
801.0261058807373,3,2,1,4,5,0,M,1,1,2,0,1000,250.0,1,E01GE,394,test
704.909086227417,3,2,1,4,5,0,M,1,0,5,0,1000,250.0,0,E01GE,395,test
545.0539588928223,3,2,1,4,5,0,M,1,0,5,0,1000,250.0,0,E01GE,396,test
640.9070491790771,3,2,1,4,5,0,M,1,5,4,0,1000,250.0,5,E01GE,397,test
576.8969058990479,3,2,1,4,5,0,M,1,3,0,0,1000,250.0,3,E01GE,398,test
560.9240531921387,3,2,1,4,5,0,M,1,5,4,0,1000,250.0,5,E01GE,399,test
592.940092086792,3,2,1,4,5,0,M,1,3,0,0,1000,250.0,3,E01GE,400,test
576.9529342651367,3,2,1,4,5,0,M,1,4,3,0,1000,250.0,4,E01GE,401,test
737.0011806488037,3,2,1,4,5,0,M,1,1,2,0,1000,250.0,1,E01GE,402,test
608.922004699707,3,2,1,4,5,0,M,1,2,1,0,1000,250.0,2,E01GE,403,test
528.9628505706787,3,2,1,4,5,0,M,1,5,4,0,1000,250.0,5,E01GE,404,test
592.9520130157471,3,2,1,4,5,0,M,0,0,5,0,1000,250.0,4,E01GE,405,test
785.0029468536377,3,2,1,4,5,0,M,1,0,5,0,1000,250.0,0,E01GE,406,test
544.9240207672119,3,2,1,4,5,0,M,1,0,5,0,1000,250.0,0,E01GE,407,test
784.9910259246826,3,2,1,4,5,0,M,1,2,1,0,1000,250.0,2,E01GE,408,test
544.975996017456,3,2,1,4,5,0,M,1,2,1,0,1000,250.0,2,E01GE,409,test
560.9159469604492,3,2,1,4,5,0,M,1,5,4,0,1000,250.0,5,E01GE,410,test
832.9479694366455,3,2,1,4,5,0,M,1,4,3,0,1000,250.0,4,E01GE,411,test
816.9510364532471,3,2,1,4,5,0,M,1,1,2,0,1000,250.0,1,E01GE,412,test
656.9201946258545,3,2,1,4,5,0,M,1,4,3,0,1000,250.0,4,E01GE,413,test
704.941987991333,3,2,1,4,5,0,M,1,0,5,0,1000,250.0,0,E01GE,414,test
592.9861068725586,3,2,1,4,5,0,M,1,5,4,0,1000,250.0,5,E01GE,415,test
752.9611587524414,3,2,1,4,5,0,M,1,1,2,0,1000,250.0,1,E01GE,416,test
608.9861392974854,3,2,1,4,5,0,M,1,1,2,0,1000,250.0,1,E01GE,417,test
736.9968891143799,3,2,1,4,5,0,M,1,4,3,0,1000,250.0,4,E01GE,418,test
912.9400253295898,3,2,1,4,5,0,M,0,3,0,0,1000,250.0,4,E01GE,419,test
1089.0741348266602,3,2,1,4,5,0,M,1,1,2,0,1000,250.0,1,E01GE,420,test
544.9230670928955,3,2,1,4,5,0,M,1,3,0,0,1000,250.0,3,E01GE,421,test
608.9699268341064,3,2,1,4,5,0,M,1,4,3,0,1000,250.0,4,E01GE,422,test
576.9379138946533,3,2,1,4,5,0,M,1,3,0,0,1000,250.0,3,E01GE,423,test
945.0109004974365,3,2,1,4,5,0,M,1,1,2,0,1000,250.0,1,E01GE,424,test
976.909875869751,3,2,1,4,5,0,M,1,2,1,0,1000,250.0,2,E01GE,425,test
736.987829208374,3,2,1,4,5,0,M,1,1,2,0,1000,250.0,1,E01GE,426,test
624.9749660491943,3,2,1,4,5,0,M,1,3,0,0,1000,250.0,3,E01GE,427,test
592.8981304168701,3,2,1,4,5,0,M,1,2,1,0,1000,250.0,2,E01GE,428,test
608.922004699707,3,2,1,4,5,0,M,1,1,2,0,1000,250.0,1,E01GE,429,test
561.0091686248779,3,2,1,4,5,0,M,1,5,4,0,1000,250.0,5,E01GE,430,test
608.9129447937012,3,2,1,4,5,0,M,1,0,5,0,1000,250.0,0,E01GE,431,test
576.9410133361816,3,2,1,4,5,0,M,1,1,2,0,1000,250.0,1,E01GE,432,test
576.8048763275146,3,2,1,4,5,0,M,1,3,0,0,1000,250.0,3,E01GE,433,test
592.9570198059082,3,2,1,4,5,0,M,1,0,5,0,1000,250.0,0,E01GE,434,test
609.0140342712402,3,2,1,4,5,0,M,1,3,0,0,1000,250.0,3,E01GE,435,test
672.9669570922852,3,2,1,4,5,0,M,1,1,2,0,1000,250.0,1,E01GE,436,test
496.9601631164551,3,2,1,4,5,0,M,1,1,2,0,1000,250.0,1,E01GE,437,test
672.9578971862793,3,2,1,4,5,0,M,1,2,1,0,1000,250.0,2,E01GE,438,test
672.8920936584473,3,2,1,4,5,0,M,1,0,5,0,1000,250.0,0,E01GE,439,test
833.0109119415283,3,2,1,4,5,0,M,1,3,0,0,1000,250.0,3,E01GE,440,test
544.9750423431396,3,2,1,4,5,0,M,1,5,4,0,1000,250.0,5,E01GE,441,test
608.9169979095459,3,2,1,4,5,0,M,1,0,5,0,1000,250.0,0,E01GE,442,test
576.9960880279541,3,2,1,4,5,0,M,1,0,5,0,1000,250.0,0,E01GE,443,test
752.9149055480957,3,2,1,4,5,0,M,1,3,0,0,1000,250.0,3,E01GE,444,test
528.8569927215576,3,2,1,4,5,0,M,1,4,3,0,1000,250.0,4,E01GE,445,test
592.9141044616699,3,2,1,4,5,0,M,1,4,3,0,1000,250.0,4,E01GE,446,test
656.9998264312744,3,2,1,4,5,0,M,1,3,0,0,1000,250.0,3,E01GE,447,test
928.9720058441162,3,2,1,4,5,0,M,1,1,2,0,1000,250.0,1,E01GE,448,test
672.9898452758789,3,2,1,4,5,0,M,1,0,5,0,1000,250.0,0,E01GE,449,test
545.0201034545898,3,2,1,4,5,0,M,1,0,5,0,1000,250.0,0,E01GE,450,test
768.9321041107178,3,2,1,4,5,0,M,0,4,3,0,1000,250.0,3,E01GE,451,test
769.028902053833,3,2,1,4,5,0,M,1,2,1,0,1000,250.0,2,E01GE,452,test
448.88997077941895,3,2,1,4,5,0,M,1,2,1,0,1000,250.0,2,E01GE,453,test
576.9298076629639,3,2,1,4,5,0,M,1,5,4,0,1000,250.0,5,E01GE,454,test
704.8749923706055,3,2,1,4,5,0,M,1,0,5,0,1000,250.0,0,E01GE,455,test
544.9631214141846,3,2,1,4,5,0,M,1,5,4,0,1000,250.0,5,E01GE,456,test
560.8961582183838,3,2,1,4,5,0,M,1,2,1,0,1000,250.0,2,E01GE,457,test
656.9690704345703,3,2,1,4,5,0,M,1,3,0,0,1000,250.0,3,E01GE,458,test
560.9910488128662,3,2,1,4,5,0,M,1,5,4,0,1000,250.0,5,E01GE,459,test
672.9750633239746,3,2,1,4,5,0,M,1,4,3,0,1000,250.0,4,E01GE,460,test
1105.0488948822021,3,2,1,4,5,0,M,1,2,1,0,1000,250.0,2,E01GE,461,test
832.9391479492188,3,2,1,4,5,0,M,1,1,2,0,1000,250.0,1,E01GE,462,test
592.9920673370361,3,2,1,4,5,0,M,1,3,0,0,1000,250.0,3,E01GE,463,test
1520.9698677062988,3,2,1,4,5,0,M,1,1,2,0,1000,250.0,1,E01GE,464,test
912.9838943481445,3,2,1,4,5,0,M,1,2,1,0,1000,250.0,2,E01GE,465,test
448.8849639892578,3,2,1,4,5,0,M,1,2,1,0,1000,250.0,2,E01GE,466,test
753.0150413513184,3,2,1,4,5,0,M,1,4,3,0,1000,250.0,4,E01GE,467,test
480.6780815124512,3,2,1,4,5,0,M,1,4,3,0,1000,250.0,4,E01GE,468,test
784.9869728088379,3,2,1,4,5,0,M,1,3,0,0,1000,250.0,3,E01GE,469,test
608.914852142334,3,2,1,4,5,0,M,0,2,1,0,1000,250.0,1,E01GE,470,test
720.9529876708984,3,2,1,4,5,0,M,1,1,2,0,1000,250.0,1,E01GE,471,test
688.9560222625732,3,2,1,4,5,0,M,1,4,3,0,1000,250.0,4,E01GE,472,test
736.9909286499023,3,2,1,4,5,0,M,1,0,5,0,1000,250.0,0,E01GE,473,test
704.9448490142822,3,2,1,4,5,0,M,1,1,2,0,1000,250.0,1,E01GE,474,test
769.0050601959229,3,2,1,4,5,0,M,1,4,3,0,1000,250.0,4,E01GE,475,test
608.8509559631348,3,2,1,4,5,0,M,1,5,4,0,1000,250.0,5,E01GE,476,test
833.0268859863281,3,2,1,4,5,0,M,1,3,0,0,1000,250.0,3,E01GE,477,test
576.9121646881104,3,2,1,4,5,0,M,1,5,4,0,1000,250.0,5,E01GE,478,test
625.0200271606445,3,2,1,4,5,0,M,1,5,4,0,1000,250.0,5,E01GE,479,test
1552.947998046875,3,2,1,4,5,0,M,1,2,1,0,1000,250.0,2,E01GE,480,test
480.9391498565674,3,2,1,4,5,0,M,1,2,1,0,1000,250.0,2,E01GE,481,test
624.920129776001,3,2,1,4,5,0,M,1,5,4,0,1000,250.0,5,E01GE,482,test
720.9639549255371,3,2,1,4,5,0,M,1,3,0,0,1000,250.0,3,E01GE,483,test
560.9571933746338,3,2,1,4,5,0,M,1,2,1,0,1000,250.0,2,E01GE,484,test
576.9867897033691,3,2,1,4,5,0,M,1,4,3,0,1000,250.0,4,E01GE,485,test
720.9780216217041,3,2,1,4,5,0,M,1,1,2,0,1000,250.0,1,E01GE,486,test
656.9221019744873,3,2,1,4,5,0,M,1,4,3,0,1000,250.0,4,E01GE,487,test
593.1379795074463,3,2,1,4,5,0,M,1,3,0,0,1000,250.0,3,E01GE,488,test
544.9621677398682,3,2,1,4,5,0,M,1,5,4,0,1000,250.0,5,E01GE,489,test
912.9641056060791,3,2,1,4,5,0,M,1,0,5,0,1000,250.0,0,E01GE,490,test
624.8087882995605,3,2,1,4,5,0,M,1,1,2,0,1000,250.0,1,E01GE,491,test
624.9821186065674,3,2,1,4,5,0,M,1,0,5,0,1000,250.0,0,E01GE,492,test
464.9660587310791,3,2,1,4,5,0,M,1,0,5,0,1000,250.0,0,E01GE,493,test
672.947883605957,3,2,1,4,5,0,M,1,4,3,0,1000,250.0,4,E01GE,494,test
672.9528903961182,3,2,1,4,5,0,M,1,1,2,0,1000,250.0,1,E01GE,495,test
448.99511337280273,3,2,1,4,5,0,M,1,1,2,0,1000,250.0,1,E01GE,496,test
608.9680194854736,3,2,1,4,5,0,M,1,2,1,0,1000,250.0,2,E01GE,497,test
576.9808292388916,3,2,1,4,5,0,M,1,5,4,0,1000,250.0,5,E01GE,498,test
1248.8830089569092,3,2,1,4,5,0,M,1,3,0,0,1000,250.0,3,E01GE,499,test
