RT,SRmap_0,SRmap_1,SRmap_2,SRmap_3,SRmap_4,SRmap_5,condition,correct,correct_response,curstim,ms-precue,ms-prestimblank,ntrials,response,subject,trial,type
4922.950983047485,4,3,0,1,2,5,E+,0,2,4,400,600,250.0,1,C18RR,0,train
2123.220920562744,4,3,0,1,2,5,E+,1,4,0,400,600,250.0,4,C18RR,1,train
2411.271095275879,4,3,0,1,2,5,E+,1,4,0,400,600,250.0,4,C18RR,2,train
1387.6140117645264,4,3,0,1,2,5,E+,1,4,0,400,600,250.0,4,C18RR,3,train
2043.255090713501,4,3,0,1,2,5,E+,1,2,4,400,600,250.0,2,C18RR,4,train
1162.9979610443115,4,3,0,1,2,5,E+,1,1,3,400,600,250.0,1,C18RR,5,train
875.1912117004395,4,3,0,1,2,5,E+,1,1,3,400,600,250.0,1,C18RR,6,train
1067.3549175262451,4,3,0,1,2,5,E+,0,2,4,400,600,250.0,1,C18RR,7,train
1243.2689666748047,4,3,0,1,2,5,E+,1,0,2,400,600,250.0,0,C18RR,8,train
1258.4228515625,4,3,0,1,2,5,E+,1,5,5,400,600,250.0,5,C18RR,9,train
891.2720680236816,4,3,0,1,2,5,E+,1,1,3,400,600,250.0,1,C18RR,10,train
1099.311113357544,4,3,0,1,2,5,E+,1,0,2,400,600,250.0,0,C18RR,11,train
1499.2761611938477,4,3,0,1,2,5,E+,1,3,1,400,600,250.0,3,C18RR,12,train
859.2350482940674,4,3,0,1,2,5,E+,1,4,0,400,600,250.0,4,C18RR,13,train
1227.2391319274902,4,3,0,1,2,5,E+,1,5,5,400,600,250.0,5,C18RR,14,train
731.3599586486816,4,3,0,1,2,5,E+,1,3,1,400,600,250.0,3,C18RR,15,train
699.1279125213623,4,3,0,1,2,5,E+,1,3,1,400,600,250.0,3,C18RR,16,train
395.2012062072754,4,3,0,1,2,5,E+,1,3,1,400,600,250.0,3,C18RR,17,train
987.3518943786621,4,3,0,1,2,5,E+,1,4,0,400,600,250.0,4,C18RR,18,train
699.0940570831299,4,3,0,1,2,5,E+,1,1,3,400,600,250.0,1,C18RR,19,train
811.2349510192871,4,3,0,1,2,5,E+,0,2,4,400,600,250.0,3,C18RR,20,train
1067.1560764312744,4,3,0,1,2,5,E+,1,4,0,400,600,250.0,4,C18RR,21,train
619.096040725708,4,3,0,1,2,5,E+,1,1,3,400,600,250.0,1,C18RR,22,train
507.26795196533203,4,3,0,1,2,5,E+,1,0,2,400,600,250.0,0,C18RR,23,train
1019.1030502319336,4,3,0,1,2,5,E+,1,5,5,400,600,250.0,5,C18RR,24,train
874.3560314178467,4,3,0,1,2,5,E+,1,0,2,400,600,250.0,0,C18RR,25,train
569.9131488800049,4,3,0,1,2,5,E+,1,1,3,400,600,250.0,1,C18RR,26,train
858.1628799438477,4,3,0,1,2,5,E+,1,4,0,400,600,250.0,4,C18RR,27,train
522.334098815918,4,3,0,1,2,5,E+,1,4,0,400,600,250.0,4,C18RR,28,train
651.2000560760498,4,3,0,1,2,5,E+,1,4,0,400,600,250.0,4,C18RR,29,train
377.67791748046875,4,3,0,1,2,5,E+,1,0,2,400,600,250.0,0,C18RR,30,train
427.5848865509033,4,3,0,1,2,5,E+,1,4,0,400,600,250.0,4,C18RR,31,train
651.2370109558105,4,3,0,1,2,5,E+,0,2,4,400,600,250.0,0,C18RR,32,train
826.7388343811035,4,3,0,1,2,5,E+,1,3,1,400,600,250.0,3,C18RR,33,train
667.1769618988037,4,3,0,1,2,5,E+,1,4,0,400,600,250.0,4,C18RR,34,train
555.0479888916016,4,3,0,1,2,5,E+,0,3,1,400,600,250.0,2,C18RR,35,train
858.508825302124,4,3,0,1,2,5,E+,1,0,2,400,600,250.0,0,C18RR,36,train
602.931022644043,4,3,0,1,2,5,E+,1,1,3,400,600,250.0,1,C18RR,37,train
939.1939640045166,4,3,0,1,2,5,E+,1,4,0,400,600,250.0,4,C18RR,38,train
619.1489696502686,4,3,0,1,2,5,E+,1,3,1,400,600,250.0,3,C18RR,39,train
586.7409706115723,4,3,0,1,2,5,E+,0,3,1,400,600,250.0,4,C18RR,40,train
587.13698387146,4,3,0,1,2,5,E+,1,0,2,400,600,250.0,0,C18RR,41,train
1035.2981090545654,4,3,0,1,2,5,E+,1,2,4,400,600,250.0,2,C18RR,42,train
507.2300434112549,4,3,0,1,2,5,E+,1,3,1,400,600,250.0,3,C18RR,43,train
555.1390647888184,4,3,0,1,2,5,E+,1,5,5,400,600,250.0,5,C18RR,44,train
539.2289161682129,4,3,0,1,2,5,E+,1,3,1,400,600,250.0,3,C18RR,45,train
603.0728816986084,4,3,0,1,2,5,E+,1,3,1,400,600,250.0,3,C18RR,46,train
363.27099800109863,4,3,0,1,2,5,E+,1,4,0,400,600,250.0,4,C18RR,47,train
507.16710090637207,4,3,0,1,2,5,E+,0,1,3,400,600,250.0,5,C18RR,48,train
381.4070224761963,4,3,0,1,2,5,E+,1,1,3,400,600,250.0,1,C18RR,49,train
618.8437938690186,4,3,0,1,2,5,E+,1,1,3,400,600,250.0,1,C18RR,50,train
571.2761878967285,4,3,0,1,2,5,E+,1,5,5,400,600,250.0,5,C18RR,51,train
683.0329895019531,4,3,0,1,2,5,E+,0,0,2,400,600,250.0,3,C18RR,52,train
731.1220169067383,4,3,0,1,2,5,E+,1,5,5,400,600,250.0,5,C18RR,53,train
603.0571460723877,4,3,0,1,2,5,E+,1,3,1,400,600,250.0,3,C18RR,54,train
667.0019626617432,4,3,0,1,2,5,E+,1,5,5,400,600,250.0,5,C18RR,55,train
651.1709690093994,4,3,0,1,2,5,E+,1,4,0,400,600,250.0,4,C18RR,56,train
1339.0710353851318,4,3,0,1,2,5,E+,1,2,4,400,600,250.0,2,C18RR,57,train
651.1209011077881,4,3,0,1,2,5,E+,1,5,5,400,600,250.0,5,C18RR,58,train
1115.2851581573486,4,3,0,1,2,5,E+,1,2,4,400,600,250.0,2,C18RR,59,train
698.8420486450195,4,3,0,1,2,5,E+,1,4,0,400,600,250.0,4,C18RR,60,train
1115.1938438415527,4,3,0,1,2,5,E+,1,1,3,400,600,250.0,1,C18RR,61,train
1112.804889678955,4,3,0,1,2,5,E+,1,1,3,400,600,250.0,1,C18RR,62,train
619.1568374633789,4,3,0,1,2,5,E+,1,5,5,400,600,250.0,5,C18RR,63,train
459.2909812927246,4,3,0,1,2,5,E+,1,4,0,400,600,250.0,4,C18RR,64,train
1114.8948669433594,4,3,0,1,2,5,E+,1,1,3,400,600,250.0,1,C18RR,65,train
555.0839900970459,4,3,0,1,2,5,E+,1,3,1,400,600,250.0,3,C18RR,66,train
539.2801761627197,4,3,0,1,2,5,E+,1,0,2,400,600,250.0,0,C18RR,67,train
522.5529670715332,4,3,0,1,2,5,E+,1,4,0,400,600,250.0,4,C18RR,68,train
552.7749061584473,4,3,0,1,2,5,E+,1,3,1,400,600,250.0,3,C18RR,69,train
603.0540466308594,4,3,0,1,2,5,E+,1,0,2,400,600,250.0,0,C18RR,70,train
442.95501708984375,4,3,0,1,2,5,E+,1,5,5,400,600,250.0,5,C18RR,71,train
523.2439041137695,4,3,0,1,2,5,E+,1,4,0,400,600,250.0,4,C18RR,72,train
587.1660709381104,4,3,0,1,2,5,E+,1,4,0,400,600,250.0,4,C18RR,73,train
923.0520725250244,4,3,0,1,2,5,E+,1,1,3,400,600,250.0,1,C18RR,74,train
459.1238498687744,4,3,0,1,2,5,E+,1,4,0,400,600,250.0,4,C18RR,75,train
571.0070133209229,4,3,0,1,2,5,E+,1,0,2,400,600,250.0,0,C18RR,76,train
923.2668876647949,4,3,0,1,2,5,E+,1,1,3,400,600,250.0,1,C18RR,77,train
539.0911102294922,4,3,0,1,2,5,E+,1,5,5,400,600,250.0,5,C18RR,78,train
587.3329639434814,4,3,0,1,2,5,E+,1,3,1,400,600,250.0,3,C18RR,79,train
491.2559986114502,4,3,0,1,2,5,E+,1,0,2,400,600,250.0,0,C18RR,80,train
649.7690677642822,4,3,0,1,2,5,E+,1,3,1,400,600,250.0,3,C18RR,81,train
795.0348854064941,4,3,0,1,2,5,E+,1,5,5,400,600,250.0,5,C18RR,82,train
395.2751159667969,4,3,0,1,2,5,E+,1,5,5,400,600,250.0,5,C18RR,83,train
1083.3020210266113,4,3,0,1,2,5,E+,1,1,3,400,600,250.0,1,C18RR,84,train
507.2319507598877,4,3,0,1,2,5,E+,1,0,2,400,600,250.0,0,C18RR,85,train
907.2439670562744,4,3,0,1,2,5,E+,1,1,3,400,600,250.0,1,C18RR,86,train
586.4369869232178,4,3,0,1,2,5,E+,1,3,1,400,600,250.0,3,C18RR,87,train
570.2319145202637,4,3,0,1,2,5,E+,1,5,5,400,600,250.0,5,C18RR,88,train
778.8839340209961,4,3,0,1,2,5,E+,1,1,3,400,600,250.0,1,C18RR,89,train
618.2630062103271,4,3,0,1,2,5,E+,1,3,1,400,600,250.0,3,C18RR,90,train
459.2750072479248,4,3,0,1,2,5,E+,1,5,5,400,600,250.0,5,C18RR,91,train
395.25699615478516,4,3,0,1,2,5,E+,1,5,5,400,600,250.0,5,C18RR,92,train
458.91594886779785,4,3,0,1,2,5,E+,1,0,2,400,600,250.0,0,C18RR,93,train
475.3389358520508,4,3,0,1,2,5,E+,1,5,5,400,600,250.0,5,C18RR,94,train
539.3340587615967,4,3,0,1,2,5,E+,0,2,4,400,600,250.0,3,C18RR,95,train
603.2609939575195,4,3,0,1,2,5,E+,1,0,2,400,600,250.0,0,C18RR,96,train
378.9560794830322,4,3,0,1,2,5,E+,1,2,4,400,600,250.0,2,C18RR,97,train
507.2000026702881,4,3,0,1,2,5,E+,1,0,2,400,600,250.0,0,C18RR,98,train
491.1201000213623,4,3,0,1,2,5,E+,1,5,5,400,600,250.0,5,C18RR,99,train
554.624080657959,4,3,0,1,2,5,E+,1,4,0,400,600,250.0,4,C18RR,100,train
635.2331638336182,4,3,0,1,2,5,E+,1,4,0,400,600,250.0,4,C18RR,101,train
683.1929683685303,4,3,0,1,2,5,E+,1,1,3,400,600,250.0,1,C18RR,102,train
475.3110408782959,4,3,0,1,2,5,E+,1,0,2,400,600,250.0,0,C18RR,103,train
506.9899559020996,4,3,0,1,2,5,E+,1,2,4,400,600,250.0,2,C18RR,104,train
491.2378787994385,4,3,0,1,2,5,E+,1,1,3,400,600,250.0,1,C18RR,105,train
507.2147846221924,4,3,0,1,2,5,E+,1,5,5,400,600,250.0,5,C18RR,106,train
507.1730613708496,4,3,0,1,2,5,E+,1,2,4,400,600,250.0,2,C18RR,107,train
411.1649990081787,4,3,0,1,2,5,E+,1,0,2,400,600,250.0,0,C18RR,108,train
459.2709541320801,4,3,0,1,2,5,E+,1,5,5,400,600,250.0,5,C18RR,109,train
539.402961730957,4,3,0,1,2,5,E+,1,3,1,400,600,250.0,3,C18RR,110,train
379.2269229888916,4,3,0,1,2,5,E+,1,5,5,400,600,250.0,5,C18RR,111,train
522.9079723358154,4,3,0,1,2,5,E+,1,2,4,400,600,250.0,2,C18RR,112,train
459.14316177368164,4,3,0,1,2,5,E+,1,0,2,400,600,250.0,0,C18RR,113,train
619.1670894622803,4,3,0,1,2,5,E+,1,1,3,400,600,250.0,1,C18RR,114,train
411.2839698791504,4,3,0,1,2,5,E+,1,0,2,400,600,250.0,0,C18RR,115,train
618.8609600067139,4,3,0,1,2,5,E+,1,1,3,400,600,250.0,1,C18RR,116,train
571.2687969207764,4,3,0,1,2,5,E+,1,5,5,400,600,250.0,5,C18RR,117,train
827.2819519042969,4,3,0,1,2,5,E+,0,2,4,400,600,250.0,3,C18RR,118,train
699.1920471191406,4,3,0,1,2,5,E+,1,4,0,400,600,250.0,4,C18RR,119,train
523.3249664306641,4,3,0,1,2,5,E+,1,5,5,400,600,250.0,5,C18RR,120,train
443.1431293487549,4,3,0,1,2,5,E+,1,4,0,400,600,250.0,4,C18RR,121,train
571.1710453033447,4,3,0,1,2,5,E+,1,3,1,400,600,250.0,3,C18RR,122,train
491.32585525512695,4,3,0,1,2,5,E+,1,0,2,400,600,250.0,0,C18RR,123,train
536.8120670318604,4,3,0,1,2,5,E+,0,2,4,400,600,250.0,4,C18RR,124,train
475.19612312316895,4,3,0,1,2,5,E+,1,4,0,400,600,250.0,4,C18RR,125,train
523.1420993804932,4,3,0,1,2,5,E+,1,0,2,400,600,250.0,0,C18RR,126,train
571.2640285491943,4,3,0,1,2,5,E+,1,3,1,400,600,250.0,3,C18RR,127,train
491.32490158081055,4,3,0,1,2,5,E+,1,4,0,400,600,250.0,4,C18RR,128,train
475.29006004333496,4,3,0,1,2,5,E+,1,4,0,400,600,250.0,4,C18RR,129,train
555.3321838378906,4,3,0,1,2,5,E+,1,0,2,400,600,250.0,0,C18RR,130,train
522.9318141937256,4,3,0,1,2,5,E+,1,3,1,400,600,250.0,3,C18RR,131,train
555.0320148468018,4,3,0,1,2,5,E+,1,4,0,400,600,250.0,4,C18RR,132,train
939.3770694732666,4,3,0,1,2,5,E+,1,1,3,400,600,250.0,1,C18RR,133,train
619.2400455474854,4,3,0,1,2,5,E+,0,5,5,400,600,250.0,1,C18RR,134,train
635.0910663604736,4,3,0,1,2,5,E+,1,4,0,400,600,250.0,4,C18RR,135,train
475.18014907836914,4,3,0,1,2,5,E+,1,5,5,400,600,250.0,5,C18RR,136,train
538.8870239257812,4,3,0,1,2,5,E+,1,0,2,400,600,250.0,0,C18RR,137,train
762.6721858978271,4,3,0,1,2,5,E+,1,1,3,400,600,250.0,1,C18RR,138,train
603.2538414001465,4,3,0,1,2,5,E+,1,3,1,400,600,250.0,3,C18RR,139,train
554.7580718994141,4,3,0,1,2,5,E+,1,0,2,400,600,250.0,0,C18RR,140,train
585.9432220458984,4,3,0,1,2,5,E+,0,2,4,400,600,250.0,1,C18RR,141,train
507.0960521697998,4,3,0,1,2,5,E+,1,4,0,400,600,250.0,4,C18RR,142,train
811.19704246521,4,3,0,1,2,5,E+,1,1,3,400,600,250.0,1,C18RR,143,train
475.30388832092285,4,3,0,1,2,5,E+,1,4,0,400,600,250.0,4,C18RR,144,train
522.6809978485107,4,3,0,1,2,5,E+,0,2,4,400,600,250.0,1,C18RR,145,train
571.281909942627,4,3,0,1,2,5,E+,1,4,0,400,600,250.0,4,C18RR,146,train
523.0870246887207,4,3,0,1,2,5,E+,1,0,2,400,600,250.0,0,C18RR,147,train
539.2551422119141,4,3,0,1,2,5,E+,1,4,0,400,600,250.0,4,C18RR,148,train
1003.2141208648682,4,3,0,1,2,5,E+,0,3,1,400,600,250.0,0,C18RR,149,train
458.96410942077637,4,3,0,1,2,5,E+,1,3,1,400,600,250.0,3,C18RR,150,train
698.8439559936523,4,3,0,1,2,5,E+,1,2,4,400,600,250.0,2,C18RR,151,train
475.2800464630127,4,3,0,1,2,5,E+,1,2,4,400,600,250.0,2,C18RR,152,train
554.858922958374,4,3,0,1,2,5,E+,1,4,0,400,600,250.0,4,C18RR,153,train
395.1001167297363,4,3,0,1,2,5,E+,1,4,0,400,600,250.0,4,C18RR,154,train
619.2491054534912,4,3,0,1,2,5,E+,1,2,4,400,600,250.0,2,C18RR,155,train
539.254903793335,4,3,0,1,2,5,E+,0,3,1,400,600,250.0,2,C18RR,156,train
491.18804931640625,4,3,0,1,2,5,E+,1,4,0,400,600,250.0,4,C18RR,157,train
507.2319507598877,4,3,0,1,2,5,E+,1,2,4,400,600,250.0,2,C18RR,158,train
651.1180400848389,4,3,0,1,2,5,E+,1,1,3,400,600,250.0,1,C18RR,159,train
1019.1338062286377,4,3,0,1,2,5,E+,1,1,3,400,600,250.0,1,C18RR,160,train
458.8611125946045,4,3,0,1,2,5,E+,1,4,0,400,600,250.0,4,C18RR,161,train
490.3438091278076,4,3,0,1,2,5,E+,1,1,3,400,600,250.0,1,C18RR,162,train
619.1658973693848,4,3,0,1,2,5,E+,1,4,0,400,600,250.0,4,C18RR,163,train
747.1258640289307,4,3,0,1,2,5,E+,1,2,4,400,600,250.0,2,C18RR,164,train
539.4718647003174,4,3,0,1,2,5,E+,1,2,4,400,600,250.0,2,C18RR,165,train
459.38706398010254,4,3,0,1,2,5,E+,1,2,4,400,600,250.0,2,C18RR,166,train
874.9909400939941,4,3,0,1,2,5,E+,1,5,5,400,600,250.0,5,C18RR,167,train
491.3511276245117,4,3,0,1,2,5,E+,0,3,1,400,600,250.0,2,C18RR,168,train
523.2110023498535,4,3,0,1,2,5,E+,1,3,1,400,600,250.0,3,C18RR,169,train
539.2210483551025,4,3,0,1,2,5,E+,1,4,0,400,600,250.0,4,C18RR,170,train
347.31507301330566,4,3,0,1,2,5,E+,1,5,5,400,600,250.0,5,C18RR,171,train
715.1529788970947,4,3,0,1,2,5,E+,1,4,0,400,600,250.0,4,C18RR,172,train
507.2169303894043,4,3,0,1,2,5,E+,0,2,4,400,600,250.0,3,C18RR,173,train
506.69097900390625,4,3,0,1,2,5,E+,1,4,0,400,600,250.0,4,C18RR,174,train
379.0290355682373,4,3,0,1,2,5,E+,1,2,4,400,600,250.0,2,C18RR,175,train
747.3318576812744,4,3,0,1,2,5,E+,1,1,3,400,600,250.0,1,C18RR,176,train
411.344051361084,4,3,0,1,2,5,E+,1,5,5,400,600,250.0,5,C18RR,177,train
635.2429389953613,4,3,0,1,2,5,E+,1,3,1,400,600,250.0,3,C18RR,178,train
971.3029861450195,4,3,0,1,2,5,E+,1,1,3,400,600,250.0,1,C18RR,179,train
539.078950881958,4,3,0,1,2,5,E+,1,3,1,400,600,250.0,3,C18RR,180,train
458.3089351654053,4,3,0,1,2,5,E+,1,5,5,400,600,250.0,5,C18RR,181,train
555.1180839538574,4,3,0,1,2,5,E+,0,1,3,400,600,250.0,0,C18RR,182,train
603.0240058898926,4,3,0,1,2,5,E+,1,3,1,400,600,250.0,3,C18RR,183,train
555.0010204315186,4,3,0,1,2,5,E+,1,0,2,400,600,250.0,0,C18RR,184,train
555.2768707275391,4,3,0,1,2,5,E+,1,3,1,400,600,250.0,3,C18RR,185,train
491.1999702453613,4,3,0,1,2,5,E+,1,0,2,400,600,250.0,0,C18RR,186,train
523.1201648712158,4,3,0,1,2,5,E+,1,0,2,400,600,250.0,0,C18RR,187,train
587.3169898986816,4,3,0,1,2,5,E+,1,2,4,400,600,250.0,2,C18RR,188,train
747.143030166626,4,3,0,1,2,5,E+,1,5,5,400,600,250.0,5,C18RR,189,train
475.186824798584,4,3,0,1,2,5,E+,0,3,1,400,600,250.0,0,C18RR,190,train
491.3308620452881,4,3,0,1,2,5,E+,1,5,5,400,600,250.0,5,C18RR,191,train
586.9240760803223,4,3,0,1,2,5,E+,1,1,3,400,600,250.0,1,C18RR,192,train
795.2570915222168,4,3,0,1,2,5,E+,1,1,3,400,600,250.0,1,C18RR,193,train
475.04305839538574,4,3,0,1,2,5,E+,1,0,2,400,600,250.0,0,C18RR,194,train
491.2550449371338,4,3,0,1,2,5,E+,1,5,5,400,600,250.0,5,C18RR,195,train
619.2419528961182,4,3,0,1,2,5,E+,1,4,0,400,600,250.0,4,C18RR,196,train
1482.9599857330322,4,3,0,1,2,5,E+,1,0,2,400,600,250.0,0,C18RR,197,train
683.143138885498,4,3,0,1,2,5,E+,1,1,3,400,600,250.0,1,C18RR,198,train
939.2199516296387,4,3,0,1,2,5,E+,1,5,5,400,600,250.0,5,C18RR,199,train
475.0680923461914,4,3,0,1,2,5,E+,1,4,0,400,600,250.0,4,C18RR,200,train
491.286039352417,4,3,0,1,2,5,E+,1,5,5,400,600,250.0,5,C18RR,201,train
618.8061237335205,4,3,0,1,2,5,E+,1,1,3,400,600,250.0,1,C18RR,202,train
459.3229293823242,4,3,0,1,2,5,E+,1,0,2,400,600,250.0,0,C18RR,203,train
555.0668239593506,4,3,0,1,2,5,E+,1,3,1,400,600,250.0,3,C18RR,204,train
395.28918266296387,4,3,0,1,2,5,E+,1,0,2,400,600,250.0,0,C18RR,205,train
443.30906867980957,4,3,0,1,2,5,E+,1,5,5,400,600,250.0,5,C18RR,206,train
603.3189296722412,4,3,0,1,2,5,E+,1,3,1,400,600,250.0,3,C18RR,207,train
651.1709690093994,4,3,0,1,2,5,E+,1,2,4,400,600,250.0,2,C18RR,208,train
523.298978805542,4,3,0,1,2,5,E+,1,0,2,400,600,250.0,0,C18RR,209,train
427.26802825927734,4,3,0,1,2,5,E+,1,5,5,400,600,250.0,5,C18RR,210,train
731.2569618225098,4,3,0,1,2,5,E+,1,4,0,400,600,250.0,4,C18RR,211,train
571.1970329284668,4,3,0,1,2,5,E+,1,3,1,400,600,250.0,3,C18RR,212,train
360.81886291503906,4,3,0,1,2,5,E+,1,0,2,400,600,250.0,0,C18RR,213,train
619.2159652709961,4,3,0,1,2,5,E+,1,5,5,400,600,250.0,5,C18RR,214,train
555.2699565887451,4,3,0,1,2,5,E+,1,4,0,400,600,250.0,4,C18RR,215,train
491.0888671875,4,3,0,1,2,5,E+,0,3,1,400,600,250.0,2,C18RR,216,train
443.0959224700928,4,3,0,1,2,5,E+,1,4,0,400,600,250.0,4,C18RR,217,train
443.4061050415039,4,3,0,1,2,5,E+,1,5,5,400,600,250.0,5,C18RR,218,train
587.1751308441162,4,3,0,1,2,5,E+,1,5,5,400,600,250.0,5,C18RR,219,train
650.9029865264893,4,3,0,1,2,5,E+,1,5,5,400,600,250.0,5,C18RR,220,train
379.20498847961426,4,3,0,1,2,5,E+,1,5,5,400,600,250.0,5,C18RR,221,train
507.25483894348145,4,3,0,1,2,5,E+,1,4,0,400,600,250.0,4,C18RR,222,train
491.32394790649414,4,3,0,1,2,5,E+,1,0,2,400,600,250.0,0,C18RR,223,train
651.2429714202881,4,3,0,1,2,5,E+,1,4,0,400,600,250.0,4,C18RR,224,train
491.1351203918457,4,3,0,1,2,5,E+,1,2,4,400,600,250.0,2,C18RR,225,train
555.178165435791,4,3,0,1,2,5,E+,1,5,5,400,600,250.0,5,C18RR,226,train
1131.1099529266357,4,3,0,1,2,5,E+,1,3,1,400,600,250.0,3,C18RR,227,train
523.2219696044922,4,3,0,1,2,5,E+,1,3,1,400,600,250.0,3,C18RR,228,train
490.9250736236572,4,3,0,1,2,5,E+,1,0,2,400,600,250.0,0,C18RR,229,train
507.127046585083,4,3,0,1,2,5,E+,1,5,5,400,600,250.0,5,C18RR,230,train
427.08277702331543,4,3,0,1,2,5,E+,1,5,5,400,600,250.0,5,C18RR,231,train
331.04515075683594,4,3,0,1,2,5,E+,1,5,5,400,600,250.0,5,C18RR,232,train
539.186954498291,4,3,0,1,2,5,E+,1,3,1,400,600,250.0,3,C18RR,233,train
571.2311267852783,4,3,0,1,2,5,E+,1,3,1,400,600,250.0,3,C18RR,234,train
506.3049793243408,4,3,0,1,2,5,E+,1,5,5,400,600,250.0,5,C18RR,235,train
651.2420177459717,4,3,0,1,2,5,E+,1,2,4,400,600,250.0,2,C18RR,236,train
473.48904609680176,4,3,0,1,2,5,E+,1,5,5,400,600,250.0,5,C18RR,237,train
763.1840705871582,4,3,0,1,2,5,E+,1,1,3,400,600,250.0,1,C18RR,238,train
635.1180076599121,4,3,0,1,2,5,E+,1,0,2,400,600,250.0,0,C18RR,239,train
699.228048324585,4,3,0,1,2,5,E+,1,0,2,400,600,250.0,0,C18RR,240,train
539.0100479125977,4,3,0,1,2,5,E+,0,2,4,400,600,250.0,1,C18RR,241,train
507.1079730987549,4,3,0,1,2,5,E+,1,5,5,400,600,250.0,5,C18RR,242,train
283.1149101257324,4,3,0,1,2,5,E+,1,1,3,400,600,250.0,1,C18RR,243,train
459.151029586792,4,3,0,1,2,5,E+,0,3,1,400,600,250.0,2,C18RR,244,train
59.25893783569336,4,3,0,1,2,5,E+,1,0,2,400,600,250.0,0,C18RR,245,train
299.15618896484375,4,3,0,1,2,5,E+,1,3,1,400,600,250.0,3,C18RR,246,train
74.91588592529297,4,3,0,1,2,5,E+,1,0,2,400,600,250.0,0,C18RR,247,train
43.29109191894531,4,3,0,1,2,5,E+,1,1,3,400,600,250.0,1,C18RR,248,train
91.14408493041992,4,3,0,1,2,5,E+,0,3,1,400,600,250.0,2,C18RR,249,train
1681.0848712921143,4,3,0,1,2,5,E+,1,3,1,0,1000,250.0,3,C18RR,250,test
592.5130844116211,4,3,0,1,2,5,E+,1,0,2,0,1000,250.0,0,C18RR,251,test
2369.06099319458,4,3,0,1,2,5,E+,1,2,4,0,1000,250.0,2,C18RR,252,test
2784.613847732544,4,3,0,1,2,5,E+,1,4,0,0,1000,250.0,4,C18RR,253,test
465.16895294189453,4,3,0,1,2,5,E+,1,0,2,0,1000,250.0,0,C18RR,254,test
401.2129306793213,4,3,0,1,2,5,E+,1,4,0,0,1000,250.0,4,C18RR,255,test
480.6649684906006,4,3,0,1,2,5,E+,1,4,0,0,1000,250.0,4,C18RR,256,test
561.115026473999,4,3,0,1,2,5,E+,1,4,0,0,1000,250.0,4,C18RR,257,test
768.9900398254395,4,3,0,1,2,5,E+,1,5,5,0,1000,250.0,5,C18RR,258,test
497.1339702606201,4,3,0,1,2,5,E+,1,0,2,0,1000,250.0,0,C18RR,259,test
561.1820220947266,4,3,0,1,2,5,E+,1,1,3,0,1000,250.0,1,C18RR,260,test
608.896017074585,4,3,0,1,2,5,E+,1,5,5,0,1000,250.0,5,C18RR,261,test
543.5121059417725,4,3,0,1,2,5,E+,1,1,3,0,1000,250.0,1,C18RR,262,test
545.0689792633057,4,3,0,1,2,5,E+,1,4,0,0,1000,250.0,4,C18RR,263,test
544.9330806732178,4,3,0,1,2,5,E+,1,5,5,0,1000,250.0,5,C18RR,264,test
608.9060306549072,4,3,0,1,2,5,E+,1,4,0,0,1000,250.0,4,C18RR,265,test
512.9060745239258,4,3,0,1,2,5,E+,1,0,2,0,1000,250.0,0,C18RR,266,test
561.0580444335938,4,3,0,1,2,5,E+,1,0,2,0,1000,250.0,0,C18RR,267,test
498.0039596557617,4,3,0,1,2,5,E+,1,1,3,0,1000,250.0,1,C18RR,268,test
561.2530708312988,4,3,0,1,2,5,E+,1,4,0,0,1000,250.0,4,C18RR,269,test
625.2400875091553,4,3,0,1,2,5,E+,1,2,4,0,1000,250.0,2,C18RR,270,test
513.1990909576416,4,3,0,1,2,5,E+,1,4,0,0,1000,250.0,4,C18RR,271,test
465.14391899108887,4,3,0,1,2,5,E+,1,5,5,0,1000,250.0,5,C18RR,272,test
465.1639461517334,4,3,0,1,2,5,E+,1,0,2,0,1000,250.0,0,C18RR,273,test
1936.9709491729736,4,3,0,1,2,5,E+,0,3,1,0,1000,250.0,2,C18RR,274,test
513.1449699401855,4,3,0,1,2,5,E+,1,5,5,0,1000,250.0,5,C18RR,275,test
832.658052444458,4,3,0,1,2,5,E+,1,4,0,0,1000,250.0,4,C18RR,276,test
769.0808773040771,4,3,0,1,2,5,E+,0,5,5,0,1000,250.0,4,C18RR,277,test
1345.1869487762451,4,3,0,1,2,5,E+,1,0,2,0,1000,250.0,0,C18RR,278,test
609.1411113739014,4,3,0,1,2,5,E+,0,2,4,0,1000,250.0,1,C18RR,279,test
609.0390682220459,4,3,0,1,2,5,E+,1,4,0,0,1000,250.0,4,C18RR,280,test
369.0381050109863,4,3,0,1,2,5,E+,1,5,5,0,1000,250.0,5,C18RR,281,test
1089.0989303588867,4,3,0,1,2,5,E+,1,1,3,0,1000,250.0,1,C18RR,282,test
641.1819458007812,4,3,0,1,2,5,E+,1,4,0,0,1000,250.0,4,C18RR,283,test
577.1069526672363,4,3,0,1,2,5,E+,1,5,5,0,1000,250.0,5,C18RR,284,test
448.76790046691895,4,3,0,1,2,5,E+,1,5,5,0,1000,250.0,5,C18RR,285,test
592.8821563720703,4,3,0,1,2,5,E+,1,2,4,0,1000,250.0,2,C18RR,286,test
513.0939483642578,4,3,0,1,2,5,E+,1,0,2,0,1000,250.0,0,C18RR,287,test
384.92488861083984,4,3,0,1,2,5,E+,1,3,1,0,1000,250.0,3,C18RR,288,test
368.8981533050537,4,3,0,1,2,5,E+,1,0,2,0,1000,250.0,0,C18RR,289,test
545.166015625,4,3,0,1,2,5,E+,1,5,5,0,1000,250.0,5,C18RR,290,test
561.1021518707275,4,3,0,1,2,5,E+,1,4,0,0,1000,250.0,4,C18RR,291,test
1345.1478481292725,4,3,0,1,2,5,E+,1,0,2,0,1000,250.0,0,C18RR,292,test
528.8259983062744,4,3,0,1,2,5,E+,1,4,0,0,1000,250.0,4,C18RR,293,test
577.1050453186035,4,3,0,1,2,5,E+,1,2,4,0,1000,250.0,2,C18RR,294,test
2864.6271228790283,4,3,0,1,2,5,E+,1,0,2,0,1000,250.0,0,C18RR,295,test
543.1439876556396,4,3,0,1,2,5,E+,1,5,5,0,1000,250.0,5,C18RR,296,test
625.0259876251221,4,3,0,1,2,5,E+,1,3,1,0,1000,250.0,3,C18RR,297,test
513.2389068603516,4,3,0,1,2,5,E+,1,0,2,0,1000,250.0,0,C18RR,298,test
560.8069896697998,4,3,0,1,2,5,E+,1,1,3,0,1000,250.0,1,C18RR,299,test
448.9858150482178,4,3,0,1,2,5,E+,1,4,0,0,1000,250.0,4,C18RR,300,test
607.0740222930908,4,3,0,1,2,5,E+,1,4,0,0,1000,250.0,4,C18RR,301,test
433.0449104309082,4,3,0,1,2,5,E+,1,5,5,0,1000,250.0,5,C18RR,302,test
575.4320621490479,4,3,0,1,2,5,E+,1,3,1,0,1000,250.0,3,C18RR,303,test
608.8809967041016,4,3,0,1,2,5,E+,1,4,0,0,1000,250.0,4,C18RR,304,test
625.0669956207275,4,3,0,1,2,5,E+,1,5,5,0,1000,250.0,5,C18RR,305,test
657.1481227874756,4,3,0,1,2,5,E+,1,0,2,0,1000,250.0,0,C18RR,306,test
689.0509128570557,4,3,0,1,2,5,E+,1,2,4,0,1000,250.0,2,C18RR,307,test
528.7489891052246,4,3,0,1,2,5,E+,1,0,2,0,1000,250.0,0,C18RR,308,test
465.16990661621094,4,3,0,1,2,5,E+,1,4,0,0,1000,250.0,4,C18RR,309,test
464.1900062561035,4,3,0,1,2,5,E+,1,4,0,0,1000,250.0,4,C18RR,310,test
529.094934463501,4,3,0,1,2,5,E+,1,5,5,0,1000,250.0,5,C18RR,311,test
463.37080001831055,4,3,0,1,2,5,E+,1,0,2,0,1000,250.0,0,C18RR,312,test
513.1218433380127,4,3,0,1,2,5,E+,1,4,0,0,1000,250.0,4,C18RR,313,test
431.5340518951416,4,3,0,1,2,5,E+,1,0,2,0,1000,250.0,0,C18RR,314,test
417.1571731567383,4,3,0,1,2,5,E+,1,0,2,0,1000,250.0,0,C18RR,315,test
544.9841022491455,4,3,0,1,2,5,E+,1,2,4,0,1000,250.0,2,C18RR,316,test
481.13107681274414,4,3,0,1,2,5,E+,1,0,2,0,1000,250.0,0,C18RR,317,test
526.5169143676758,4,3,0,1,2,5,E+,1,5,5,0,1000,250.0,5,C18RR,318,test
1713.1571769714355,4,3,0,1,2,5,E+,1,3,1,0,1000,250.0,3,C18RR,319,test
513.098955154419,4,3,0,1,2,5,E+,1,5,5,0,1000,250.0,5,C18RR,320,test
496.94204330444336,4,3,0,1,2,5,E+,0,1,3,0,1000,250.0,0,C18RR,321,test
480.75008392333984,4,3,0,1,2,5,E+,1,0,2,0,1000,250.0,0,C18RR,322,test
576.9870281219482,4,3,0,1,2,5,E+,1,3,1,0,1000,250.0,3,C18RR,323,test
417.1009063720703,4,3,0,1,2,5,E+,1,3,1,0,1000,250.0,3,C18RR,324,test
496.66905403137207,4,3,0,1,2,5,E+,1,4,0,0,1000,250.0,4,C18RR,325,test
1136.9190216064453,4,3,0,1,2,5,E+,1,3,1,0,1000,250.0,3,C18RR,326,test
673.1278896331787,4,3,0,1,2,5,E+,1,1,3,0,1000,250.0,1,C18RR,327,test
529.0360450744629,4,3,0,1,2,5,E+,1,3,1,0,1000,250.0,3,C18RR,328,test
592.8010940551758,4,3,0,1,2,5,E+,1,4,0,0,1000,250.0,4,C18RR,329,test
497.0419406890869,4,3,0,1,2,5,E+,1,0,2,0,1000,250.0,0,C18RR,330,test
625.0319480895996,4,3,0,1,2,5,E+,1,3,1,0,1000,250.0,3,C18RR,331,test
401.12781524658203,4,3,0,1,2,5,E+,1,3,1,0,1000,250.0,3,C18RR,332,test
544.996976852417,4,3,0,1,2,5,E+,1,1,3,0,1000,250.0,1,C18RR,333,test
561.1069202423096,4,3,0,1,2,5,E+,1,5,5,0,1000,250.0,5,C18RR,334,test
481.17589950561523,4,3,0,1,2,5,E+,0,2,4,0,1000,250.0,3,C18RR,335,test
494.51684951782227,4,3,0,1,2,5,E+,1,0,2,0,1000,250.0,0,C18RR,336,test
465.1508331298828,4,3,0,1,2,5,E+,1,0,2,0,1000,250.0,0,C18RR,337,test
464.871883392334,4,3,0,1,2,5,E+,1,0,2,0,1000,250.0,0,C18RR,338,test
673.1200218200684,4,3,0,1,2,5,E+,1,4,0,0,1000,250.0,4,C18RR,339,test
529.0889739990234,4,3,0,1,2,5,E+,1,5,5,0,1000,250.0,5,C18RR,340,test
465.040922164917,4,3,0,1,2,5,E+,1,5,5,0,1000,250.0,5,C18RR,341,test
545.180082321167,4,3,0,1,2,5,E+,1,2,4,0,1000,250.0,2,C18RR,342,test
560.9140396118164,4,3,0,1,2,5,E+,1,4,0,0,1000,250.0,4,C18RR,343,test
513.2720470428467,4,3,0,1,2,5,E+,1,5,5,0,1000,250.0,5,C18RR,344,test
577.0301818847656,4,3,0,1,2,5,E+,1,0,2,0,1000,250.0,0,C18RR,345,test
737.1089458465576,4,3,0,1,2,5,E+,1,1,3,0,1000,250.0,1,C18RR,346,test
528.9950370788574,4,3,0,1,2,5,E+,1,1,3,0,1000,250.0,1,C18RR,347,test
529.1330814361572,4,3,0,1,2,5,E+,1,1,3,0,1000,250.0,1,C18RR,348,test
465.20209312438965,4,3,0,1,2,5,E+,1,1,3,0,1000,250.0,1,C18RR,349,test
1425.2400398254395,4,3,0,1,2,5,E+,1,3,1,0,1000,250.0,3,C18RR,350,test
609.1620922088623,4,3,0,1,2,5,E+,1,2,4,0,1000,250.0,2,C18RR,351,test
465.0750160217285,4,3,0,1,2,5,E+,1,5,5,0,1000,250.0,5,C18RR,352,test
529.231071472168,4,3,0,1,2,5,E+,1,1,3,0,1000,250.0,1,C18RR,353,test
671.5288162231445,4,3,0,1,2,5,E+,1,2,4,0,1000,250.0,2,C18RR,354,test
545.0050830841064,4,3,0,1,2,5,E+,1,3,1,0,1000,250.0,3,C18RR,355,test
545.0809001922607,4,3,0,1,2,5,E+,1,5,5,0,1000,250.0,5,C18RR,356,test
704.9028873443604,4,3,0,1,2,5,E+,1,2,4,0,1000,250.0,2,C18RR,357,test
481.21190071105957,4,3,0,1,2,5,E+,1,3,1,0,1000,250.0,3,C18RR,358,test
465.3301239013672,4,3,0,1,2,5,E+,0,2,4,0,1000,250.0,3,C18RR,359,test
529.1190147399902,4,3,0,1,2,5,E+,1,4,0,0,1000,250.0,4,C18RR,360,test
545.2959537506104,4,3,0,1,2,5,E+,1,4,0,0,1000,250.0,4,C18RR,361,test
577.1920680999756,4,3,0,1,2,5,E+,1,1,3,0,1000,250.0,1,C18RR,362,test
481.2321662902832,4,3,0,1,2,5,E+,1,3,1,0,1000,250.0,3,C18RR,363,test
495.6681728363037,4,3,0,1,2,5,E+,1,4,0,0,1000,250.0,4,C18RR,364,test
529.0369987487793,4,3,0,1,2,5,E+,1,3,1,0,1000,250.0,3,C18RR,365,test
513.1158828735352,4,3,0,1,2,5,E+,1,0,2,0,1000,250.0,0,C18RR,366,test
481.1420440673828,4,3,0,1,2,5,E+,1,5,5,0,1000,250.0,5,C18RR,367,test
433.1529140472412,4,3,0,1,2,5,E+,1,0,2,0,1000,250.0,0,C18RR,368,test
721.1270332336426,4,3,0,1,2,5,E+,1,1,3,0,1000,250.0,1,C18RR,369,test
529.0429592132568,4,3,0,1,2,5,E+,1,1,3,0,1000,250.0,1,C18RR,370,test
495.6169128417969,4,3,0,1,2,5,E+,1,0,2,0,1000,250.0,0,C18RR,371,test
593.1990146636963,4,3,0,1,2,5,E+,1,2,4,0,1000,250.0,2,C18RR,372,test
641.0689353942871,4,3,0,1,2,5,E+,1,4,0,0,1000,250.0,4,C18RR,373,test
465.1210308074951,4,3,0,1,2,5,E+,0,3,1,0,1000,250.0,2,C18RR,374,test
465.2409553527832,4,3,0,1,2,5,E+,1,5,5,0,1000,250.0,5,C18RR,375,test
529.1299819946289,4,3,0,1,2,5,E+,1,4,0,0,1000,250.0,4,C18RR,376,test
369.2338466644287,4,3,0,1,2,5,E+,1,4,0,0,1000,250.0,4,C18RR,377,test
480.3011417388916,4,3,0,1,2,5,E+,0,3,1,0,1000,250.0,2,C18RR,378,test
496.3250160217285,4,3,0,1,2,5,E+,0,2,4,0,1000,250.0,3,C18RR,379,test
529.2329788208008,4,3,0,1,2,5,E+,1,5,5,0,1000,250.0,5,C18RR,380,test
545.1750755310059,4,3,0,1,2,5,E+,1,0,2,0,1000,250.0,0,C18RR,381,test
496.9749450683594,4,3,0,1,2,5,E+,1,3,1,0,1000,250.0,3,C18RR,382,test
480.94797134399414,4,3,0,1,2,5,E+,1,4,0,0,1000,250.0,4,C18RR,383,test
1345.2270030975342,4,3,0,1,2,5,E+,1,3,1,0,1000,250.0,3,C18RR,384,test
737.3130321502686,4,3,0,1,2,5,E+,1,1,3,0,1000,250.0,1,C18RR,385,test
545.1679229736328,4,3,0,1,2,5,E+,1,1,3,0,1000,250.0,1,C18RR,386,test
592.9639339447021,4,3,0,1,2,5,E+,1,2,4,0,1000,250.0,2,C18RR,387,test
641.0830020904541,4,3,0,1,2,5,E+,1,2,4,0,1000,250.0,2,C18RR,388,test
625.298023223877,4,3,0,1,2,5,E+,1,0,2,0,1000,250.0,0,C18RR,389,test
720.9780216217041,4,3,0,1,2,5,E+,1,5,5,0,1000,250.0,5,C18RR,390,test
497.06101417541504,4,3,0,1,2,5,E+,1,0,2,0,1000,250.0,0,C18RR,391,test
448.3520984649658,4,3,0,1,2,5,E+,1,4,0,0,1000,250.0,4,C18RR,392,test
561.1240863800049,4,3,0,1,2,5,E+,1,2,4,0,1000,250.0,2,C18RR,393,test
576.9329071044922,4,3,0,1,2,5,E+,1,3,1,0,1000,250.0,3,C18RR,394,test
353.17397117614746,4,3,0,1,2,5,E+,1,0,2,0,1000,250.0,0,C18RR,395,test
353.1908988952637,4,3,0,1,2,5,E+,0,3,1,0,1000,250.0,0,C18RR,396,test
448.7898349761963,4,3,0,1,2,5,E+,1,4,0,0,1000,250.0,4,C18RR,397,test
449.02706146240234,4,3,0,1,2,5,E+,1,5,5,0,1000,250.0,5,C18RR,398,test
528.8808345794678,4,3,0,1,2,5,E+,1,1,3,0,1000,250.0,1,C18RR,399,test
481.05502128601074,4,3,0,1,2,5,E+,1,1,3,0,1000,250.0,1,C18RR,400,test
497.1189498901367,4,3,0,1,2,5,E+,0,2,4,0,1000,250.0,3,C18RR,401,test
656.8379402160645,4,3,0,1,2,5,E+,1,3,1,0,1000,250.0,3,C18RR,402,test
481.19378089904785,4,3,0,1,2,5,E+,1,4,0,0,1000,250.0,4,C18RR,403,test
593.062162399292,4,3,0,1,2,5,E+,1,2,4,0,1000,250.0,2,C18RR,404,test
496.89602851867676,4,3,0,1,2,5,E+,1,5,5,0,1000,250.0,5,C18RR,405,test
657.235860824585,4,3,0,1,2,5,E+,1,2,4,0,1000,250.0,2,C18RR,406,test
481.2488555908203,4,3,0,1,2,5,E+,1,4,0,0,1000,250.0,4,C18RR,407,test
608.6740493774414,4,3,0,1,2,5,E+,1,3,1,0,1000,250.0,3,C18RR,408,test
481.1549186706543,4,3,0,1,2,5,E+,1,1,3,0,1000,250.0,1,C18RR,409,test
545.2020168304443,4,3,0,1,2,5,E+,1,0,2,0,1000,250.0,0,C18RR,410,test
465.06786346435547,4,3,0,1,2,5,E+,1,0,2,0,1000,250.0,0,C18RR,411,test
513.1571292877197,4,3,0,1,2,5,E+,1,2,4,0,1000,250.0,2,C18RR,412,test
465.04688262939453,4,3,0,1,2,5,E+,1,1,3,0,1000,250.0,1,C18RR,413,test
560.9841346740723,4,3,0,1,2,5,E+,1,5,5,0,1000,250.0,5,C18RR,414,test
528.8431644439697,4,3,0,1,2,5,E+,1,5,5,0,1000,250.0,5,C18RR,415,test
529.1249752044678,4,3,0,1,2,5,E+,1,3,1,0,1000,250.0,3,C18RR,416,test
624.561071395874,4,3,0,1,2,5,E+,1,1,3,0,1000,250.0,1,C18RR,417,test
480.8051586151123,4,3,0,1,2,5,E+,1,0,2,0,1000,250.0,0,C18RR,418,test
561.060905456543,4,3,0,1,2,5,E+,1,1,3,0,1000,250.0,1,C18RR,419,test
400.9830951690674,4,3,0,1,2,5,E+,1,0,2,0,1000,250.0,0,C18RR,420,test
529.1731357574463,4,3,0,1,2,5,E+,1,1,3,0,1000,250.0,1,C18RR,421,test
511.01016998291016,4,3,0,1,2,5,E+,1,3,1,0,1000,250.0,3,C18RR,422,test
544.9621677398682,4,3,0,1,2,5,E+,1,3,1,0,1000,250.0,3,C18RR,423,test
513.1261348724365,4,3,0,1,2,5,E+,0,2,4,0,1000,250.0,4,C18RR,424,test
513.1690502166748,4,3,0,1,2,5,E+,1,0,2,0,1000,250.0,0,C18RR,425,test
529.0679931640625,4,3,0,1,2,5,E+,1,1,3,0,1000,250.0,1,C18RR,426,test
529.1521549224854,4,3,0,1,2,5,E+,1,0,2,0,1000,250.0,0,C18RR,427,test
401.04079246520996,4,3,0,1,2,5,E+,0,0,2,0,1000,250.0,1,C18RR,428,test
592.4558639526367,4,3,0,1,2,5,E+,1,3,1,0,1000,250.0,3,C18RR,429,test
513.1330490112305,4,3,0,1,2,5,E+,1,5,5,0,1000,250.0,5,C18RR,430,test
544.0011024475098,4,3,0,1,2,5,E+,1,1,3,0,1000,250.0,1,C18RR,431,test
433.17699432373047,4,3,0,1,2,5,E+,1,0,2,0,1000,250.0,0,C18RR,432,test
624.9251365661621,4,3,0,1,2,5,E+,1,2,4,0,1000,250.0,2,C18RR,433,test
512.9389762878418,4,3,0,1,2,5,E+,1,1,3,0,1000,250.0,1,C18RR,434,test
464.95580673217773,4,3,0,1,2,5,E+,1,0,2,0,1000,250.0,0,C18RR,435,test
481.14895820617676,4,3,0,1,2,5,E+,1,0,2,0,1000,250.0,0,C18RR,436,test
464.8921489715576,4,3,0,1,2,5,E+,1,1,3,0,1000,250.0,1,C18RR,437,test
625.0500679016113,4,3,0,1,2,5,E+,1,2,4,0,1000,250.0,2,C18RR,438,test
657.0119857788086,4,3,0,1,2,5,E+,0,3,1,0,1000,250.0,0,C18RR,439,test
497.15399742126465,4,3,0,1,2,5,E+,1,4,0,0,1000,250.0,4,C18RR,440,test
545.2709197998047,4,3,0,1,2,5,E+,1,5,5,0,1000,250.0,5,C18RR,441,test
449.02586936950684,4,3,0,1,2,5,E+,1,0,2,0,1000,250.0,0,C18RR,442,test
497.1790313720703,4,3,0,1,2,5,E+,1,1,3,0,1000,250.0,1,C18RR,443,test
641.1769390106201,4,3,0,1,2,5,E+,1,2,4,0,1000,250.0,2,C18RR,444,test
529.0119647979736,4,3,0,1,2,5,E+,1,0,2,0,1000,250.0,0,C18RR,445,test
560.9540939331055,4,3,0,1,2,5,E+,1,0,2,0,1000,250.0,0,C18RR,446,test
593.2149887084961,4,3,0,1,2,5,E+,1,2,4,0,1000,250.0,2,C18RR,447,test
558.7270259857178,4,3,0,1,2,5,E+,1,5,5,0,1000,250.0,5,C18RR,448,test
1953.2818794250488,4,3,0,1,2,5,E+,1,3,1,0,1000,250.0,3,C18RR,449,test
593.1110382080078,4,3,0,1,2,5,E+,1,2,4,0,1000,250.0,2,C18RR,450,test
609.1840267181396,4,3,0,1,2,5,E+,1,1,3,0,1000,250.0,1,C18RR,451,test
1137.0198726654053,4,3,0,1,2,5,E+,1,3,1,0,1000,250.0,3,C18RR,452,test
545.295000076294,4,3,0,1,2,5,E+,1,3,1,0,1000,250.0,3,C18RR,453,test
352.93102264404297,4,3,0,1,2,5,E+,1,3,1,0,1000,250.0,3,C18RR,454,test
593.1429862976074,4,3,0,1,2,5,E+,1,2,4,0,1000,250.0,2,C18RR,455,test
545.1910495758057,4,3,0,1,2,5,E+,1,3,1,0,1000,250.0,3,C18RR,456,test
625.234842300415,4,3,0,1,2,5,E+,1,1,3,0,1000,250.0,1,C18RR,457,test
545.0599193572998,4,3,0,1,2,5,E+,1,3,1,0,1000,250.0,3,C18RR,458,test
881.2158107757568,4,3,0,1,2,5,E+,1,0,2,0,1000,250.0,0,C18RR,459,test
702.6998996734619,4,3,0,1,2,5,E+,1,1,3,0,1000,250.0,1,C18RR,460,test
513.0939483642578,4,3,0,1,2,5,E+,1,4,0,0,1000,250.0,4,C18RR,461,test
657.0379734039307,4,3,0,1,2,5,E+,1,3,1,0,1000,250.0,3,C18RR,462,test
449.02586936950684,4,3,0,1,2,5,E+,1,3,1,0,1000,250.0,3,C18RR,463,test
496.9007968902588,4,3,0,1,2,5,E+,1,5,5,0,1000,250.0,5,C18RR,464,test
497.10917472839355,4,3,0,1,2,5,E+,1,4,0,0,1000,250.0,4,C18RR,465,test
529.2329788208008,4,3,0,1,2,5,E+,1,4,0,0,1000,250.0,4,C18RR,466,test
625.1130104064941,4,3,0,1,2,5,E+,1,3,1,0,1000,250.0,3,C18RR,467,test
513.0419731140137,4,3,0,1,2,5,E+,1,4,0,0,1000,250.0,4,C18RR,468,test
545.2799797058105,4,3,0,1,2,5,E+,1,5,5,0,1000,250.0,5,C18RR,469,test
1201.117992401123,4,3,0,1,2,5,E+,1,2,4,0,1000,250.0,2,C18RR,470,test
512.2239589691162,4,3,0,1,2,5,E+,1,1,3,0,1000,250.0,1,C18RR,471,test
481.1680316925049,4,3,0,1,2,5,E+,1,0,2,0,1000,250.0,0,C18RR,472,test
976.8681526184082,4,3,0,1,2,5,E+,1,3,1,0,1000,250.0,3,C18RR,473,test
577.2020816802979,4,3,0,1,2,5,E+,1,2,4,0,1000,250.0,2,C18RR,474,test
513.0178928375244,4,3,0,1,2,5,E+,1,4,0,0,1000,250.0,4,C18RR,475,test
449.13387298583984,4,3,0,1,2,5,E+,0,3,1,0,1000,250.0,2,C18RR,476,test
656.919002532959,4,3,0,1,2,5,E+,1,2,4,0,1000,250.0,2,C18RR,477,test
593.1940078735352,4,3,0,1,2,5,E+,1,5,5,0,1000,250.0,5,C18RR,478,test
561.2010955810547,4,3,0,1,2,5,E+,1,1,3,0,1000,250.0,1,C18RR,479,test
433.1369400024414,4,3,0,1,2,5,E+,1,4,0,0,1000,250.0,4,C18RR,480,test
513.1618976593018,4,3,0,1,2,5,E+,1,5,5,0,1000,250.0,5,C18RR,481,test
496.68002128601074,4,3,0,1,2,5,E+,0,5,5,0,1000,250.0,1,C18RR,482,test
545.1431274414062,4,3,0,1,2,5,E+,1,3,1,0,1000,250.0,3,C18RR,483,test
417.1769618988037,4,3,0,1,2,5,E+,1,3,1,0,1000,250.0,3,C18RR,484,test
481.11701011657715,4,3,0,1,2,5,E+,1,4,0,0,1000,250.0,4,C18RR,485,test
464.41078186035156,4,3,0,1,2,5,E+,1,5,5,0,1000,250.0,5,C18RR,486,test
432.97410011291504,4,3,0,1,2,5,E+,1,5,5,0,1000,250.0,5,C18RR,487,test
496.7000484466553,4,3,0,1,2,5,E+,1,0,2,0,1000,250.0,0,C18RR,488,test
609.0548038482666,4,3,0,1,2,5,E+,1,3,1,0,1000,250.0,3,C18RR,489,test
577.2058963775635,4,3,0,1,2,5,E+,0,2,4,0,1000,250.0,3,C18RR,490,test
577.1031379699707,4,3,0,1,2,5,E+,1,0,2,0,1000,250.0,0,C18RR,491,test
544.2190170288086,4,3,0,1,2,5,E+,1,2,4,0,1000,250.0,2,C18RR,492,test
465.16895294189453,4,3,0,1,2,5,E+,1,0,2,0,1000,250.0,0,C18RR,493,test
528.9089679718018,4,3,0,1,2,5,E+,1,1,3,0,1000,250.0,1,C18RR,494,test
624.8888969421387,4,3,0,1,2,5,E+,1,5,5,0,1000,250.0,5,C18RR,495,test
449.1569995880127,4,3,0,1,2,5,E+,1,5,5,0,1000,250.0,5,C18RR,496,test
512.9978656768799,4,3,0,1,2,5,E+,1,5,5,0,1000,250.0,5,C18RR,497,test
465.12794494628906,4,3,0,1,2,5,E+,1,4,0,0,1000,250.0,4,C18RR,498,test
464.83516693115234,4,3,0,1,2,5,E+,1,5,5,0,1000,250.0,5,C18RR,499,test
