RT,SRmap_0,SRmap_1,SRmap_2,SRmap_3,SRmap_4,SRmap_5,condition,correct,correct_response,curstim,ms-precue,ms-prestimblank,ntrials,response,subject,trial,type
6426.815986633301,0,2,4,5,1,3,E+,0,5,3,400,600,250.0,0,c21ec21el,0,train
4027.247905731201,0,2,4,5,1,3,E+,1,3,5,400,600,250.0,3,c21ec21el,1,train
1787.588119506836,0,2,4,5,1,3,E+,1,1,4,400,600,250.0,1,c21ec21el,2,train
1179.54683303833,0,2,4,5,1,3,E+,1,0,0,400,600,250.0,0,c21ec21el,3,train
1499.560832977295,0,2,4,5,1,3,E+,1,4,2,400,600,250.0,4,c21ec21el,4,train
891.7129039764404,0,2,4,5,1,3,E+,1,1,4,400,600,250.0,1,c21ec21el,5,train
1115.6020164489746,0,2,4,5,1,3,E+,1,2,1,400,600,250.0,2,c21ec21el,6,train
1178.3771514892578,0,2,4,5,1,3,E+,1,4,2,400,600,250.0,4,c21ec21el,7,train
1419.6078777313232,0,2,4,5,1,3,E+,1,2,1,400,600,250.0,2,c21ec21el,8,train
1003.5350322723389,0,2,4,5,1,3,E+,1,4,2,400,600,250.0,4,c21ec21el,9,train
1019.8061466217041,0,2,4,5,1,3,E+,1,2,1,400,600,250.0,2,c21ec21el,10,train
1675.1887798309326,0,2,4,5,1,3,E+,1,5,3,400,600,250.0,5,c21ec21el,11,train
1147.4010944366455,0,2,4,5,1,3,E+,1,4,2,400,600,250.0,4,c21ec21el,12,train
699.7630596160889,0,2,4,5,1,3,E+,1,5,3,400,600,250.0,5,c21ec21el,13,train
827.6429176330566,0,2,4,5,1,3,E+,1,4,2,400,600,250.0,4,c21ec21el,14,train
458.2030773162842,0,2,4,5,1,3,E+,1,5,3,400,600,250.0,5,c21ec21el,15,train
1179.715871810913,0,2,4,5,1,3,E+,1,2,1,400,600,250.0,2,c21ec21el,16,train
523.6880779266357,0,2,4,5,1,3,E+,1,1,4,400,600,250.0,1,c21ec21el,17,train
411.73696517944336,0,2,4,5,1,3,E+,1,2,1,400,600,250.0,2,c21ec21el,18,train
492.60401725769043,0,2,4,5,1,3,E+,1,0,0,400,600,250.0,0,c21ec21el,19,train
683.2060813903809,0,2,4,5,1,3,E+,1,2,1,400,600,250.0,2,c21ec21el,20,train
971.6460704803467,0,2,4,5,1,3,E+,1,5,3,400,600,250.0,5,c21ec21el,21,train
443.6919689178467,0,2,4,5,1,3,E+,1,4,2,400,600,250.0,4,c21ec21el,22,train
59.73505973815918,0,2,4,5,1,3,E+,1,4,2,400,600,250.0,4,c21ec21el,23,train
155.60102462768555,0,2,4,5,1,3,E+,0,2,1,400,600,250.0,3,c21ec21el,24,train
730.8609485626221,0,2,4,5,1,3,E+,1,4,2,400,600,250.0,4,c21ec21el,25,train
699.6099948883057,0,2,4,5,1,3,E+,0,1,4,400,600,250.0,0,c21ec21el,26,train
459.64717864990234,0,2,4,5,1,3,E+,1,5,3,400,600,250.0,5,c21ec21el,27,train
236.59205436706543,0,2,4,5,1,3,E+,1,4,2,400,600,250.0,4,c21ec21el,28,train
587.7420902252197,0,2,4,5,1,3,E+,1,4,2,400,600,250.0,4,c21ec21el,29,train
139.66012001037598,0,2,4,5,1,3,E+,1,4,2,400,600,250.0,4,c21ec21el,30,train
635.4548931121826,0,2,4,5,1,3,E+,1,1,4,400,600,250.0,1,c21ec21el,31,train
523.7739086151123,0,2,4,5,1,3,E+,0,3,5,400,600,250.0,5,c21ec21el,32,train
459.64908599853516,0,2,4,5,1,3,E+,1,2,1,400,600,250.0,2,c21ec21el,33,train
635.613203048706,0,2,4,5,1,3,E+,1,4,2,400,600,250.0,4,c21ec21el,34,train
219.72918510437012,0,2,4,5,1,3,E+,1,4,2,400,600,250.0,4,c21ec21el,35,train
443.9659118652344,0,2,4,5,1,3,E+,1,2,1,400,600,250.0,2,c21ec21el,36,train
203.8860321044922,0,2,4,5,1,3,E+,0,2,1,400,600,250.0,1,c21ec21el,37,train
331.7298889160156,0,2,4,5,1,3,E+,1,5,3,400,600,250.0,5,c21ec21el,38,train
475.7499694824219,0,2,4,5,1,3,E+,1,0,0,400,600,250.0,0,c21ec21el,39,train
363.7199401855469,0,2,4,5,1,3,E+,1,2,1,400,600,250.0,2,c21ec21el,40,train
251.66893005371094,0,2,4,5,1,3,E+,0,4,2,400,600,250.0,5,c21ec21el,41,train
539.5770072937012,0,2,4,5,1,3,E+,1,3,5,400,600,250.0,3,c21ec21el,42,train
203.72986793518066,0,2,4,5,1,3,E+,1,4,2,400,600,250.0,4,c21ec21el,43,train
75.83999633789062,0,2,4,5,1,3,E+,0,0,0,400,600,250.0,3,c21ec21el,44,train
155.69090843200684,0,2,4,5,1,3,E+,1,0,0,400,600,250.0,0,c21ec21el,45,train
139.68992233276367,0,2,4,5,1,3,E+,1,0,0,400,600,250.0,0,c21ec21el,46,train
619.6029186248779,0,2,4,5,1,3,E+,1,3,5,400,600,250.0,3,c21ec21el,47,train
395.86591720581055,0,2,4,5,1,3,E+,1,2,1,400,600,250.0,2,c21ec21el,48,train
0.14209747314453125,0,2,4,5,1,3,E+,1,2,1,400,600,250.0,2,c21ec21el,49,train
219.85197067260742,0,2,4,5,1,3,E+,1,0,0,400,600,250.0,0,c21ec21el,50,train
107.77902603149414,0,2,4,5,1,3,E+,1,1,4,400,600,250.0,1,c21ec21el,51,train
11.564016342163086,0,2,4,5,1,3,E+,0,0,0,400,600,250.0,2,c21ec21el,52,train
475.75998306274414,0,2,4,5,1,3,E+,1,3,5,400,600,250.0,3,c21ec21el,53,train
75.69408416748047,0,2,4,5,1,3,E+,1,4,2,400,600,250.0,4,c21ec21el,54,train
139.74905014038086,0,2,4,5,1,3,E+,1,3,5,400,600,250.0,3,c21ec21el,55,train
123.8088607788086,0,2,4,5,1,3,E+,1,3,5,400,600,250.0,3,c21ec21el,56,train
363.68298530578613,0,2,4,5,1,3,E+,1,1,4,400,600,250.0,1,c21ec21el,57,train
651.4530181884766,0,2,4,5,1,3,E+,1,4,2,400,600,250.0,4,c21ec21el,58,train
747.6730346679688,0,2,4,5,1,3,E+,1,0,0,400,600,250.0,0,c21ec21el,59,train
875.6661415100098,0,2,4,5,1,3,E+,1,5,3,400,600,250.0,5,c21ec21el,60,train
107.7430248260498,0,2,4,5,1,3,E+,1,5,3,400,600,250.0,5,c21ec21el,61,train
395.6301212310791,0,2,4,5,1,3,E+,1,3,5,400,600,250.0,3,c21ec21el,62,train
91.50099754333496,0,2,4,5,1,3,E+,1,5,3,400,600,250.0,5,c21ec21el,63,train
123.60501289367676,0,2,4,5,1,3,E+,1,3,5,400,600,250.0,3,c21ec21el,64,train
123.73805046081543,0,2,4,5,1,3,E+,1,4,2,400,600,250.0,4,c21ec21el,65,train
171.71216011047363,0,2,4,5,1,3,E+,0,1,4,400,600,250.0,2,c21ec21el,66,train
171.68283462524414,0,2,4,5,1,3,E+,1,2,1,400,600,250.0,2,c21ec21el,67,train
27.849912643432617,0,2,4,5,1,3,E+,1,2,1,400,600,250.0,2,c21ec21el,68,train
299.1509437561035,0,2,4,5,1,3,E+,1,5,3,400,600,250.0,5,c21ec21el,69,train
11.077880859375,0,2,4,5,1,3,E+,1,4,2,400,600,250.0,4,c21ec21el,70,train
523.7569808959961,0,2,4,5,1,3,E+,1,1,4,400,600,250.0,1,c21ec21el,71,train
75.60300827026367,0,2,4,5,1,3,E+,1,1,4,400,600,250.0,1,c21ec21el,72,train
123.80194664001465,0,2,4,5,1,3,E+,1,0,0,400,600,250.0,0,c21ec21el,73,train
363.8501167297363,0,2,4,5,1,3,E+,1,4,2,400,600,250.0,4,c21ec21el,74,train
411.67283058166504,0,2,4,5,1,3,E+,1,3,5,400,600,250.0,3,c21ec21el,75,train
107.72395133972168,0,2,4,5,1,3,E+,1,4,2,400,600,250.0,4,c21ec21el,76,train
27.70400047302246,0,2,4,5,1,3,E+,1,3,5,400,600,250.0,3,c21ec21el,77,train
59.39221382141113,0,2,4,5,1,3,E+,1,3,5,400,600,250.0,3,c21ec21el,78,train
345.58606147766113,0,2,4,5,1,3,E+,1,2,1,400,600,250.0,2,c21ec21el,79,train
59.22889709472656,0,2,4,5,1,3,E+,1,2,1,400,600,250.0,2,c21ec21el,80,train
187.6239776611328,0,2,4,5,1,3,E+,1,4,2,400,600,250.0,4,c21ec21el,81,train
379.565954208374,0,2,4,5,1,3,E+,1,1,4,400,600,250.0,1,c21ec21el,82,train
0.11801719665527344,0,2,4,5,1,3,E+,1,1,4,400,600,250.0,1,c21ec21el,83,train
185.93716621398926,0,2,4,5,1,3,E+,1,0,0,400,600,250.0,0,c21ec21el,84,train
267.8229808807373,0,2,4,5,1,3,E+,1,2,1,400,600,250.0,2,c21ec21el,85,train
139.62602615356445,0,2,4,5,1,3,E+,1,2,1,400,600,250.0,2,c21ec21el,86,train
267.4098014831543,0,2,4,5,1,3,E+,0,4,2,400,600,250.0,3,c21ec21el,87,train
634.9029541015625,0,2,4,5,1,3,E+,1,3,5,400,600,250.0,3,c21ec21el,88,train
697.9629993438721,0,2,4,5,1,3,E+,1,2,1,400,600,250.0,2,c21ec21el,89,train
139.58501815795898,0,2,4,5,1,3,E+,1,4,2,400,600,250.0,4,c21ec21el,90,train
331.9060802459717,0,2,4,5,1,3,E+,1,2,1,400,600,250.0,2,c21ec21el,91,train
107.47289657592773,0,2,4,5,1,3,E+,1,1,4,400,600,250.0,1,c21ec21el,92,train
282.8259468078613,0,2,4,5,1,3,E+,1,5,3,400,600,250.0,5,c21ec21el,93,train
411.7729663848877,0,2,4,5,1,3,E+,1,1,4,400,600,250.0,1,c21ec21el,94,train
171.84185981750488,0,2,4,5,1,3,E+,0,3,5,400,600,250.0,2,c21ec21el,95,train
75.54411888122559,0,2,4,5,1,3,E+,1,3,5,400,600,250.0,3,c21ec21el,96,train
171.68188095092773,0,2,4,5,1,3,E+,1,1,4,400,600,250.0,1,c21ec21el,97,train
91.73393249511719,0,2,4,5,1,3,E+,1,1,4,400,600,250.0,1,c21ec21el,98,train
108.29997062683105,0,2,4,5,1,3,E+,0,2,1,400,600,250.0,3,c21ec21el,99,train
203.6271095275879,0,2,4,5,1,3,E+,1,4,2,400,600,250.0,4,c21ec21el,100,train
28.483867645263672,0,2,4,5,1,3,E+,1,4,2,400,600,250.0,4,c21ec21el,101,train
187.8371238708496,0,2,4,5,1,3,E+,1,5,3,400,600,250.0,5,c21ec21el,102,train
107.85198211669922,0,2,4,5,1,3,E+,1,4,2,400,600,250.0,4,c21ec21el,103,train
28.378009796142578,0,2,4,5,1,3,E+,1,4,2,400,600,250.0,4,c21ec21el,104,train
26.951074600219727,0,2,4,5,1,3,E+,1,4,2,400,600,250.0,4,c21ec21el,105,train
75.73604583740234,0,2,4,5,1,3,E+,1,5,3,400,600,250.0,5,c21ec21el,106,train
219.21515464782715,0,2,4,5,1,3,E+,0,0,0,400,600,250.0,2,c21ec21el,107,train
139.35613632202148,0,2,4,5,1,3,E+,1,1,4,400,600,250.0,1,c21ec21el,108,train
171.80204391479492,0,2,4,5,1,3,E+,1,5,3,400,600,250.0,5,c21ec21el,109,train
11.805057525634766,0,2,4,5,1,3,E+,1,4,2,400,600,250.0,4,c21ec21el,110,train
203.78398895263672,0,2,4,5,1,3,E+,1,2,1,400,600,250.0,2,c21ec21el,111,train
75.66189765930176,0,2,4,5,1,3,E+,1,2,1,400,600,250.0,2,c21ec21el,112,train
441.37096405029297,0,2,4,5,1,3,E+,1,1,4,400,600,250.0,1,c21ec21el,113,train
267.5440311431885,0,2,4,5,1,3,E+,1,2,1,400,600,250.0,2,c21ec21el,114,train
124.77397918701172,0,2,4,5,1,3,E+,1,1,4,400,600,250.0,1,c21ec21el,115,train
43.81990432739258,0,2,4,5,1,3,E+,1,1,4,400,600,250.0,1,c21ec21el,116,train
26.79586410522461,0,2,4,5,1,3,E+,1,1,4,400,600,250.0,1,c21ec21el,117,train
0.11396408081054688,0,2,4,5,1,3,E+,1,2,1,400,600,250.0,2,c21ec21el,118,train
715.8639430999756,0,2,4,5,1,3,E+,1,3,5,400,600,250.0,3,c21ec21el,119,train
235.8870506286621,0,2,4,5,1,3,E+,1,5,3,400,600,250.0,5,c21ec21el,120,train
827.6939392089844,0,2,4,5,1,3,E+,1,2,1,400,600,250.0,2,c21ec21el,121,train
299.8490333557129,0,2,4,5,1,3,E+,1,5,3,400,600,250.0,5,c21ec21el,122,train
315.66500663757324,0,2,4,5,1,3,E+,1,1,4,400,600,250.0,1,c21ec21el,123,train
169.5411205291748,0,2,4,5,1,3,E+,1,0,0,400,600,250.0,0,c21ec21el,124,train
987.7080917358398,0,2,4,5,1,3,E+,1,3,5,400,600,250.0,3,c21ec21el,125,train
379.69303131103516,0,2,4,5,1,3,E+,1,4,2,400,600,250.0,4,c21ec21el,126,train
395.6270217895508,0,2,4,5,1,3,E+,1,0,0,400,600,250.0,0,c21ec21el,127,train
539.647102355957,0,2,4,5,1,3,E+,0,0,0,400,600,250.0,2,c21ec21el,128,train
762.4249458312988,0,2,4,5,1,3,E+,1,3,5,400,600,250.0,3,c21ec21el,129,train
251.7380714416504,0,2,4,5,1,3,E+,1,0,0,400,600,250.0,0,c21ec21el,130,train
443.71604919433594,0,2,4,5,1,3,E+,1,2,1,400,600,250.0,2,c21ec21el,131,train
123.7800121307373,0,2,4,5,1,3,E+,1,1,4,400,600,250.0,1,c21ec21el,132,train
75.70099830627441,0,2,4,5,1,3,E+,1,2,1,400,600,250.0,2,c21ec21el,133,train
235.43095588684082,0,2,4,5,1,3,E+,1,3,5,400,600,250.0,3,c21ec21el,134,train
235.8419895172119,0,2,4,5,1,3,E+,1,0,0,400,600,250.0,0,c21ec21el,135,train
235.61501502990723,0,2,4,5,1,3,E+,1,5,3,400,600,250.0,5,c21ec21el,136,train
203.6149501800537,0,2,4,5,1,3,E+,1,5,3,400,600,250.0,5,c21ec21el,137,train
331.82501792907715,0,2,4,5,1,3,E+,1,4,2,400,600,250.0,4,c21ec21el,138,train
233.54291915893555,0,2,4,5,1,3,E+,0,3,5,400,600,250.0,4,c21ec21el,139,train
251.6169548034668,0,2,4,5,1,3,E+,1,5,3,400,600,250.0,5,c21ec21el,140,train
491.7168617248535,0,2,4,5,1,3,E+,1,1,4,400,600,250.0,1,c21ec21el,141,train
140.3799057006836,0,2,4,5,1,3,E+,1,0,0,400,600,250.0,0,c21ec21el,142,train
282.85908699035645,0,2,4,5,1,3,E+,1,2,1,400,600,250.0,2,c21ec21el,143,train
219.63882446289062,0,2,4,5,1,3,E+,1,1,4,400,600,250.0,1,c21ec21el,144,train
187.72292137145996,0,2,4,5,1,3,E+,1,2,1,400,600,250.0,2,c21ec21el,145,train
27.823925018310547,0,2,4,5,1,3,E+,1,2,1,400,600,250.0,2,c21ec21el,146,train
75.73294639587402,0,2,4,5,1,3,E+,1,1,4,400,600,250.0,1,c21ec21el,147,train
155.40385246276855,0,2,4,5,1,3,E+,1,5,3,400,600,250.0,5,c21ec21el,148,train
315.4280185699463,0,2,4,5,1,3,E+,1,0,0,400,600,250.0,0,c21ec21el,149,train
187.59512901306152,0,2,4,5,1,3,E+,0,4,2,400,600,250.0,5,c21ec21el,150,train
763.8731002807617,0,2,4,5,1,3,E+,1,2,1,400,600,250.0,2,c21ec21el,151,train
1003.5641193389893,0,2,4,5,1,3,E+,1,0,0,400,600,250.0,0,c21ec21el,152,train
107.61785507202148,0,2,4,5,1,3,E+,1,0,0,400,600,250.0,0,c21ec21el,153,train
315.2451515197754,0,2,4,5,1,3,E+,1,3,5,400,600,250.0,3,c21ec21el,154,train
123.75998497009277,0,2,4,5,1,3,E+,1,5,3,400,600,250.0,5,c21ec21el,155,train
171.6759204864502,0,2,4,5,1,3,E+,1,5,3,400,600,250.0,5,c21ec21el,156,train
283.69903564453125,0,2,4,5,1,3,E+,1,3,5,400,600,250.0,3,c21ec21el,157,train
155.89594841003418,0,2,4,5,1,3,E+,1,5,3,400,600,250.0,5,c21ec21el,158,train
43.66493225097656,0,2,4,5,1,3,E+,1,3,5,400,600,250.0,3,c21ec21el,159,train
107.62286186218262,0,2,4,5,1,3,E+,1,5,3,400,600,250.0,5,c21ec21el,160,train
233.35719108581543,0,2,4,5,1,3,E+,1,0,0,400,600,250.0,0,c21ec21el,161,train
187.75391578674316,0,2,4,5,1,3,E+,1,5,3,400,600,250.0,5,c21ec21el,162,train
284.03186798095703,0,2,4,5,1,3,E+,1,0,0,400,600,250.0,0,c21ec21el,163,train
91.69578552246094,0,2,4,5,1,3,E+,1,0,0,400,600,250.0,0,c21ec21el,164,train
187.8490447998047,0,2,4,5,1,3,E+,1,1,4,400,600,250.0,1,c21ec21el,165,train
155.63297271728516,0,2,4,5,1,3,E+,1,5,3,400,600,250.0,5,c21ec21el,166,train
235.80408096313477,0,2,4,5,1,3,E+,1,0,0,400,600,250.0,0,c21ec21el,167,train
347.75686264038086,0,2,4,5,1,3,E+,1,3,5,400,600,250.0,3,c21ec21el,168,train
188.0509853363037,0,2,4,5,1,3,E+,1,4,2,400,600,250.0,4,c21ec21el,169,train
137.31002807617188,0,2,4,5,1,3,E+,1,0,0,400,600,250.0,0,c21ec21el,170,train
0.11396408081054688,0,2,4,5,1,3,E+,1,0,0,400,600,250.0,0,c21ec21el,171,train
187.35504150390625,0,2,4,5,1,3,E+,0,2,1,400,600,250.0,1,c21ec21el,172,train
283.7190628051758,0,2,4,5,1,3,E+,0,4,2,400,600,250.0,3,c21ec21el,173,train
587.587833404541,0,2,4,5,1,3,E+,1,3,5,400,600,250.0,3,c21ec21el,174,train
297.4259853363037,0,2,4,5,1,3,E+,1,0,0,400,600,250.0,0,c21ec21el,175,train
219.7120189666748,0,2,4,5,1,3,E+,1,5,3,400,600,250.0,5,c21ec21el,176,train
459.69200134277344,0,2,4,5,1,3,E+,1,0,0,400,600,250.0,0,c21ec21el,177,train
315.7989978790283,0,2,4,5,1,3,E+,1,5,3,400,600,250.0,5,c21ec21el,178,train
859.9209785461426,0,2,4,5,1,3,E+,1,0,0,400,600,250.0,0,c21ec21el,179,train
43.65992546081543,0,2,4,5,1,3,E+,1,0,0,400,600,250.0,0,c21ec21el,180,train
251.91497802734375,0,2,4,5,1,3,E+,1,2,1,400,600,250.0,2,c21ec21el,181,train
187.12806701660156,0,2,4,5,1,3,E+,1,1,4,400,600,250.0,1,c21ec21el,182,train
91.69507026672363,0,2,4,5,1,3,E+,1,2,1,400,600,250.0,2,c21ec21el,183,train
107.66291618347168,0,2,4,5,1,3,E+,1,5,3,400,600,250.0,5,c21ec21el,184,train
251.15418434143066,0,2,4,5,1,3,E+,1,3,5,400,600,250.0,3,c21ec21el,185,train
75.48904418945312,0,2,4,5,1,3,E+,1,1,4,400,600,250.0,1,c21ec21el,186,train
75.74892044067383,0,2,4,5,1,3,E+,1,2,1,400,600,250.0,2,c21ec21el,187,train
43.84493827819824,0,2,4,5,1,3,E+,1,2,1,400,600,250.0,2,c21ec21el,188,train
187.6058578491211,0,2,4,5,1,3,E+,1,0,0,400,600,250.0,0,c21ec21el,189,train
331.48717880249023,0,2,4,5,1,3,E+,1,4,2,400,600,250.0,4,c21ec21el,190,train
27.148008346557617,0,2,4,5,1,3,E+,1,5,3,400,600,250.0,5,c21ec21el,191,train
107.65719413757324,0,2,4,5,1,3,E+,1,5,3,400,600,250.0,5,c21ec21el,192,train
443.62592697143555,0,2,4,5,1,3,E+,1,1,4,400,600,250.0,1,c21ec21el,193,train
59.65614318847656,0,2,4,5,1,3,E+,1,5,3,400,600,250.0,5,c21ec21el,194,train
251.6629695892334,0,2,4,5,1,3,E+,0,2,1,400,600,250.0,3,c21ec21el,195,train
171.60606384277344,0,2,4,5,1,3,E+,1,2,1,400,600,250.0,2,c21ec21el,196,train
779.6130180358887,0,2,4,5,1,3,E+,1,3,5,400,600,250.0,3,c21ec21el,197,train
219.73109245300293,0,2,4,5,1,3,E+,1,0,0,400,600,250.0,0,c21ec21el,198,train
27.920961380004883,0,2,4,5,1,3,E+,1,0,0,400,600,250.0,0,c21ec21el,199,train
107.72585868835449,0,2,4,5,1,3,E+,1,5,3,400,600,250.0,5,c21ec21el,200,train
331.8181037902832,0,2,4,5,1,3,E+,1,1,4,400,600,250.0,1,c21ec21el,201,train
347.52702713012695,0,2,4,5,1,3,E+,1,3,5,400,600,250.0,3,c21ec21el,202,train
443.41492652893066,0,2,4,5,1,3,E+,1,2,1,400,600,250.0,2,c21ec21el,203,train
91.68314933776855,0,2,4,5,1,3,E+,1,5,3,400,600,250.0,5,c21ec21el,204,train
267.5158977508545,0,2,4,5,1,3,E+,1,2,1,400,600,250.0,2,c21ec21el,205,train
91.43400192260742,0,2,4,5,1,3,E+,1,5,3,400,600,250.0,5,c21ec21el,206,train
187.6840591430664,0,2,4,5,1,3,E+,1,4,2,400,600,250.0,4,c21ec21el,207,train
411.67593002319336,0,2,4,5,1,3,E+,1,3,5,400,600,250.0,3,c21ec21el,208,train
491.6388988494873,0,2,4,5,1,3,E+,1,2,1,400,600,250.0,2,c21ec21el,209,train
315.6890869140625,0,2,4,5,1,3,E+,1,1,4,400,600,250.0,1,c21ec21el,210,train
75.52504539489746,0,2,4,5,1,3,E+,1,1,4,400,600,250.0,1,c21ec21el,211,train
171.46992683410645,0,2,4,5,1,3,E+,1,3,5,400,600,250.0,3,c21ec21el,212,train
91.34721755981445,0,2,4,5,1,3,E+,1,5,3,400,600,250.0,5,c21ec21el,213,train
218.15204620361328,0,2,4,5,1,3,E+,1,2,1,400,600,250.0,2,c21ec21el,214,train
187.1659755706787,0,2,4,5,1,3,E+,1,0,0,400,600,250.0,0,c21ec21el,215,train
219.8648452758789,0,2,4,5,1,3,E+,1,5,3,400,600,250.0,5,c21ec21el,216,train
91.70293807983398,0,2,4,5,1,3,E+,1,4,2,400,600,250.0,4,c21ec21el,217,train
268.84984970092773,0,2,4,5,1,3,E+,1,2,1,400,600,250.0,2,c21ec21el,218,train
187.32786178588867,0,2,4,5,1,3,E+,1,4,2,400,600,250.0,4,c21ec21el,219,train
185.38498878479004,0,2,4,5,1,3,E+,1,4,2,400,600,250.0,4,c21ec21el,220,train
170.90511322021484,0,2,4,5,1,3,E+,1,2,1,400,600,250.0,2,c21ec21el,221,train
203.70793342590332,0,2,4,5,1,3,E+,1,5,3,400,600,250.0,5,c21ec21el,222,train
315.1230812072754,0,2,4,5,1,3,E+,1,1,4,400,600,250.0,1,c21ec21el,223,train
123.68392944335938,0,2,4,5,1,3,E+,1,1,4,400,600,250.0,1,c21ec21el,224,train
91.49694442749023,0,2,4,5,1,3,E+,1,4,2,400,600,250.0,4,c21ec21el,225,train
11.961936950683594,0,2,4,5,1,3,E+,1,4,2,400,600,250.0,4,c21ec21el,226,train
123.83389472961426,0,2,4,5,1,3,E+,1,2,1,400,600,250.0,2,c21ec21el,227,train
155.33804893493652,0,2,4,5,1,3,E+,1,0,0,400,600,250.0,0,c21ec21el,228,train
75.67715644836426,0,2,4,5,1,3,E+,1,1,4,400,600,250.0,1,c21ec21el,229,train
171.3860034942627,0,2,4,5,1,3,E+,1,2,1,400,600,250.0,2,c21ec21el,230,train
11.64102554321289,0,2,4,5,1,3,E+,1,4,2,400,600,250.0,4,c21ec21el,231,train
107.59496688842773,0,2,4,5,1,3,E+,1,3,5,400,600,250.0,3,c21ec21el,232,train
75.63304901123047,0,2,4,5,1,3,E+,1,2,1,400,600,250.0,2,c21ec21el,233,train
203.5231590270996,0,2,4,5,1,3,E+,1,5,3,400,600,250.0,5,c21ec21el,234,train
299.7879981994629,0,2,4,5,1,3,E+,1,0,0,400,600,250.0,0,c21ec21el,235,train
155.18498420715332,0,2,4,5,1,3,E+,1,1,4,400,600,250.0,1,c21ec21el,236,train
138.22197914123535,0,2,4,5,1,3,E+,1,5,3,400,600,250.0,5,c21ec21el,237,train
140.65194129943848,0,2,4,5,1,3,E+,1,2,1,400,600,250.0,2,c21ec21el,238,train
91.79401397705078,0,2,4,5,1,3,E+,0,0,0,400,600,250.0,2,c21ec21el,239,train
619.7230815887451,0,2,4,5,1,3,E+,1,1,4,400,600,250.0,1,c21ec21el,240,train
187.98112869262695,0,2,4,5,1,3,E+,1,4,2,400,600,250.0,4,c21ec21el,241,train
251.7261505126953,0,2,4,5,1,3,E+,1,3,5,400,600,250.0,3,c21ec21el,242,train
779.5050144195557,0,2,4,5,1,3,E+,1,1,4,400,600,250.0,1,c21ec21el,243,train
91.67790412902832,0,2,4,5,1,3,E+,1,1,4,400,600,250.0,1,c21ec21el,244,train
171.20122909545898,0,2,4,5,1,3,E+,1,0,0,400,600,250.0,0,c21ec21el,245,train
91.66312217712402,0,2,4,5,1,3,E+,1,4,2,400,600,250.0,4,c21ec21el,246,train
0.10704994201660156,0,2,4,5,1,3,E+,1,5,3,400,600,250.0,5,c21ec21el,247,train
491.6360378265381,0,2,4,5,1,3,E+,1,1,4,400,600,250.0,1,c21ec21el,248,train
43.00403594970703,0,2,4,5,1,3,E+,1,4,2,400,600,250.0,4,c21ec21el,249,train
2369.633913040161,0,2,4,5,1,3,E+,1,4,2,0,1000,250.0,4,c21ec21el,250,test
2625.7858276367188,0,2,4,5,1,3,E+,0,3,5,0,1000,250.0,4,c21ec21el,251,test
2785.5849266052246,0,2,4,5,1,3,E+,1,1,4,0,1000,250.0,1,c21ec21el,252,test
3665.127992630005,0,2,4,5,1,3,E+,1,2,1,0,1000,250.0,2,c21ec21el,253,test
1505.7549476623535,0,2,4,5,1,3,E+,1,3,5,0,1000,250.0,3,c21ec21el,254,test
1281.6078662872314,0,2,4,5,1,3,E+,1,3,5,0,1000,250.0,3,c21ec21el,255,test
1089.3840789794922,0,2,4,5,1,3,E+,1,4,2,0,1000,250.0,4,c21ec21el,256,test
993.6089515686035,0,2,4,5,1,3,E+,1,2,1,0,1000,250.0,2,c21ec21el,257,test
1521.5530395507812,0,2,4,5,1,3,E+,1,4,2,0,1000,250.0,4,c21ec21el,258,test
753.1030178070068,0,2,4,5,1,3,E+,0,2,1,0,1000,250.0,3,c21ec21el,259,test
3265.1829719543457,0,2,4,5,1,3,E+,1,1,4,0,1000,250.0,1,c21ec21el,260,test
625.58913230896,0,2,4,5,1,3,E+,1,1,4,0,1000,250.0,1,c21ec21el,261,test
465.59906005859375,0,2,4,5,1,3,E+,1,1,4,0,1000,250.0,1,c21ec21el,262,test
1057.4800968170166,0,2,4,5,1,3,E+,1,2,1,0,1000,250.0,2,c21ec21el,263,test
1265.2671337127686,0,2,4,5,1,3,E+,1,5,3,0,1000,250.0,5,c21ec21el,264,test
1121.6278076171875,0,2,4,5,1,3,E+,1,3,5,0,1000,250.0,3,c21ec21el,265,test
641.1020755767822,0,2,4,5,1,3,E+,1,4,2,0,1000,250.0,4,c21ec21el,266,test
1457.676887512207,0,2,4,5,1,3,E+,1,0,0,0,1000,250.0,0,c21ec21el,267,test
2321.619987487793,0,2,4,5,1,3,E+,1,3,5,0,1000,250.0,3,c21ec21el,268,test
641.4690017700195,0,2,4,5,1,3,E+,1,3,5,0,1000,250.0,3,c21ec21el,269,test
817.5709247589111,0,2,4,5,1,3,E+,1,5,3,0,1000,250.0,5,c21ec21el,270,test
881.5510272979736,0,2,4,5,1,3,E+,1,0,0,0,1000,250.0,0,c21ec21el,271,test
752.1190643310547,0,2,4,5,1,3,E+,1,2,1,0,1000,250.0,2,c21ec21el,272,test
753.6180019378662,0,2,4,5,1,3,E+,1,1,4,0,1000,250.0,1,c21ec21el,273,test
625.5419254302979,0,2,4,5,1,3,E+,1,2,1,0,1000,250.0,2,c21ec21el,274,test
449.56088066101074,0,2,4,5,1,3,E+,1,2,1,0,1000,250.0,2,c21ec21el,275,test
1297.7280616760254,0,2,4,5,1,3,E+,1,0,0,0,1000,250.0,0,c21ec21el,276,test
625.6868839263916,0,2,4,5,1,3,E+,1,2,1,0,1000,250.0,2,c21ec21el,277,test
689.378023147583,0,2,4,5,1,3,E+,1,5,3,0,1000,250.0,5,c21ec21el,278,test
609.4839572906494,0,2,4,5,1,3,E+,1,2,1,0,1000,250.0,2,c21ec21el,279,test
1937.1850490570068,0,2,4,5,1,3,E+,1,4,2,0,1000,250.0,4,c21ec21el,280,test
625.6091594696045,0,2,4,5,1,3,E+,1,5,3,0,1000,250.0,5,c21ec21el,281,test
769.0408229827881,0,2,4,5,1,3,E+,1,3,5,0,1000,250.0,3,c21ec21el,282,test
497.5621700286865,0,2,4,5,1,3,E+,1,3,5,0,1000,250.0,3,c21ec21el,283,test
641.6590213775635,0,2,4,5,1,3,E+,1,4,2,0,1000,250.0,4,c21ec21el,284,test
817.1648979187012,0,2,4,5,1,3,E+,1,0,0,0,1000,250.0,0,c21ec21el,285,test
865.0939464569092,0,2,4,5,1,3,E+,1,3,5,0,1000,250.0,3,c21ec21el,286,test
561.9790554046631,0,2,4,5,1,3,E+,1,5,3,0,1000,250.0,5,c21ec21el,287,test
1297.0750331878662,0,2,4,5,1,3,E+,1,3,5,0,1000,250.0,3,c21ec21el,288,test
897.4709510803223,0,2,4,5,1,3,E+,1,0,0,0,1000,250.0,0,c21ec21el,289,test
1201.483964920044,0,2,4,5,1,3,E+,1,1,4,0,1000,250.0,1,c21ec21el,290,test
577.2039890289307,0,2,4,5,1,3,E+,1,1,4,0,1000,250.0,1,c21ec21el,291,test
641.6189670562744,0,2,4,5,1,3,E+,0,4,2,0,1000,250.0,3,c21ec21el,292,test
801.5890121459961,0,2,4,5,1,3,E+,1,3,5,0,1000,250.0,3,c21ec21el,293,test
736.8121147155762,0,2,4,5,1,3,E+,1,0,0,0,1000,250.0,0,c21ec21el,294,test
753.1728744506836,0,2,4,5,1,3,E+,1,4,2,0,1000,250.0,4,c21ec21el,295,test
897.5100517272949,0,2,4,5,1,3,E+,1,0,0,0,1000,250.0,0,c21ec21el,296,test
545.525074005127,0,2,4,5,1,3,E+,1,0,0,0,1000,250.0,0,c21ec21el,297,test
689.3570423126221,0,2,4,5,1,3,E+,1,3,5,0,1000,250.0,3,c21ec21el,298,test
737.6799583435059,0,2,4,5,1,3,E+,1,2,1,0,1000,250.0,2,c21ec21el,299,test
705.1351070404053,0,2,4,5,1,3,E+,1,3,5,0,1000,250.0,3,c21ec21el,300,test
721.6408252716064,0,2,4,5,1,3,E+,1,2,1,0,1000,250.0,2,c21ec21el,301,test
881.5979957580566,0,2,4,5,1,3,E+,1,1,4,0,1000,250.0,1,c21ec21el,302,test
721.6281890869141,0,2,4,5,1,3,E+,1,2,1,0,1000,250.0,2,c21ec21el,303,test
737.4370098114014,0,2,4,5,1,3,E+,1,3,5,0,1000,250.0,3,c21ec21el,304,test
609.6129417419434,0,2,4,5,1,3,E+,1,3,5,0,1000,250.0,3,c21ec21el,305,test
689.3689632415771,0,2,4,5,1,3,E+,1,0,0,0,1000,250.0,0,c21ec21el,306,test
609.591007232666,0,2,4,5,1,3,E+,1,1,4,0,1000,250.0,1,c21ec21el,307,test
593.5978889465332,0,2,4,5,1,3,E+,0,4,2,0,1000,250.0,3,c21ec21el,308,test
833.561897277832,0,2,4,5,1,3,E+,1,4,2,0,1000,250.0,4,c21ec21el,309,test
593.6150550842285,0,2,4,5,1,3,E+,1,5,3,0,1000,250.0,5,c21ec21el,310,test
977.6060581207275,0,2,4,5,1,3,E+,1,1,4,0,1000,250.0,1,c21ec21el,311,test
849.0760326385498,0,2,4,5,1,3,E+,1,1,4,0,1000,250.0,1,c21ec21el,312,test
433.5179328918457,0,2,4,5,1,3,E+,1,1,4,0,1000,250.0,1,c21ec21el,313,test
785.5298519134521,0,2,4,5,1,3,E+,1,4,2,0,1000,250.0,4,c21ec21el,314,test
609.5728874206543,0,2,4,5,1,3,E+,0,1,4,0,1000,250.0,4,c21ec21el,315,test
497.3769187927246,0,2,4,5,1,3,E+,1,1,4,0,1000,250.0,1,c21ec21el,316,test
785.5429649353027,0,2,4,5,1,3,E+,1,4,2,0,1000,250.0,4,c21ec21el,317,test
625.1490116119385,0,2,4,5,1,3,E+,1,5,3,0,1000,250.0,5,c21ec21el,318,test
833.5530757904053,0,2,4,5,1,3,E+,0,3,5,0,1000,250.0,4,c21ec21el,319,test
1329.6420574188232,0,2,4,5,1,3,E+,1,2,1,0,1000,250.0,2,c21ec21el,320,test
993.3550357818604,0,2,4,5,1,3,E+,0,3,5,0,1000,250.0,4,c21ec21el,321,test
881.2611103057861,0,2,4,5,1,3,E+,1,2,1,0,1000,250.0,2,c21ec21el,322,test
513.4620666503906,0,2,4,5,1,3,E+,1,2,1,0,1000,250.0,2,c21ec21el,323,test
577.4939060211182,0,2,4,5,1,3,E+,1,5,3,0,1000,250.0,5,c21ec21el,324,test
657.6719284057617,0,2,4,5,1,3,E+,0,4,2,0,1000,250.0,5,c21ec21el,325,test
737.6430034637451,0,2,4,5,1,3,E+,1,1,4,0,1000,250.0,1,c21ec21el,326,test
624.6421337127686,0,2,4,5,1,3,E+,1,5,3,0,1000,250.0,5,c21ec21el,327,test
657.5748920440674,0,2,4,5,1,3,E+,0,3,5,0,1000,250.0,4,c21ec21el,328,test
737.2078895568848,0,2,4,5,1,3,E+,1,1,4,0,1000,250.0,1,c21ec21el,329,test
657.3770046234131,0,2,4,5,1,3,E+,1,2,1,0,1000,250.0,2,c21ec21el,330,test
609.5991134643555,0,2,4,5,1,3,E+,1,1,4,0,1000,250.0,1,c21ec21el,331,test
1857.1090698242188,0,2,4,5,1,3,E+,1,4,2,0,1000,250.0,4,c21ec21el,332,test
881.1421394348145,0,2,4,5,1,3,E+,1,0,0,0,1000,250.0,0,c21ec21el,333,test
1281.6059589385986,0,2,4,5,1,3,E+,1,3,5,0,1000,250.0,3,c21ec21el,334,test
657.526969909668,0,2,4,5,1,3,E+,1,1,4,0,1000,250.0,1,c21ec21el,335,test
593.5900211334229,0,2,4,5,1,3,E+,1,5,3,0,1000,250.0,5,c21ec21el,336,test
673.7039089202881,0,2,4,5,1,3,E+,1,2,1,0,1000,250.0,2,c21ec21el,337,test
641.4930820465088,0,2,4,5,1,3,E+,1,1,4,0,1000,250.0,1,c21ec21el,338,test
513.383150100708,0,2,4,5,1,3,E+,1,1,4,0,1000,250.0,1,c21ec21el,339,test
401.3400077819824,0,2,4,5,1,3,E+,1,1,4,0,1000,250.0,1,c21ec21el,340,test
433.5670471191406,0,2,4,5,1,3,E+,1,1,4,0,1000,250.0,1,c21ec21el,341,test
561.5530014038086,0,2,4,5,1,3,E+,1,5,3,0,1000,250.0,5,c21ec21el,342,test
849.6830463409424,0,2,4,5,1,3,E+,1,3,5,0,1000,250.0,3,c21ec21el,343,test
673.6600399017334,0,2,4,5,1,3,E+,1,1,4,0,1000,250.0,1,c21ec21el,344,test
753.6430358886719,0,2,4,5,1,3,E+,1,3,5,0,1000,250.0,3,c21ec21el,345,test
817.6171779632568,0,2,4,5,1,3,E+,1,4,2,0,1000,250.0,4,c21ec21el,346,test
721.6620445251465,0,2,4,5,1,3,E+,1,2,1,0,1000,250.0,2,c21ec21el,347,test
577.4059295654297,0,2,4,5,1,3,E+,1,1,4,0,1000,250.0,1,c21ec21el,348,test
769.4950103759766,0,2,4,5,1,3,E+,1,0,0,0,1000,250.0,0,c21ec21el,349,test
721.5940952301025,0,2,4,5,1,3,E+,1,2,1,0,1000,250.0,2,c21ec21el,350,test
513.1838321685791,0,2,4,5,1,3,E+,1,2,1,0,1000,250.0,2,c21ec21el,351,test
1442.289113998413,0,2,4,5,1,3,E+,1,3,5,0,1000,250.0,3,c21ec21el,352,test
528.5937786102295,0,2,4,5,1,3,E+,1,3,5,0,1000,250.0,3,c21ec21el,353,test
609.656810760498,0,2,4,5,1,3,E+,1,2,1,0,1000,250.0,2,c21ec21el,354,test
1489.8769855499268,0,2,4,5,1,3,E+,1,3,5,0,1000,250.0,3,c21ec21el,355,test
481.7039966583252,0,2,4,5,1,3,E+,1,3,5,0,1000,250.0,3,c21ec21el,356,test
1025.5930423736572,0,2,4,5,1,3,E+,1,3,5,0,1000,250.0,3,c21ec21el,357,test
625.5109310150146,0,2,4,5,1,3,E+,1,5,3,0,1000,250.0,5,c21ec21el,358,test
897.6819515228271,0,2,4,5,1,3,E+,1,3,5,0,1000,250.0,3,c21ec21el,359,test
593.6558246612549,0,2,4,5,1,3,E+,1,5,3,0,1000,250.0,5,c21ec21el,360,test
385.591983795166,0,2,4,5,1,3,E+,1,5,3,0,1000,250.0,5,c21ec21el,361,test
1281.6081047058105,0,2,4,5,1,3,E+,1,4,2,0,1000,250.0,4,c21ec21el,362,test
608.9949607849121,0,2,4,5,1,3,E+,1,2,1,0,1000,250.0,2,c21ec21el,363,test
737.083911895752,0,2,4,5,1,3,E+,1,4,2,0,1000,250.0,4,c21ec21el,364,test
592.6599502563477,0,2,4,5,1,3,E+,1,2,1,0,1000,250.0,2,c21ec21el,365,test
577.5730609893799,0,2,4,5,1,3,E+,1,3,5,0,1000,250.0,3,c21ec21el,366,test
593.4929847717285,0,2,4,5,1,3,E+,1,5,3,0,1000,250.0,5,c21ec21el,367,test
801.3949394226074,0,2,4,5,1,3,E+,1,4,2,0,1000,250.0,4,c21ec21el,368,test
561.4399909973145,0,2,4,5,1,3,E+,1,5,3,0,1000,250.0,5,c21ec21el,369,test
593.376874923706,0,2,4,5,1,3,E+,1,2,1,0,1000,250.0,2,c21ec21el,370,test
577.7280330657959,0,2,4,5,1,3,E+,1,1,4,0,1000,250.0,1,c21ec21el,371,test
641.510009765625,0,2,4,5,1,3,E+,1,3,5,0,1000,250.0,3,c21ec21el,372,test
545.1419353485107,0,2,4,5,1,3,E+,1,4,2,0,1000,250.0,4,c21ec21el,373,test
513.6051177978516,0,2,4,5,1,3,E+,1,4,2,0,1000,250.0,4,c21ec21el,374,test
481.4460277557373,0,2,4,5,1,3,E+,1,2,1,0,1000,250.0,2,c21ec21el,375,test
641.5560245513916,0,2,4,5,1,3,E+,1,2,1,0,1000,250.0,2,c21ec21el,376,test
561.6610050201416,0,2,4,5,1,3,E+,0,5,3,0,1000,250.0,4,c21ec21el,377,test
641.7257785797119,0,2,4,5,1,3,E+,1,2,1,0,1000,250.0,2,c21ec21el,378,test
1233.5097789764404,0,2,4,5,1,3,E+,1,5,3,0,1000,250.0,5,c21ec21el,379,test
1249.7429847717285,0,2,4,5,1,3,E+,1,1,4,0,1000,250.0,1,c21ec21el,380,test
529.472827911377,0,2,4,5,1,3,E+,1,4,2,0,1000,250.0,4,c21ec21el,381,test
513.5931968688965,0,2,4,5,1,3,E+,1,4,2,0,1000,250.0,4,c21ec21el,382,test
545.6728935241699,0,2,4,5,1,3,E+,0,1,4,0,1000,250.0,0,c21ec21el,383,test
609.4789505004883,0,2,4,5,1,3,E+,1,4,2,0,1000,250.0,4,c21ec21el,384,test
593.641996383667,0,2,4,5,1,3,E+,1,5,3,0,1000,250.0,5,c21ec21el,385,test
817.6629543304443,0,2,4,5,1,3,E+,0,3,5,0,1000,250.0,4,c21ec21el,386,test
433.67910385131836,0,2,4,5,1,3,E+,1,3,5,0,1000,250.0,3,c21ec21el,387,test
657.6168537139893,0,2,4,5,1,3,E+,1,2,1,0,1000,250.0,2,c21ec21el,388,test
706.575870513916,0,2,4,5,1,3,E+,1,0,0,0,1000,250.0,0,c21ec21el,389,test
593.1050777435303,0,2,4,5,1,3,E+,1,5,3,0,1000,250.0,5,c21ec21el,390,test
641.5741443634033,0,2,4,5,1,3,E+,1,2,1,0,1000,250.0,2,c21ec21el,391,test
705.6839466094971,0,2,4,5,1,3,E+,1,1,4,0,1000,250.0,1,c21ec21el,392,test
609.7180843353271,0,2,4,5,1,3,E+,1,2,1,0,1000,250.0,2,c21ec21el,393,test
609.5471382141113,0,2,4,5,1,3,E+,1,5,3,0,1000,250.0,5,c21ec21el,394,test
593.6141014099121,0,2,4,5,1,3,E+,1,0,0,0,1000,250.0,0,c21ec21el,395,test
529.6978950500488,0,2,4,5,1,3,E+,1,2,1,0,1000,250.0,2,c21ec21el,396,test
465.55113792419434,0,2,4,5,1,3,E+,1,5,3,0,1000,250.0,5,c21ec21el,397,test
737.421989440918,0,2,4,5,1,3,E+,0,3,5,0,1000,250.0,4,c21ec21el,398,test
593.5409069061279,0,2,4,5,1,3,E+,1,3,5,0,1000,250.0,3,c21ec21el,399,test
561.614990234375,0,2,4,5,1,3,E+,1,5,3,0,1000,250.0,5,c21ec21el,400,test
721.6219902038574,0,2,4,5,1,3,E+,1,3,5,0,1000,250.0,3,c21ec21el,401,test
673.6729145050049,0,2,4,5,1,3,E+,1,1,4,0,1000,250.0,1,c21ec21el,402,test
913.3648872375488,0,2,4,5,1,3,E+,1,4,2,0,1000,250.0,4,c21ec21el,403,test
513.5958194732666,0,2,4,5,1,3,E+,1,2,1,0,1000,250.0,2,c21ec21el,404,test
592.9839611053467,0,2,4,5,1,3,E+,1,4,2,0,1000,250.0,4,c21ec21el,405,test
609.6889972686768,0,2,4,5,1,3,E+,1,3,5,0,1000,250.0,3,c21ec21el,406,test
593.4929847717285,0,2,4,5,1,3,E+,1,5,3,0,1000,250.0,5,c21ec21el,407,test
513.5369300842285,0,2,4,5,1,3,E+,0,4,2,0,1000,250.0,3,c21ec21el,408,test
545.6640720367432,0,2,4,5,1,3,E+,1,4,2,0,1000,250.0,4,c21ec21el,409,test
881.55198097229,0,2,4,5,1,3,E+,1,5,3,0,1000,250.0,5,c21ec21el,410,test
737.591028213501,0,2,4,5,1,3,E+,1,0,0,0,1000,250.0,0,c21ec21el,411,test
689.5208358764648,0,2,4,5,1,3,E+,1,4,2,0,1000,250.0,4,c21ec21el,412,test
785.5510711669922,0,2,4,5,1,3,E+,1,3,5,0,1000,250.0,3,c21ec21el,413,test
769.8571681976318,0,2,4,5,1,3,E+,1,1,4,0,1000,250.0,1,c21ec21el,414,test
449.5689868927002,0,2,4,5,1,3,E+,1,1,4,0,1000,250.0,1,c21ec21el,415,test
721.5511798858643,0,2,4,5,1,3,E+,1,0,0,0,1000,250.0,0,c21ec21el,416,test
593.4271812438965,0,2,4,5,1,3,E+,1,5,3,0,1000,250.0,5,c21ec21el,417,test
833.6400985717773,0,2,4,5,1,3,E+,1,3,5,0,1000,250.0,3,c21ec21el,418,test
257.6630115509033,0,2,4,5,1,3,E+,0,1,4,0,1000,250.0,3,c21ec21el,419,test
641.6912078857422,0,2,4,5,1,3,E+,1,4,2,0,1000,250.0,4,c21ec21el,420,test
625.5600452423096,0,2,4,5,1,3,E+,1,5,3,0,1000,250.0,5,c21ec21el,421,test
785.2218151092529,0,2,4,5,1,3,E+,1,4,2,0,1000,250.0,4,c21ec21el,422,test
591.1450386047363,0,2,4,5,1,3,E+,0,3,5,0,1000,250.0,1,c21ec21el,423,test
529.5159816741943,0,2,4,5,1,3,E+,1,4,2,0,1000,250.0,4,c21ec21el,424,test
593.5859680175781,0,2,4,5,1,3,E+,1,5,3,0,1000,250.0,5,c21ec21el,425,test
753.5979747772217,0,2,4,5,1,3,E+,1,2,1,0,1000,250.0,2,c21ec21el,426,test
689.6710395812988,0,2,4,5,1,3,E+,1,0,0,0,1000,250.0,0,c21ec21el,427,test
705.5659294128418,0,2,4,5,1,3,E+,0,3,5,0,1000,250.0,4,c21ec21el,428,test
721.6229438781738,0,2,4,5,1,3,E+,1,1,4,0,1000,250.0,1,c21ec21el,429,test
593.6670303344727,0,2,4,5,1,3,E+,1,4,2,0,1000,250.0,4,c21ec21el,430,test
593.5218334197998,0,2,4,5,1,3,E+,1,0,0,0,1000,250.0,0,c21ec21el,431,test
529.5619964599609,0,2,4,5,1,3,E+,1,1,4,0,1000,250.0,1,c21ec21el,432,test
577.5630474090576,0,2,4,5,1,3,E+,1,1,4,0,1000,250.0,1,c21ec21el,433,test
417.5291061401367,0,2,4,5,1,3,E+,0,3,5,0,1000,250.0,4,c21ec21el,434,test
4369.513034820557,0,2,4,5,1,3,E+,1,0,0,0,1000,250.0,0,c21ec21el,435,test
705.5678367614746,0,2,4,5,1,3,E+,0,3,5,0,1000,250.0,0,c21ec21el,436,test
529.5250415802002,0,2,4,5,1,3,E+,1,5,3,0,1000,250.0,5,c21ec21el,437,test
657.4480533599854,0,2,4,5,1,3,E+,1,2,1,0,1000,250.0,2,c21ec21el,438,test
673.6369132995605,0,2,4,5,1,3,E+,1,1,4,0,1000,250.0,1,c21ec21el,439,test
433.330774307251,0,2,4,5,1,3,E+,1,1,4,0,1000,250.0,1,c21ec21el,440,test
1489.2771244049072,0,2,4,5,1,3,E+,1,3,5,0,1000,250.0,3,c21ec21el,441,test
625.485897064209,0,2,4,5,1,3,E+,1,4,2,0,1000,250.0,4,c21ec21el,442,test
513.6148929595947,0,2,4,5,1,3,E+,0,3,5,0,1000,250.0,5,c21ec21el,443,test
1057.2259426116943,0,2,4,5,1,3,E+,1,5,3,0,1000,250.0,5,c21ec21el,444,test
673.6099720001221,0,2,4,5,1,3,E+,1,1,4,0,1000,250.0,1,c21ec21el,445,test
753.209114074707,0,2,4,5,1,3,E+,1,0,0,0,1000,250.0,0,c21ec21el,446,test
801.6560077667236,0,2,4,5,1,3,E+,1,1,4,0,1000,250.0,1,c21ec21el,447,test
561.4140033721924,0,2,4,5,1,3,E+,1,4,2,0,1000,250.0,4,c21ec21el,448,test
673.68483543396,0,2,4,5,1,3,E+,1,0,0,0,1000,250.0,0,c21ec21el,449,test
575.3800868988037,0,2,4,5,1,3,E+,1,1,4,0,1000,250.0,1,c21ec21el,450,test
401.1399745941162,0,2,4,5,1,3,E+,1,1,4,0,1000,250.0,1,c21ec21el,451,test
577.5759220123291,0,2,4,5,1,3,E+,1,4,2,0,1000,250.0,4,c21ec21el,452,test
1025.5680084228516,0,2,4,5,1,3,E+,1,3,5,0,1000,250.0,3,c21ec21el,453,test
833.4310054779053,0,2,4,5,1,3,E+,1,1,4,0,1000,250.0,1,c21ec21el,454,test
577.3520469665527,0,2,4,5,1,3,E+,1,5,3,0,1000,250.0,5,c21ec21el,455,test
545.4070568084717,0,2,4,5,1,3,E+,1,4,2,0,1000,250.0,4,c21ec21el,456,test
577.6000022888184,0,2,4,5,1,3,E+,1,2,1,0,1000,250.0,2,c21ec21el,457,test
511.02304458618164,0,2,4,5,1,3,E+,1,4,2,0,1000,250.0,4,c21ec21el,458,test
449.59402084350586,0,2,4,5,1,3,E+,1,5,3,0,1000,250.0,5,c21ec21el,459,test
657.7010154724121,0,2,4,5,1,3,E+,1,1,4,0,1000,250.0,1,c21ec21el,460,test
593.472957611084,0,2,4,5,1,3,E+,1,1,4,0,1000,250.0,1,c21ec21el,461,test
609.248161315918,0,2,4,5,1,3,E+,1,4,2,0,1000,250.0,4,c21ec21el,462,test
705.6210041046143,0,2,4,5,1,3,E+,1,1,4,0,1000,250.0,1,c21ec21el,463,test
465.4710292816162,0,2,4,5,1,3,E+,1,1,4,0,1000,250.0,1,c21ec21el,464,test
625.5850791931152,0,2,4,5,1,3,E+,1,2,1,0,1000,250.0,2,c21ec21el,465,test
801.4860153198242,0,2,4,5,1,3,E+,1,1,4,0,1000,250.0,1,c21ec21el,466,test
1249.3159770965576,0,2,4,5,1,3,E+,1,3,5,0,1000,250.0,3,c21ec21el,467,test
833.7159156799316,0,2,4,5,1,3,E+,1,0,0,0,1000,250.0,0,c21ec21el,468,test
1009.4730854034424,0,2,4,5,1,3,E+,1,3,5,0,1000,250.0,3,c21ec21el,469,test
593.5690402984619,0,2,4,5,1,3,E+,1,5,3,0,1000,250.0,5,c21ec21el,470,test
689.5079612731934,0,2,4,5,1,3,E+,1,0,0,0,1000,250.0,0,c21ec21el,471,test
945.6908702850342,0,2,4,5,1,3,E+,1,4,2,0,1000,250.0,4,c21ec21el,472,test
625.6618499755859,0,2,4,5,1,3,E+,1,5,3,0,1000,250.0,5,c21ec21el,473,test
865.2698993682861,0,2,4,5,1,3,E+,1,4,2,0,1000,250.0,4,c21ec21el,474,test
385.1349353790283,0,2,4,5,1,3,E+,1,4,2,0,1000,250.0,4,c21ec21el,475,test
512.8848552703857,0,2,4,5,1,3,E+,1,4,2,0,1000,250.0,4,c21ec21el,476,test
609.6251010894775,0,2,4,5,1,3,E+,1,5,3,0,1000,250.0,5,c21ec21el,477,test
753.6389827728271,0,2,4,5,1,3,E+,1,3,5,0,1000,250.0,3,c21ec21el,478,test
817.6779747009277,0,2,4,5,1,3,E+,1,4,2,0,1000,250.0,4,c21ec21el,479,test
641.2560939788818,0,2,4,5,1,3,E+,1,0,0,0,1000,250.0,0,c21ec21el,480,test
529.3798446655273,0,2,4,5,1,3,E+,1,4,2,0,1000,250.0,4,c21ec21el,481,test
961.0991477966309,0,2,4,5,1,3,E+,1,3,5,0,1000,250.0,3,c21ec21el,482,test
543.0030822753906,0,2,4,5,1,3,E+,1,1,4,0,1000,250.0,1,c21ec21el,483,test
577.7130126953125,0,2,4,5,1,3,E+,1,5,3,0,1000,250.0,5,c21ec21el,484,test
433.52794647216797,0,2,4,5,1,3,E+,1,5,3,0,1000,250.0,5,c21ec21el,485,test
689.1958713531494,0,2,4,5,1,3,E+,1,0,0,0,1000,250.0,0,c21ec21el,486,test
689.3789768218994,0,2,4,5,1,3,E+,0,4,2,0,1000,250.0,3,c21ec21el,487,test
689.3389225006104,0,2,4,5,1,3,E+,1,3,5,0,1000,250.0,3,c21ec21el,488,test
673.3200550079346,0,2,4,5,1,3,E+,1,1,4,0,1000,250.0,1,c21ec21el,489,test
544.374942779541,0,2,4,5,1,3,E+,1,4,2,0,1000,250.0,4,c21ec21el,490,test
625.3600120544434,0,2,4,5,1,3,E+,1,1,4,0,1000,250.0,1,c21ec21el,491,test
689.2938613891602,0,2,4,5,1,3,E+,1,3,5,0,1000,250.0,3,c21ec21el,492,test
641.5390968322754,0,2,4,5,1,3,E+,1,3,5,0,1000,250.0,3,c21ec21el,493,test
401.2877941131592,0,2,4,5,1,3,E+,1,3,5,0,1000,250.0,3,c21ec21el,494,test
689.5449161529541,0,2,4,5,1,3,E+,1,5,3,0,1000,250.0,5,c21ec21el,495,test
721.6348648071289,0,2,4,5,1,3,E+,1,1,4,0,1000,250.0,1,c21ec21el,496,test
593.332052230835,0,2,4,5,1,3,E+,1,1,4,0,1000,250.0,1,c21ec21el,497,test
609.1959476470947,0,2,4,5,1,3,E+,0,4,2,0,1000,250.0,3,c21ec21el,498,test
625.3011226654053,0,2,4,5,1,3,E+,1,1,4,0,1000,250.0,1,c21ec21el,499,test
