RT,SRmap_0,SRmap_1,SRmap_2,SRmap_3,SRmap_4,SRmap_5,condition,correct,correct_response,curstim,ms-precue,ms-prestimblank,ntrials,response,subject,trial,type
8015.213966369629,5,4,0,2,1,3,E+,1,1,4,400,600,250.0,1,e03ep,0,train
1471.1360931396484,5,4,0,2,1,3,E+,1,0,2,400,600,250.0,0,e03ep,1,train
1007.2147846221924,5,4,0,2,1,3,E+,1,2,3,400,600,250.0,2,e03ep,2,train
3071.3138580322266,5,4,0,2,1,3,E+,1,4,1,400,600,250.0,4,e03ep,3,train
751.77001953125,5,4,0,2,1,3,E+,1,4,1,400,600,250.0,4,e03ep,4,train
319.66400146484375,5,4,0,2,1,3,E+,1,4,1,400,600,250.0,4,e03ep,5,train
335.85596084594727,5,4,0,2,1,3,E+,1,1,4,400,600,250.0,1,e03ep,6,train
95.76606750488281,5,4,0,2,1,3,E+,1,0,2,400,600,250.0,0,e03ep,7,train
271.87299728393555,5,4,0,2,1,3,E+,1,5,0,400,600,250.0,5,e03ep,8,train
223.81901741027832,5,4,0,2,1,3,E+,0,2,3,400,600,250.0,1,e03ep,9,train
319.81420516967773,5,4,0,2,1,3,E+,1,1,4,400,600,250.0,1,e03ep,10,train
383.8038444519043,5,4,0,2,1,3,E+,1,2,3,400,600,250.0,2,e03ep,11,train
447.6628303527832,5,4,0,2,1,3,E+,1,3,5,400,600,250.0,3,e03ep,12,train
287.8451347351074,5,4,0,2,1,3,E+,1,3,5,400,600,250.0,3,e03ep,13,train
31.89682960510254,5,4,0,2,1,3,E+,1,3,5,400,600,250.0,3,e03ep,14,train
63.46917152404785,5,4,0,2,1,3,E+,1,5,0,400,600,250.0,5,e03ep,15,train
111.4349365234375,5,4,0,2,1,3,E+,1,3,5,400,600,250.0,3,e03ep,16,train
63.37714195251465,5,4,0,2,1,3,E+,1,5,0,400,600,250.0,5,e03ep,17,train
127.3050308227539,5,4,0,2,1,3,E+,1,4,1,400,600,250.0,4,e03ep,18,train
191.25795364379883,5,4,0,2,1,3,E+,1,4,1,400,600,250.0,4,e03ep,19,train
255.38110733032227,5,4,0,2,1,3,E+,1,3,5,400,600,250.0,3,e03ep,20,train
127.26306915283203,5,4,0,2,1,3,E+,1,5,0,400,600,250.0,5,e03ep,21,train
207.37481117248535,5,4,0,2,1,3,E+,0,1,4,400,600,250.0,2,e03ep,22,train
383.3458423614502,5,4,0,2,1,3,E+,1,4,1,400,600,250.0,4,e03ep,23,train
623.1811046600342,5,4,0,2,1,3,E+,1,2,3,400,600,250.0,2,e03ep,24,train
415.1420593261719,5,4,0,2,1,3,E+,1,4,1,400,600,250.0,4,e03ep,25,train
255.3119659423828,5,4,0,2,1,3,E+,1,0,2,400,600,250.0,0,e03ep,26,train
79.38003540039062,5,4,0,2,1,3,E+,1,1,4,400,600,250.0,1,e03ep,27,train
63.44795227050781,5,4,0,2,1,3,E+,1,2,3,400,600,250.0,2,e03ep,28,train
271.1949348449707,5,4,0,2,1,3,E+,1,5,0,400,600,250.0,5,e03ep,29,train
159.3167781829834,5,4,0,2,1,3,E+,0,1,4,400,600,250.0,2,e03ep,30,train
287.2939109802246,5,4,0,2,1,3,E+,1,4,1,400,600,250.0,4,e03ep,31,train
79.43415641784668,5,4,0,2,1,3,E+,1,4,1,400,600,250.0,4,e03ep,32,train
191.3008689880371,5,4,0,2,1,3,E+,1,0,2,400,600,250.0,0,e03ep,33,train
79.46896553039551,5,4,0,2,1,3,E+,1,0,2,400,600,250.0,0,e03ep,34,train
31.40401840209961,5,4,0,2,1,3,E+,1,0,2,400,600,250.0,0,e03ep,35,train
127.40778923034668,5,4,0,2,1,3,E+,1,2,3,400,600,250.0,2,e03ep,36,train
159.3761444091797,5,4,0,2,1,3,E+,1,5,0,400,600,250.0,5,e03ep,37,train
111.35697364807129,5,4,0,2,1,3,E+,1,0,2,400,600,250.0,0,e03ep,38,train
63.37594985961914,5,4,0,2,1,3,E+,1,1,4,400,600,250.0,1,e03ep,39,train
255.0351619720459,5,4,0,2,1,3,E+,0,3,5,400,600,250.0,4,e03ep,40,train
159.33513641357422,5,4,0,2,1,3,E+,1,0,2,400,600,250.0,0,e03ep,41,train
31.383991241455078,5,4,0,2,1,3,E+,1,0,2,400,600,250.0,0,e03ep,42,train
175.0800609588623,5,4,0,2,1,3,E+,1,5,0,400,600,250.0,5,e03ep,43,train
31.430959701538086,5,4,0,2,1,3,E+,1,5,0,400,600,250.0,5,e03ep,44,train
175.34208297729492,5,4,0,2,1,3,E+,1,1,4,400,600,250.0,1,e03ep,45,train
287.7929210662842,5,4,0,2,1,3,E+,1,3,5,400,600,250.0,3,e03ep,46,train
111.92703247070312,5,4,0,2,1,3,E+,1,5,0,400,600,250.0,5,e03ep,47,train
47.9581356048584,5,4,0,2,1,3,E+,1,5,0,400,600,250.0,5,e03ep,48,train
255.84912300109863,5,4,0,2,1,3,E+,1,4,1,400,600,250.0,4,e03ep,49,train
111.8631362915039,5,4,0,2,1,3,E+,1,5,0,400,600,250.0,5,e03ep,50,train
143.87989044189453,5,4,0,2,1,3,E+,1,3,5,400,600,250.0,3,e03ep,51,train
127.9449462890625,5,4,0,2,1,3,E+,1,5,0,400,600,250.0,5,e03ep,52,train
255.92422485351562,5,4,0,2,1,3,E+,1,1,4,400,600,250.0,1,e03ep,53,train
127.89106369018555,5,4,0,2,1,3,E+,1,1,4,400,600,250.0,1,e03ep,54,train
15.843868255615234,5,4,0,2,1,3,E+,1,1,4,400,600,250.0,1,e03ep,55,train
15.952825546264648,5,4,0,2,1,3,E+,1,0,2,400,600,250.0,0,e03ep,56,train
175.46606063842773,5,4,0,2,1,3,E+,1,5,0,400,600,250.0,5,e03ep,57,train
143.34392547607422,5,4,0,2,1,3,E+,1,0,2,400,600,250.0,0,e03ep,58,train
191.32208824157715,5,4,0,2,1,3,E+,1,4,1,400,600,250.0,4,e03ep,59,train
191.3471221923828,5,4,0,2,1,3,E+,1,0,2,400,600,250.0,0,e03ep,60,train
111.32407188415527,5,4,0,2,1,3,E+,1,4,1,400,600,250.0,4,e03ep,61,train
239.39013481140137,5,4,0,2,1,3,E+,1,3,5,400,600,250.0,3,e03ep,62,train
127.3508071899414,5,4,0,2,1,3,E+,1,3,5,400,600,250.0,3,e03ep,63,train
111.2830638885498,5,4,0,2,1,3,E+,1,5,0,400,600,250.0,5,e03ep,64,train
95.35503387451172,5,4,0,2,1,3,E+,0,2,3,400,600,250.0,1,e03ep,65,train
223.37913513183594,5,4,0,2,1,3,E+,1,4,1,400,600,250.0,4,e03ep,66,train
495.40114402770996,5,4,0,2,1,3,E+,1,3,5,400,600,250.0,3,e03ep,67,train
303.32398414611816,5,4,0,2,1,3,E+,1,2,3,400,600,250.0,2,e03ep,68,train
15.424013137817383,5,4,0,2,1,3,E+,1,2,3,400,600,250.0,2,e03ep,69,train
239.33005332946777,5,4,0,2,1,3,E+,1,2,3,400,600,250.0,2,e03ep,70,train
143.28408241271973,5,4,0,2,1,3,E+,1,3,5,400,600,250.0,3,e03ep,71,train
175.33206939697266,5,4,0,2,1,3,E+,1,4,1,400,600,250.0,4,e03ep,72,train
0.051021575927734375,5,4,0,2,1,3,E+,0,1,4,400,600,250.0,2,e03ep,73,train
191.33591651916504,5,4,0,2,1,3,E+,1,2,3,400,600,250.0,2,e03ep,74,train
255.3720474243164,5,4,0,2,1,3,E+,1,5,0,400,600,250.0,5,e03ep,75,train
303.3490180969238,5,4,0,2,1,3,E+,1,2,3,400,600,250.0,2,e03ep,76,train
31.449079513549805,5,4,0,2,1,3,E+,1,2,3,400,600,250.0,2,e03ep,77,train
207.37314224243164,5,4,0,2,1,3,E+,1,0,2,400,600,250.0,0,e03ep,78,train
159.26599502563477,5,4,0,2,1,3,E+,1,0,2,400,600,250.0,0,e03ep,79,train
239.3209934234619,5,4,0,2,1,3,E+,1,2,3,400,600,250.0,2,e03ep,80,train
95.37887573242188,5,4,0,2,1,3,E+,1,1,4,400,600,250.0,1,e03ep,81,train
143.37801933288574,5,4,0,2,1,3,E+,1,5,0,400,600,250.0,5,e03ep,82,train
159.32083129882812,5,4,0,2,1,3,E+,1,1,4,400,600,250.0,1,e03ep,83,train
63.47393989562988,5,4,0,2,1,3,E+,1,1,4,400,600,250.0,1,e03ep,84,train
79.4520378112793,5,4,0,2,1,3,E+,0,5,0,400,600,250.0,2,e03ep,85,train
239.36986923217773,5,4,0,2,1,3,E+,1,4,1,400,600,250.0,4,e03ep,86,train
127.35915184020996,5,4,0,2,1,3,E+,1,5,0,400,600,250.0,5,e03ep,87,train
159.3639850616455,5,4,0,2,1,3,E+,1,0,2,400,600,250.0,0,e03ep,88,train
287.106990814209,5,4,0,2,1,3,E+,1,4,1,400,600,250.0,4,e03ep,89,train
15.959978103637695,5,4,0,2,1,3,E+,1,0,2,400,600,250.0,0,e03ep,90,train
79.8799991607666,5,4,0,2,1,3,E+,0,3,5,400,600,250.0,4,e03ep,91,train
159.90185737609863,5,4,0,2,1,3,E+,1,4,1,400,600,250.0,4,e03ep,92,train
47.89996147155762,5,4,0,2,1,3,E+,1,4,1,400,600,250.0,4,e03ep,93,train
143.38016510009766,5,4,0,2,1,3,E+,1,1,4,400,600,250.0,1,e03ep,94,train
47.41215705871582,5,4,0,2,1,3,E+,1,1,4,400,600,250.0,1,e03ep,95,train
143.40901374816895,5,4,0,2,1,3,E+,1,5,0,400,600,250.0,5,e03ep,96,train
0.05602836608886719,5,4,0,2,1,3,E+,1,5,0,400,600,250.0,5,e03ep,97,train
175.45294761657715,5,4,0,2,1,3,E+,0,2,3,400,600,250.0,1,e03ep,98,train
47.42789268493652,5,4,0,2,1,3,E+,1,4,1,400,600,250.0,4,e03ep,99,train
0.053882598876953125,5,4,0,2,1,3,E+,1,4,1,400,600,250.0,4,e03ep,100,train
95.48592567443848,5,4,0,2,1,3,E+,1,3,5,400,600,250.0,3,e03ep,101,train
79.89382743835449,5,4,0,2,1,3,E+,1,0,2,400,600,250.0,0,e03ep,102,train
383.83007049560547,5,4,0,2,1,3,E+,1,1,4,400,600,250.0,1,e03ep,103,train
159.8198413848877,5,4,0,2,1,3,E+,1,1,4,400,600,250.0,1,e03ep,104,train
47.96314239501953,5,4,0,2,1,3,E+,0,5,0,400,600,250.0,2,e03ep,105,train
383.40091705322266,5,4,0,2,1,3,E+,1,2,3,400,600,250.0,2,e03ep,106,train
47.486066818237305,5,4,0,2,1,3,E+,1,2,3,400,600,250.0,2,e03ep,107,train
79.40793037414551,5,4,0,2,1,3,E+,1,5,0,400,600,250.0,5,e03ep,108,train
0.05316734313964844,5,4,0,2,1,3,E+,1,4,1,400,600,250.0,4,e03ep,109,train
15.439033508300781,5,4,0,2,1,3,E+,1,5,0,400,600,250.0,5,e03ep,110,train
111.76586151123047,5,4,0,2,1,3,E+,0,1,4,400,600,250.0,2,e03ep,111,train
271.95000648498535,5,4,0,2,1,3,E+,1,4,1,400,600,250.0,4,e03ep,112,train
511.9469165802002,5,4,0,2,1,3,E+,1,2,3,400,600,250.0,2,e03ep,113,train
95.92509269714355,5,4,0,2,1,3,E+,1,0,2,400,600,250.0,0,e03ep,114,train
191.972017288208,5,4,0,2,1,3,E+,1,2,3,400,600,250.0,2,e03ep,115,train
111.95588111877441,5,4,0,2,1,3,E+,1,1,4,400,600,250.0,1,e03ep,116,train
240.00287055969238,5,4,0,2,1,3,E+,1,3,5,400,600,250.0,3,e03ep,117,train
64.03398513793945,5,4,0,2,1,3,E+,1,3,5,400,600,250.0,3,e03ep,118,train
144.39702033996582,5,4,0,2,1,3,E+,1,3,5,400,600,250.0,3,e03ep,119,train
287.7211570739746,5,4,0,2,1,3,E+,1,2,3,400,600,250.0,2,e03ep,120,train
95.99900245666504,5,4,0,2,1,3,E+,1,3,5,400,600,250.0,3,e03ep,121,train
96.0540771484375,5,4,0,2,1,3,E+,1,1,4,400,600,250.0,1,e03ep,122,train
96.05717658996582,5,4,0,2,1,3,E+,1,3,5,400,600,250.0,3,e03ep,123,train
0.02288818359375,5,4,0,2,1,3,E+,1,3,5,400,600,250.0,3,e03ep,124,train
95.86596488952637,5,4,0,2,1,3,E+,1,3,5,400,600,250.0,3,e03ep,125,train
95.99590301513672,5,4,0,2,1,3,E+,1,1,4,400,600,250.0,1,e03ep,126,train
495.9678649902344,5,4,0,2,1,3,E+,1,2,3,400,600,250.0,2,e03ep,127,train
96.00996971130371,5,4,0,2,1,3,E+,1,0,2,400,600,250.0,0,e03ep,128,train
96.02713584899902,5,4,0,2,1,3,E+,1,1,4,400,600,250.0,1,e03ep,129,train
191.96820259094238,5,4,0,2,1,3,E+,1,3,5,400,600,250.0,3,e03ep,130,train
80.02805709838867,5,4,0,2,1,3,E+,1,4,1,400,600,250.0,4,e03ep,131,train
15.983104705810547,5,4,0,2,1,3,E+,1,4,1,400,600,250.0,4,e03ep,132,train
127.88200378417969,5,4,0,2,1,3,E+,1,4,1,400,600,250.0,4,e03ep,133,train
159.8649024963379,5,4,0,2,1,3,E+,1,5,0,400,600,250.0,5,e03ep,134,train
271.91996574401855,5,4,0,2,1,3,E+,1,2,3,400,600,250.0,2,e03ep,135,train
112.01786994934082,5,4,0,2,1,3,E+,1,0,2,400,600,250.0,0,e03ep,136,train
223.9980697631836,5,4,0,2,1,3,E+,1,3,5,400,600,250.0,3,e03ep,137,train
64.03684616088867,5,4,0,2,1,3,E+,1,5,0,400,600,250.0,5,e03ep,138,train
15.985965728759766,5,4,0,2,1,3,E+,1,5,0,400,600,250.0,5,e03ep,139,train
287.94193267822266,5,4,0,2,1,3,E+,1,2,3,400,600,250.0,2,e03ep,140,train
95.89004516601562,5,4,0,2,1,3,E+,1,2,3,400,600,250.0,2,e03ep,141,train
79.97012138366699,5,4,0,2,1,3,E+,1,0,2,400,600,250.0,0,e03ep,142,train
64.00394439697266,5,4,0,2,1,3,E+,1,1,4,400,600,250.0,1,e03ep,143,train
159.90090370178223,5,4,0,2,1,3,E+,1,2,3,400,600,250.0,2,e03ep,144,train
303.91693115234375,5,4,0,2,1,3,E+,1,0,2,400,600,250.0,0,e03ep,145,train
95.90291976928711,5,4,0,2,1,3,E+,1,3,5,400,600,250.0,3,e03ep,146,train
143.9681053161621,5,4,0,2,1,3,E+,1,2,3,400,600,250.0,2,e03ep,147,train
127.93087959289551,5,4,0,2,1,3,E+,1,4,1,400,600,250.0,4,e03ep,148,train
159.88612174987793,5,4,0,2,1,3,E+,1,1,4,400,600,250.0,1,e03ep,149,train
111.96208000183105,5,4,0,2,1,3,E+,1,3,5,400,600,250.0,3,e03ep,150,train
64.05091285705566,5,4,0,2,1,3,E+,1,0,2,400,600,250.0,0,e03ep,151,train
431.959867477417,5,4,0,2,1,3,E+,1,1,4,400,600,250.0,1,e03ep,152,train
143.93305778503418,5,4,0,2,1,3,E+,1,2,3,400,600,250.0,2,e03ep,153,train
160.0048542022705,5,4,0,2,1,3,E+,1,1,4,400,600,250.0,1,e03ep,154,train
319.9191093444824,5,4,0,2,1,3,E+,1,4,1,400,600,250.0,4,e03ep,155,train
95.99113464355469,5,4,0,2,1,3,E+,1,4,1,400,600,250.0,4,e03ep,156,train
175.9660243988037,5,4,0,2,1,3,E+,1,2,3,400,600,250.0,2,e03ep,157,train
0.02288818359375,5,4,0,2,1,3,E+,1,2,3,400,600,250.0,2,e03ep,158,train
127.75611877441406,5,4,0,2,1,3,E+,1,0,2,400,600,250.0,0,e03ep,159,train
63.95292282104492,5,4,0,2,1,3,E+,1,5,0,400,600,250.0,5,e03ep,160,train
319.93889808654785,5,4,0,2,1,3,E+,1,3,5,400,600,250.0,3,e03ep,161,train
143.8291072845459,5,4,0,2,1,3,E+,1,4,1,400,600,250.0,4,e03ep,162,train
207.97491073608398,5,4,0,2,1,3,E+,1,1,4,400,600,250.0,1,e03ep,163,train
447.9260444641113,5,4,0,2,1,3,E+,1,4,1,400,600,250.0,4,e03ep,164,train
95.95608711242676,5,4,0,2,1,3,E+,1,2,3,400,600,250.0,2,e03ep,165,train
127.90608406066895,5,4,0,2,1,3,E+,1,3,5,400,600,250.0,3,e03ep,166,train
143.9359188079834,5,4,0,2,1,3,E+,0,2,3,400,600,250.0,1,e03ep,167,train
207.9639434814453,5,4,0,2,1,3,E+,1,3,5,400,600,250.0,3,e03ep,168,train
127.95400619506836,5,4,0,2,1,3,E+,1,0,2,400,600,250.0,0,e03ep,169,train
176.00083351135254,5,4,0,2,1,3,E+,1,2,3,400,600,250.0,2,e03ep,170,train
128.01194190979004,5,4,0,2,1,3,E+,1,5,0,400,600,250.0,5,e03ep,171,train
47.98293113708496,5,4,0,2,1,3,E+,1,4,1,400,600,250.0,4,e03ep,172,train
96.04406356811523,5,4,0,2,1,3,E+,1,2,3,400,600,250.0,2,e03ep,173,train
16.00813865661621,5,4,0,2,1,3,E+,1,2,3,400,600,250.0,2,e03ep,174,train
47.50394821166992,5,4,0,2,1,3,E+,1,1,4,400,600,250.0,1,e03ep,175,train
127.34508514404297,5,4,0,2,1,3,E+,1,0,2,400,600,250.0,0,e03ep,176,train
79.24294471740723,5,4,0,2,1,3,E+,1,2,3,400,600,250.0,2,e03ep,177,train
79.42891120910645,5,4,0,2,1,3,E+,1,5,0,400,600,250.0,5,e03ep,178,train
191.3440227508545,5,4,0,2,1,3,E+,1,3,5,400,600,250.0,3,e03ep,179,train
47.45197296142578,5,4,0,2,1,3,E+,1,3,5,400,600,250.0,3,e03ep,180,train
143.3849334716797,5,4,0,2,1,3,E+,1,5,0,400,600,250.0,5,e03ep,181,train
127.47001647949219,5,4,0,2,1,3,E+,1,2,3,400,600,250.0,2,e03ep,182,train
127.52604484558105,5,4,0,2,1,3,E+,1,0,2,400,600,250.0,0,e03ep,183,train
15.475988388061523,5,4,0,2,1,3,E+,1,1,4,400,600,250.0,1,e03ep,184,train
175.5211353302002,5,4,0,2,1,3,E+,1,3,5,400,600,250.0,3,e03ep,185,train
15.452146530151367,5,4,0,2,1,3,E+,0,4,1,400,600,250.0,2,e03ep,186,train
159.4390869140625,5,4,0,2,1,3,E+,1,3,5,400,600,250.0,3,e03ep,187,train
111.31501197814941,5,4,0,2,1,3,E+,1,5,0,400,600,250.0,5,e03ep,188,train
63.43507766723633,5,4,0,2,1,3,E+,1,5,0,400,600,250.0,5,e03ep,189,train
79.44703102111816,5,4,0,2,1,3,E+,0,0,2,400,600,250.0,3,e03ep,190,train
127.45499610900879,5,4,0,2,1,3,E+,1,5,0,400,600,250.0,5,e03ep,191,train
271.3959217071533,5,4,0,2,1,3,E+,1,2,3,400,600,250.0,2,e03ep,192,train
143.43905448913574,5,4,0,2,1,3,E+,1,4,1,400,600,250.0,4,e03ep,193,train
47.43504524230957,5,4,0,2,1,3,E+,1,4,1,400,600,250.0,4,e03ep,194,train
79.38194274902344,5,4,0,2,1,3,E+,1,0,2,400,600,250.0,0,e03ep,195,train
127.48003005981445,5,4,0,2,1,3,E+,1,5,0,400,600,250.0,5,e03ep,196,train
207.50713348388672,5,4,0,2,1,3,E+,1,3,5,400,600,250.0,3,e03ep,197,train
223.47378730773926,5,4,0,2,1,3,E+,1,1,4,400,600,250.0,1,e03ep,198,train
15.490055084228516,5,4,0,2,1,3,E+,1,1,4,400,600,250.0,1,e03ep,199,train
431.43510818481445,5,4,0,2,1,3,E+,1,4,1,400,600,250.0,4,e03ep,200,train
111.44804954528809,5,4,0,2,1,3,E+,1,0,2,400,600,250.0,0,e03ep,201,train
191.37001037597656,5,4,0,2,1,3,E+,1,3,5,400,600,250.0,3,e03ep,202,train
95.42703628540039,5,4,0,2,1,3,E+,1,4,1,400,600,250.0,4,e03ep,203,train
175.44794082641602,5,4,0,2,1,3,E+,1,1,4,400,600,250.0,1,e03ep,204,train
223.36697578430176,5,4,0,2,1,3,E+,1,2,3,400,600,250.0,2,e03ep,205,train
191.31708145141602,5,4,0,2,1,3,E+,1,1,4,400,600,250.0,1,e03ep,206,train
127.48384475708008,5,4,0,2,1,3,E+,1,3,5,400,600,250.0,3,e03ep,207,train
63.43412399291992,5,4,0,2,1,3,E+,1,3,5,400,600,250.0,3,e03ep,208,train
239.15815353393555,5,4,0,2,1,3,E+,1,5,0,400,600,250.0,5,e03ep,209,train
303.0238151550293,5,4,0,2,1,3,E+,0,3,5,400,600,250.0,2,e03ep,210,train
127.41398811340332,5,4,0,2,1,3,E+,0,2,3,400,600,250.0,1,e03ep,211,train
175.34995079040527,5,4,0,2,1,3,E+,1,4,1,400,600,250.0,4,e03ep,212,train
143.48793029785156,5,4,0,2,1,3,E+,1,0,2,400,600,250.0,0,e03ep,213,train
159.43121910095215,5,4,0,2,1,3,E+,1,2,3,400,600,250.0,2,e03ep,214,train
15.847921371459961,5,4,0,2,1,3,E+,1,2,3,400,600,250.0,2,e03ep,215,train
79.96797561645508,5,4,0,2,1,3,E+,1,4,1,400,600,250.0,4,e03ep,216,train
47.965049743652344,5,4,0,2,1,3,E+,1,4,1,400,600,250.0,4,e03ep,217,train
15.459060668945312,5,4,0,2,1,3,E+,1,4,1,400,600,250.0,4,e03ep,218,train
63.47489356994629,5,4,0,2,1,3,E+,0,1,4,400,600,250.0,2,e03ep,219,train
191.4069652557373,5,4,0,2,1,3,E+,1,5,0,400,600,250.0,5,e03ep,220,train
479.39205169677734,5,4,0,2,1,3,E+,1,2,3,400,600,250.0,2,e03ep,221,train
207.47113227844238,5,4,0,2,1,3,E+,0,3,5,400,600,250.0,4,e03ep,222,train
287.31393814086914,5,4,0,2,1,3,E+,1,4,1,400,600,250.0,4,e03ep,223,train
79.28895950317383,5,4,0,2,1,3,E+,1,5,0,400,600,250.0,5,e03ep,224,train
79.45609092712402,5,4,0,2,1,3,E+,1,5,0,400,600,250.0,5,e03ep,225,train
47.46198654174805,5,4,0,2,1,3,E+,1,4,1,400,600,250.0,4,e03ep,226,train
31.480073928833008,5,4,0,2,1,3,E+,1,4,1,400,600,250.0,4,e03ep,227,train
15.372991561889648,5,4,0,2,1,3,E+,1,4,1,400,600,250.0,4,e03ep,228,train
159.4679355621338,5,4,0,2,1,3,E+,1,0,2,400,600,250.0,0,e03ep,229,train
191.4520263671875,5,4,0,2,1,3,E+,1,5,0,400,600,250.0,5,e03ep,230,train
111.3731861114502,5,4,0,2,1,3,E+,1,5,0,400,600,250.0,5,e03ep,231,train
63.40813636779785,5,4,0,2,1,3,E+,1,4,1,400,600,250.0,4,e03ep,232,train
127.40683555603027,5,4,0,2,1,3,E+,1,0,2,400,600,250.0,0,e03ep,233,train
159.43408012390137,5,4,0,2,1,3,E+,1,5,0,400,600,250.0,5,e03ep,234,train
79.43892478942871,5,4,0,2,1,3,E+,1,0,2,400,600,250.0,0,e03ep,235,train
31.476974487304688,5,4,0,2,1,3,E+,1,5,0,400,600,250.0,5,e03ep,236,train
127.349853515625,5,4,0,2,1,3,E+,1,1,4,400,600,250.0,1,e03ep,237,train
159.47508811950684,5,4,0,2,1,3,E+,1,3,5,400,600,250.0,3,e03ep,238,train
127.23898887634277,5,4,0,2,1,3,E+,1,3,5,400,600,250.0,3,e03ep,239,train
79.42605018615723,5,4,0,2,1,3,E+,1,1,4,400,600,250.0,1,e03ep,240,train
95.43514251708984,5,4,0,2,1,3,E+,1,5,0,400,600,250.0,5,e03ep,241,train
79.45990562438965,5,4,0,2,1,3,E+,1,4,1,400,600,250.0,4,e03ep,242,train
159.35611724853516,5,4,0,2,1,3,E+,1,1,4,400,600,250.0,1,e03ep,243,train
111.41586303710938,5,4,0,2,1,3,E+,1,4,1,400,600,250.0,4,e03ep,244,train
95.34406661987305,5,4,0,2,1,3,E+,1,0,2,400,600,250.0,0,e03ep,245,train
159.33895111083984,5,4,0,2,1,3,E+,1,5,0,400,600,250.0,5,e03ep,246,train
335.43896675109863,5,4,0,2,1,3,E+,1,3,5,400,600,250.0,3,e03ep,247,train
79.4379711151123,5,4,0,2,1,3,E+,1,3,5,400,600,250.0,3,e03ep,248,train
79.46515083312988,5,4,0,2,1,3,E+,1,5,0,400,600,250.0,5,e03ep,249,train
2368.480920791626,5,4,0,2,1,3,E+,1,4,1,0,1000,250.0,4,e03ep,250,test
1280.2040576934814,5,4,0,2,1,3,E+,1,3,5,0,1000,250.0,3,e03ep,251,test
832.5510025024414,5,4,0,2,1,3,E+,1,3,5,0,1000,250.0,3,e03ep,252,test
1360.5780601501465,5,4,0,2,1,3,E+,1,1,4,0,1000,250.0,1,e03ep,253,test
640.4650211334229,5,4,0,2,1,3,E+,1,1,4,0,1000,250.0,1,e03ep,254,test
656.5670967102051,5,4,0,2,1,3,E+,1,0,2,0,1000,250.0,0,e03ep,255,test
640.678882598877,5,4,0,2,1,3,E+,1,5,0,0,1000,250.0,5,e03ep,256,test
624.6790885925293,5,4,0,2,1,3,E+,1,0,2,0,1000,250.0,0,e03ep,257,test
592.6501750946045,5,4,0,2,1,3,E+,0,3,5,0,1000,250.0,4,e03ep,258,test
608.9010238647461,5,4,0,2,1,3,E+,1,4,1,0,1000,250.0,4,e03ep,259,test
624.6910095214844,5,4,0,2,1,3,E+,1,0,2,0,1000,250.0,0,e03ep,260,test
448.6548900604248,5,4,0,2,1,3,E+,1,1,4,0,1000,250.0,1,e03ep,261,test
576.6339302062988,5,4,0,2,1,3,E+,1,0,2,0,1000,250.0,0,e03ep,262,test
656.6219329833984,5,4,0,2,1,3,E+,1,4,1,0,1000,250.0,4,e03ep,263,test
576.6558647155762,5,4,0,2,1,3,E+,1,0,2,0,1000,250.0,0,e03ep,264,test
672.6100444793701,5,4,0,2,1,3,E+,1,1,4,0,1000,250.0,1,e03ep,265,test
1616.6789531707764,5,4,0,2,1,3,E+,1,3,5,0,1000,250.0,3,e03ep,266,test
608.5019111633301,5,4,0,2,1,3,E+,1,1,4,0,1000,250.0,1,e03ep,267,test
672.6469993591309,5,4,0,2,1,3,E+,1,2,3,0,1000,250.0,2,e03ep,268,test
592.6179885864258,5,4,0,2,1,3,E+,1,0,2,0,1000,250.0,0,e03ep,269,test
720.6668853759766,5,4,0,2,1,3,E+,1,4,1,0,1000,250.0,4,e03ep,270,test
608.5751056671143,5,4,0,2,1,3,E+,1,0,2,0,1000,250.0,0,e03ep,271,test
528.6328792572021,5,4,0,2,1,3,E+,1,0,2,0,1000,250.0,0,e03ep,272,test
720.6130027770996,5,4,0,2,1,3,E+,0,2,3,0,1000,250.0,1,e03ep,273,test
896.5821266174316,5,4,0,2,1,3,E+,1,3,5,0,1000,250.0,3,e03ep,274,test
720.6838130950928,5,4,0,2,1,3,E+,1,5,0,0,1000,250.0,5,e03ep,275,test
560.6110095977783,5,4,0,2,1,3,E+,1,4,1,0,1000,250.0,4,e03ep,276,test
592.5900936126709,5,4,0,2,1,3,E+,1,2,3,0,1000,250.0,2,e03ep,277,test
464.63704109191895,5,4,0,2,1,3,E+,1,2,3,0,1000,250.0,2,e03ep,278,test
640.653133392334,5,4,0,2,1,3,E+,1,1,4,0,1000,250.0,1,e03ep,279,test
736.6061210632324,5,4,0,2,1,3,E+,1,5,0,0,1000,250.0,5,e03ep,280,test
496.63519859313965,5,4,0,2,1,3,E+,1,5,0,0,1000,250.0,5,e03ep,281,test
608.6609363555908,5,4,0,2,1,3,E+,1,1,4,0,1000,250.0,1,e03ep,282,test
1440.6170845031738,5,4,0,2,1,3,E+,1,3,5,0,1000,250.0,3,e03ep,283,test
720.6339836120605,5,4,0,2,1,3,E+,1,4,1,0,1000,250.0,4,e03ep,284,test
592.6401615142822,5,4,0,2,1,3,E+,1,0,2,0,1000,250.0,0,e03ep,285,test
544.590950012207,5,4,0,2,1,3,E+,1,0,2,0,1000,250.0,0,e03ep,286,test
560.6749057769775,5,4,0,2,1,3,E+,1,5,0,0,1000,250.0,5,e03ep,287,test
688.6768341064453,5,4,0,2,1,3,E+,0,3,5,0,1000,250.0,2,e03ep,288,test
544.5840358734131,5,4,0,2,1,3,E+,1,0,2,0,1000,250.0,0,e03ep,289,test
640.6381130218506,5,4,0,2,1,3,E+,1,0,2,0,1000,250.0,0,e03ep,290,test
608.6549758911133,5,4,0,2,1,3,E+,1,2,3,0,1000,250.0,2,e03ep,291,test
528.6350250244141,5,4,0,2,1,3,E+,1,2,3,0,1000,250.0,2,e03ep,292,test
576.6041278839111,5,4,0,2,1,3,E+,1,4,1,0,1000,250.0,4,e03ep,293,test
512.645959854126,5,4,0,2,1,3,E+,1,3,5,0,1000,250.0,3,e03ep,294,test
512.6299858093262,5,4,0,2,1,3,E+,1,4,1,0,1000,250.0,4,e03ep,295,test
496.61707878112793,5,4,0,2,1,3,E+,1,0,2,0,1000,250.0,0,e03ep,296,test
496.62208557128906,5,4,0,2,1,3,E+,1,0,2,0,1000,250.0,0,e03ep,297,test
528.6509990692139,5,4,0,2,1,3,E+,1,2,3,0,1000,250.0,2,e03ep,298,test
192.4729347229004,5,4,0,2,1,3,E+,0,1,4,0,1000,250.0,2,e03ep,299,test
480.56793212890625,5,4,0,2,1,3,E+,1,4,1,0,1000,250.0,4,e03ep,300,test
560.6751441955566,5,4,0,2,1,3,E+,1,2,3,0,1000,250.0,2,e03ep,301,test
448.63295555114746,5,4,0,2,1,3,E+,1,2,3,0,1000,250.0,2,e03ep,302,test
400.64001083374023,5,4,0,2,1,3,E+,1,2,3,0,1000,250.0,2,e03ep,303,test
464.6480083465576,5,4,0,2,1,3,E+,1,3,5,0,1000,250.0,3,e03ep,304,test
528.6331176757812,5,4,0,2,1,3,E+,1,1,4,0,1000,250.0,1,e03ep,305,test
480.58199882507324,5,4,0,2,1,3,E+,1,4,1,0,1000,250.0,4,e03ep,306,test
656.5818786621094,5,4,0,2,1,3,E+,0,3,5,0,1000,250.0,2,e03ep,307,test
480.5610179901123,5,4,0,2,1,3,E+,0,5,0,0,1000,250.0,2,e03ep,308,test
496.66500091552734,5,4,0,2,1,3,E+,1,5,0,0,1000,250.0,5,e03ep,309,test
592.6299095153809,5,4,0,2,1,3,E+,1,4,1,0,1000,250.0,4,e03ep,310,test
672.6779937744141,5,4,0,2,1,3,E+,1,3,5,0,1000,250.0,3,e03ep,311,test
464.6611213684082,5,4,0,2,1,3,E+,1,3,5,0,1000,250.0,3,e03ep,312,test
624.535083770752,5,4,0,2,1,3,E+,1,0,2,0,1000,250.0,0,e03ep,313,test
544.6529388427734,5,4,0,2,1,3,E+,1,4,1,0,1000,250.0,4,e03ep,314,test
560.662031173706,5,4,0,2,1,3,E+,1,1,4,0,1000,250.0,1,e03ep,315,test
592.5757884979248,5,4,0,2,1,3,E+,1,4,1,0,1000,250.0,4,e03ep,316,test
512.6399993896484,5,4,0,2,1,3,E+,1,2,3,0,1000,250.0,2,e03ep,317,test
544.6650981903076,5,4,0,2,1,3,E+,1,0,2,0,1000,250.0,0,e03ep,318,test
816.6182041168213,5,4,0,2,1,3,E+,1,5,0,0,1000,250.0,5,e03ep,319,test
528.5580158233643,5,4,0,2,1,3,E+,1,0,2,0,1000,250.0,0,e03ep,320,test
544.6150302886963,5,4,0,2,1,3,E+,1,2,3,0,1000,250.0,2,e03ep,321,test
560.6510639190674,5,4,0,2,1,3,E+,1,0,2,0,1000,250.0,0,e03ep,322,test
528.5570621490479,5,4,0,2,1,3,E+,1,4,1,0,1000,250.0,4,e03ep,323,test
592.681884765625,5,4,0,2,1,3,E+,0,3,5,0,1000,250.0,2,e03ep,324,test
576.6491889953613,5,4,0,2,1,3,E+,1,4,1,0,1000,250.0,4,e03ep,325,test
496.5689182281494,5,4,0,2,1,3,E+,1,3,5,0,1000,250.0,3,e03ep,326,test
512.5899314880371,5,4,0,2,1,3,E+,1,3,5,0,1000,250.0,3,e03ep,327,test
592.555046081543,5,4,0,2,1,3,E+,1,0,2,0,1000,250.0,0,e03ep,328,test
16.36791229248047,5,4,0,2,1,3,E+,0,4,1,0,1000,250.0,0,e03ep,329,test
624.59397315979,5,4,0,2,1,3,E+,1,3,5,0,1000,250.0,3,e03ep,330,test
576.5941143035889,5,4,0,2,1,3,E+,1,5,0,0,1000,250.0,5,e03ep,331,test
512.721061706543,5,4,0,2,1,3,E+,1,4,1,0,1000,250.0,4,e03ep,332,test
544.6288585662842,5,4,0,2,1,3,E+,1,0,2,0,1000,250.0,0,e03ep,333,test
528.7299156188965,5,4,0,2,1,3,E+,1,4,1,0,1000,250.0,4,e03ep,334,test
608.630895614624,5,4,0,2,1,3,E+,1,3,5,0,1000,250.0,3,e03ep,335,test
592.695951461792,5,4,0,2,1,3,E+,1,2,3,0,1000,250.0,2,e03ep,336,test
544.6679592132568,5,4,0,2,1,3,E+,1,4,1,0,1000,250.0,4,e03ep,337,test
400.62403678894043,5,4,0,2,1,3,E+,1,1,4,0,1000,250.0,1,e03ep,338,test
624.6440410614014,5,4,0,2,1,3,E+,1,2,3,0,1000,250.0,2,e03ep,339,test
400.6190299987793,5,4,0,2,1,3,E+,1,5,0,0,1000,250.0,5,e03ep,340,test
560.5778694152832,5,4,0,2,1,3,E+,1,2,3,0,1000,250.0,2,e03ep,341,test
560.6210231781006,5,4,0,2,1,3,E+,1,1,4,0,1000,250.0,1,e03ep,342,test
576.6780376434326,5,4,0,2,1,3,E+,1,3,5,0,1000,250.0,3,e03ep,343,test
544.6209907531738,5,4,0,2,1,3,E+,1,4,1,0,1000,250.0,4,e03ep,344,test
592.6849842071533,5,4,0,2,1,3,E+,1,5,0,0,1000,250.0,5,e03ep,345,test
608.3128452301025,5,4,0,2,1,3,E+,1,2,3,0,1000,250.0,2,e03ep,346,test
560.6300830841064,5,4,0,2,1,3,E+,1,4,1,0,1000,250.0,4,e03ep,347,test
480.65781593322754,5,4,0,2,1,3,E+,1,4,1,0,1000,250.0,4,e03ep,348,test
592.6599502563477,5,4,0,2,1,3,E+,1,1,4,0,1000,250.0,1,e03ep,349,test
608.5669994354248,5,4,0,2,1,3,E+,1,2,3,0,1000,250.0,2,e03ep,350,test
576.603889465332,5,4,0,2,1,3,E+,1,0,2,0,1000,250.0,0,e03ep,351,test
640.6710147857666,5,4,0,2,1,3,E+,1,0,2,0,1000,250.0,0,e03ep,352,test
608.6878776550293,5,4,0,2,1,3,E+,1,4,1,0,1000,250.0,4,e03ep,353,test
544.5780754089355,5,4,0,2,1,3,E+,1,2,3,0,1000,250.0,2,e03ep,354,test
528.5389423370361,5,4,0,2,1,3,E+,1,0,2,0,1000,250.0,0,e03ep,355,test
528.6679267883301,5,4,0,2,1,3,E+,1,2,3,0,1000,250.0,2,e03ep,356,test
544.6701049804688,5,4,0,2,1,3,E+,1,5,0,0,1000,250.0,5,e03ep,357,test
464.65301513671875,5,4,0,2,1,3,E+,1,4,1,0,1000,250.0,4,e03ep,358,test
896.6259956359863,5,4,0,2,1,3,E+,1,3,5,0,1000,250.0,3,e03ep,359,test
608.6220741271973,5,4,0,2,1,3,E+,1,1,4,0,1000,250.0,1,e03ep,360,test
592.663049697876,5,4,0,2,1,3,E+,1,0,2,0,1000,250.0,0,e03ep,361,test
608.6809635162354,5,4,0,2,1,3,E+,1,2,3,0,1000,250.0,2,e03ep,362,test
544.6619987487793,5,4,0,2,1,3,E+,1,5,0,0,1000,250.0,5,e03ep,363,test
560.6801509857178,5,4,0,2,1,3,E+,1,5,0,0,1000,250.0,5,e03ep,364,test
576.7579078674316,5,4,0,2,1,3,E+,1,2,3,0,1000,250.0,2,e03ep,365,test
560.6539249420166,5,4,0,2,1,3,E+,1,0,2,0,1000,250.0,0,e03ep,366,test
592.7808284759521,5,4,0,2,1,3,E+,1,1,4,0,1000,250.0,1,e03ep,367,test
576.6589641571045,5,4,0,2,1,3,E+,1,2,3,0,1000,250.0,2,e03ep,368,test
576.5650272369385,5,4,0,2,1,3,E+,1,4,1,0,1000,250.0,4,e03ep,369,test
608.6690425872803,5,4,0,2,1,3,E+,1,3,5,0,1000,250.0,3,e03ep,370,test
416.69607162475586,5,4,0,2,1,3,E+,1,3,5,0,1000,250.0,3,e03ep,371,test
464.630126953125,5,4,0,2,1,3,E+,0,0,2,0,1000,250.0,5,e03ep,372,test
624.6321201324463,5,4,0,2,1,3,E+,1,4,1,0,1000,250.0,4,e03ep,373,test
592.4849510192871,5,4,0,2,1,3,E+,1,1,4,0,1000,250.0,1,e03ep,374,test
608.6690425872803,5,4,0,2,1,3,E+,1,5,0,0,1000,250.0,5,e03ep,375,test
528.6080837249756,5,4,0,2,1,3,E+,1,0,2,0,1000,250.0,0,e03ep,376,test
560.6331825256348,5,4,0,2,1,3,E+,1,0,2,0,1000,250.0,0,e03ep,377,test
816.6239261627197,5,4,0,2,1,3,E+,1,2,3,0,1000,250.0,2,e03ep,378,test
576.6129493713379,5,4,0,2,1,3,E+,1,1,4,0,1000,250.0,1,e03ep,379,test
528.9580821990967,5,4,0,2,1,3,E+,1,5,0,0,1000,250.0,5,e03ep,380,test
576.6291618347168,5,4,0,2,1,3,E+,1,3,5,0,1000,250.0,3,e03ep,381,test
528.5871028900146,5,4,0,2,1,3,E+,1,0,2,0,1000,250.0,0,e03ep,382,test
560.6100559234619,5,4,0,2,1,3,E+,1,1,4,0,1000,250.0,1,e03ep,383,test
608.6411476135254,5,4,0,2,1,3,E+,1,4,1,0,1000,250.0,4,e03ep,384,test
592.6070213317871,5,4,0,2,1,3,E+,1,2,3,0,1000,250.0,2,e03ep,385,test
576.585054397583,5,4,0,2,1,3,E+,1,0,2,0,1000,250.0,0,e03ep,386,test
560.6980323791504,5,4,0,2,1,3,E+,1,0,2,0,1000,250.0,0,e03ep,387,test
560.6689453125,5,4,0,2,1,3,E+,1,5,0,0,1000,250.0,5,e03ep,388,test
1552.7369976043701,5,4,0,2,1,3,E+,1,3,5,0,1000,250.0,3,e03ep,389,test
640.679121017456,5,4,0,2,1,3,E+,1,4,1,0,1000,250.0,4,e03ep,390,test
528.6760330200195,5,4,0,2,1,3,E+,1,0,2,0,1000,250.0,0,e03ep,391,test
560.5850219726562,5,4,0,2,1,3,E+,1,2,3,0,1000,250.0,2,e03ep,392,test
592.5991535186768,5,4,0,2,1,3,E+,1,3,5,0,1000,250.0,3,e03ep,393,test
432.63792991638184,5,4,0,2,1,3,E+,1,3,5,0,1000,250.0,3,e03ep,394,test
544.6240901947021,5,4,0,2,1,3,E+,1,2,3,0,1000,250.0,2,e03ep,395,test
624.6509552001953,5,4,0,2,1,3,E+,1,4,1,0,1000,250.0,4,e03ep,396,test
528.5711288452148,5,4,0,2,1,3,E+,1,2,3,0,1000,250.0,2,e03ep,397,test
544.6720123291016,5,4,0,2,1,3,E+,1,0,2,0,1000,250.0,0,e03ep,398,test
752.6750564575195,5,4,0,2,1,3,E+,1,5,0,0,1000,250.0,5,e03ep,399,test
544.6290969848633,5,4,0,2,1,3,E+,1,2,3,0,1000,250.0,2,e03ep,400,test
464.5669460296631,5,4,0,2,1,3,E+,1,2,3,0,1000,250.0,2,e03ep,401,test
464.6470546722412,5,4,0,2,1,3,E+,1,2,3,0,1000,250.0,2,e03ep,402,test
432.6329231262207,5,4,0,2,1,3,E+,1,2,3,0,1000,250.0,2,e03ep,403,test
624.6540546417236,5,4,0,2,1,3,E+,1,4,1,0,1000,250.0,4,e03ep,404,test
848.6988544464111,5,4,0,2,1,3,E+,1,3,5,0,1000,250.0,3,e03ep,405,test
656.6741466522217,5,4,0,2,1,3,E+,1,5,0,0,1000,250.0,5,e03ep,406,test
608.6339950561523,5,4,0,2,1,3,E+,1,4,1,0,1000,250.0,4,e03ep,407,test
624.6509552001953,5,4,0,2,1,3,E+,1,5,0,0,1000,250.0,5,e03ep,408,test
560.6210231781006,5,4,0,2,1,3,E+,1,2,3,0,1000,250.0,2,e03ep,409,test
624.6528625488281,5,4,0,2,1,3,E+,1,1,4,0,1000,250.0,1,e03ep,410,test
560.6060028076172,5,4,0,2,1,3,E+,1,4,1,0,1000,250.0,4,e03ep,411,test
528.6190509796143,5,4,0,2,1,3,E+,1,4,1,0,1000,250.0,4,e03ep,412,test
416.6247844696045,5,4,0,2,1,3,E+,1,4,1,0,1000,250.0,4,e03ep,413,test
544.611930847168,5,4,0,2,1,3,E+,0,3,5,0,1000,250.0,2,e03ep,414,test
528.6369323730469,5,4,0,2,1,3,E+,1,1,4,0,1000,250.0,1,e03ep,415,test
656.6050052642822,5,4,0,2,1,3,E+,1,1,4,0,1000,250.0,1,e03ep,416,test
608.583927154541,5,4,0,2,1,3,E+,1,2,3,0,1000,250.0,2,e03ep,417,test
384.61995124816895,5,4,0,2,1,3,E+,1,3,5,0,1000,250.0,3,e03ep,418,test
512.808084487915,5,4,0,2,1,3,E+,1,3,5,0,1000,250.0,3,e03ep,419,test
416.6579246520996,5,4,0,2,1,3,E+,1,3,5,0,1000,250.0,3,e03ep,420,test
512.444019317627,5,4,0,2,1,3,E+,1,2,3,0,1000,250.0,2,e03ep,421,test
608.6180210113525,5,4,0,2,1,3,E+,1,1,4,0,1000,250.0,1,e03ep,422,test
656.7869186401367,5,4,0,2,1,3,E+,1,5,0,0,1000,250.0,5,e03ep,423,test
496.6108798980713,5,4,0,2,1,3,E+,1,4,1,0,1000,250.0,4,e03ep,424,test
592.8981304168701,5,4,0,2,1,3,E+,1,5,0,0,1000,250.0,5,e03ep,425,test
576.6210556030273,5,4,0,2,1,3,E+,1,3,5,0,1000,250.0,3,e03ep,426,test
400.6800651550293,5,4,0,2,1,3,E+,1,3,5,0,1000,250.0,3,e03ep,427,test
544.6381568908691,5,4,0,2,1,3,E+,1,4,1,0,1000,250.0,4,e03ep,428,test
784.6589088439941,5,4,0,2,1,3,E+,1,1,4,0,1000,250.0,1,e03ep,429,test
528.6109447479248,5,4,0,2,1,3,E+,1,3,5,0,1000,250.0,3,e03ep,430,test
512.6678943634033,5,4,0,2,1,3,E+,1,4,1,0,1000,250.0,4,e03ep,431,test
432.6331615447998,5,4,0,2,1,3,E+,1,4,1,0,1000,250.0,4,e03ep,432,test
400.6080627441406,5,4,0,2,1,3,E+,0,1,4,0,1000,250.0,4,e03ep,433,test
624.3469715118408,5,4,0,2,1,3,E+,1,5,0,0,1000,250.0,5,e03ep,434,test
576.6267776489258,5,4,0,2,1,3,E+,1,4,1,0,1000,250.0,4,e03ep,435,test
464.56098556518555,5,4,0,2,1,3,E+,1,4,1,0,1000,250.0,4,e03ep,436,test
528.6469459533691,5,4,0,2,1,3,E+,1,5,0,0,1000,250.0,5,e03ep,437,test
640.6240463256836,5,4,0,2,1,3,E+,1,1,4,0,1000,250.0,1,e03ep,438,test
608.6552143096924,5,4,0,2,1,3,E+,1,2,3,0,1000,250.0,2,e03ep,439,test
512.5758647918701,5,4,0,2,1,3,E+,1,2,3,0,1000,250.0,2,e03ep,440,test
432.62696266174316,5,4,0,2,1,3,E+,1,2,3,0,1000,250.0,2,e03ep,441,test
448.54116439819336,5,4,0,2,1,3,E+,1,2,3,0,1000,250.0,2,e03ep,442,test
544.670820236206,5,4,0,2,1,3,E+,1,4,1,0,1000,250.0,4,e03ep,443,test
624.6888637542725,5,4,0,2,1,3,E+,1,3,5,0,1000,250.0,3,e03ep,444,test
560.6269836425781,5,4,0,2,1,3,E+,1,1,4,0,1000,250.0,1,e03ep,445,test
544.63791847229,5,4,0,2,1,3,E+,1,1,4,0,1000,250.0,1,e03ep,446,test
640.610933303833,5,4,0,2,1,3,E+,1,0,2,0,1000,250.0,0,e03ep,447,test
816.5900707244873,5,4,0,2,1,3,E+,1,4,1,0,1000,250.0,4,e03ep,448,test
656.4991474151611,5,4,0,2,1,3,E+,0,1,4,0,1000,250.0,0,e03ep,449,test
656.6197872161865,5,4,0,2,1,3,E+,1,3,5,0,1000,250.0,3,e03ep,450,test
560.6799125671387,5,4,0,2,1,3,E+,1,1,4,0,1000,250.0,1,e03ep,451,test
304.58903312683105,5,4,0,2,1,3,E+,0,0,2,0,1000,250.0,1,e03ep,452,test
576.5750408172607,5,4,0,2,1,3,E+,1,0,2,0,1000,250.0,0,e03ep,453,test
480.8969497680664,5,4,0,2,1,3,E+,0,0,2,0,1000,250.0,2,e03ep,454,test
656.2240123748779,5,4,0,2,1,3,E+,1,5,0,0,1000,250.0,5,e03ep,455,test
592.6060676574707,5,4,0,2,1,3,E+,1,2,3,0,1000,250.0,2,e03ep,456,test
528.6009311676025,5,4,0,2,1,3,E+,1,3,5,0,1000,250.0,3,e03ep,457,test
560.6629848480225,5,4,0,2,1,3,E+,1,4,1,0,1000,250.0,4,e03ep,458,test
496.62303924560547,5,4,0,2,1,3,E+,1,5,0,0,1000,250.0,5,e03ep,459,test
448.63390922546387,5,4,0,2,1,3,E+,0,3,5,0,1000,250.0,5,e03ep,460,test
464.6129608154297,5,4,0,2,1,3,E+,1,3,5,0,1000,250.0,3,e03ep,461,test
512.6521587371826,5,4,0,2,1,3,E+,1,4,1,0,1000,250.0,4,e03ep,462,test
544.633150100708,5,4,0,2,1,3,E+,1,5,0,0,1000,250.0,5,e03ep,463,test
560.6539249420166,5,4,0,2,1,3,E+,1,2,3,0,1000,250.0,2,e03ep,464,test
448.6560821533203,5,4,0,2,1,3,E+,1,3,5,0,1000,250.0,3,e03ep,465,test
544.5659160614014,5,4,0,2,1,3,E+,1,1,4,0,1000,250.0,1,e03ep,466,test
592.6470756530762,5,4,0,2,1,3,E+,1,2,3,0,1000,250.0,2,e03ep,467,test
544.6000099182129,5,4,0,2,1,3,E+,1,5,0,0,1000,250.0,5,e03ep,468,test
544.6250438690186,5,4,0,2,1,3,E+,1,0,2,0,1000,250.0,0,e03ep,469,test
480.62586784362793,5,4,0,2,1,3,E+,1,0,2,0,1000,250.0,0,e03ep,470,test
448.5921859741211,5,4,0,2,1,3,E+,1,0,2,0,1000,250.0,0,e03ep,471,test
592.6611423492432,5,4,0,2,1,3,E+,1,1,4,0,1000,250.0,1,e03ep,472,test
544.6319580078125,5,4,0,2,1,3,E+,1,2,3,0,1000,250.0,2,e03ep,473,test
432.542085647583,5,4,0,2,1,3,E+,1,2,3,0,1000,250.0,2,e03ep,474,test
320.7058906555176,5,4,0,2,1,3,E+,1,2,3,0,1000,250.0,2,e03ep,475,test
368.6537742614746,5,4,0,2,1,3,E+,0,3,5,0,1000,250.0,2,e03ep,476,test
592.5829410552979,5,4,0,2,1,3,E+,1,4,1,0,1000,250.0,4,e03ep,477,test
560.6510639190674,5,4,0,2,1,3,E+,1,5,0,0,1000,250.0,5,e03ep,478,test
640.5808925628662,5,4,0,2,1,3,E+,1,5,0,0,1000,250.0,5,e03ep,479,test
544.6040630340576,5,4,0,2,1,3,E+,1,4,1,0,1000,250.0,4,e03ep,480,test
672.6341247558594,5,4,0,2,1,3,E+,1,3,5,0,1000,250.0,3,e03ep,481,test
576.6501426696777,5,4,0,2,1,3,E+,1,2,3,0,1000,250.0,2,e03ep,482,test
480.6249141693115,5,4,0,2,1,3,E+,1,4,1,0,1000,250.0,4,e03ep,483,test
592.6539897918701,5,4,0,2,1,3,E+,1,3,5,0,1000,250.0,3,e03ep,484,test
528.6281108856201,5,4,0,2,1,3,E+,1,2,3,0,1000,250.0,2,e03ep,485,test
480.93104362487793,5,4,0,2,1,3,E+,1,3,5,0,1000,250.0,3,e03ep,486,test
656.6598415374756,5,4,0,2,1,3,E+,1,1,4,0,1000,250.0,1,e03ep,487,test
560.6231689453125,5,4,0,2,1,3,E+,1,5,0,0,1000,250.0,5,e03ep,488,test
560.6379508972168,5,4,0,2,1,3,E+,1,1,4,0,1000,250.0,1,e03ep,489,test
560.6279373168945,5,4,0,2,1,3,E+,1,2,3,0,1000,250.0,2,e03ep,490,test
528.6209583282471,5,4,0,2,1,3,E+,1,5,0,0,1000,250.0,5,e03ep,491,test
528.7010669708252,5,4,0,2,1,3,E+,1,1,4,0,1000,250.0,1,e03ep,492,test
592.5970077514648,5,4,0,2,1,3,E+,1,0,2,0,1000,250.0,0,e03ep,493,test
528.5909175872803,5,4,0,2,1,3,E+,1,5,0,0,1000,250.0,5,e03ep,494,test
496.51503562927246,5,4,0,2,1,3,E+,1,5,0,0,1000,250.0,5,e03ep,495,test
576.6170024871826,5,4,0,2,1,3,E+,1,0,2,0,1000,250.0,0,e03ep,496,test
480.6220531463623,5,4,0,2,1,3,E+,1,0,2,0,1000,250.0,0,e03ep,497,test
416.63289070129395,5,4,0,2,1,3,E+,1,0,2,0,1000,250.0,0,e03ep,498,test
528.6300182342529,5,4,0,2,1,3,E+,1,5,0,0,1000,250.0,5,e03ep,499,test
