RT,SRmap_0,SRmap_1,SRmap_2,SRmap_3,SRmap_4,SRmap_5,condition,correct,correct_response,curstim,ms-precue,ms-prestimblank,ntrials,response,subject,trial,type
6736.8268966674805,5,2,3,0,4,1,H-,1,2,1,0,1000,250.0,2,D31JA,0,train
2736.9399070739746,5,2,3,0,4,1,H-,1,3,2,0,1000,250.0,3,D31JA,1,train
1200.9730339050293,5,2,3,0,4,1,H-,1,0,3,0,1000,250.0,0,D31JA,2,train
1089.0130996704102,5,2,3,0,4,1,H-,1,1,5,0,1000,250.0,1,D31JA,3,train
768.991231918335,5,2,3,0,4,1,H-,1,1,5,0,1000,250.0,1,D31JA,4,train
1937.0579719543457,5,2,3,0,4,1,H-,1,4,4,0,1000,250.0,4,D31JA,5,train
784.987211227417,5,2,3,0,4,1,H-,1,1,5,0,1000,250.0,1,D31JA,6,train
2817.1420097351074,5,2,3,0,4,1,H-,1,0,3,0,1000,250.0,0,D31JA,7,train
1233.0470085144043,5,2,3,0,4,1,H-,0,3,2,0,1000,250.0,5,D31JA,8,train
1137.1569633483887,5,2,3,0,4,1,H-,0,3,2,0,1000,250.0,4,D31JA,9,train
1153.0330181121826,5,2,3,0,4,1,H-,1,1,5,0,1000,250.0,1,D31JA,10,train
1280.9700965881348,5,2,3,0,4,1,H-,1,0,3,0,1000,250.0,0,D31JA,11,train
1184.9989891052246,5,2,3,0,4,1,H-,1,2,1,0,1000,250.0,2,D31JA,12,train
928.9970397949219,5,2,3,0,4,1,H-,1,1,5,0,1000,250.0,1,D31JA,13,train
721.031904220581,5,2,3,0,4,1,H-,1,1,5,0,1000,250.0,1,D31JA,14,train
1121.0520267486572,5,2,3,0,4,1,H-,1,3,2,0,1000,250.0,3,D31JA,15,train
1761.0700130462646,5,2,3,0,4,1,H-,0,2,1,0,1000,250.0,1,D31JA,16,train
1057.2128295898438,5,2,3,0,4,1,H-,1,0,3,0,1000,250.0,0,D31JA,17,train
1264.984130859375,5,2,3,0,4,1,H-,1,4,4,0,1000,250.0,4,D31JA,18,train
1057.0120811462402,5,2,3,0,4,1,H-,1,0,3,0,1000,250.0,0,D31JA,19,train
1248.9039897918701,5,2,3,0,4,1,H-,1,3,2,0,1000,250.0,3,D31JA,20,train
817.1091079711914,5,2,3,0,4,1,H-,1,1,5,0,1000,250.0,1,D31JA,21,train
1425.0359535217285,5,2,3,0,4,1,H-,1,4,4,0,1000,250.0,4,D31JA,22,train
993.2460784912109,5,2,3,0,4,1,H-,1,2,1,0,1000,250.0,2,D31JA,23,train
897.230863571167,5,2,3,0,4,1,H-,1,2,1,0,1000,250.0,2,D31JA,24,train
528.9859771728516,5,2,3,0,4,1,H-,1,1,5,0,1000,250.0,1,D31JA,25,train
929.0781021118164,5,2,3,0,4,1,H-,1,3,2,0,1000,250.0,3,D31JA,26,train
688.9739036560059,5,2,3,0,4,1,H-,1,1,5,0,1000,250.0,1,D31JA,27,train
1057.0919513702393,5,2,3,0,4,1,H-,1,4,4,0,1000,250.0,4,D31JA,28,train
1505.053997039795,5,2,3,0,4,1,H-,0,3,2,0,1000,250.0,4,D31JA,29,train
1057.1060180664062,5,2,3,0,4,1,H-,1,4,4,0,1000,250.0,4,D31JA,30,train
640.955924987793,5,2,3,0,4,1,H-,1,1,5,0,1000,250.0,1,D31JA,31,train
1600.9190082550049,5,2,3,0,4,1,H-,1,2,1,0,1000,250.0,2,D31JA,32,train
1025.0999927520752,5,2,3,0,4,1,H-,1,5,0,0,1000,250.0,5,D31JA,33,train
1297.9159355163574,5,2,3,0,4,1,H-,1,0,3,0,1000,250.0,0,D31JA,34,train
1410.2470874786377,5,2,3,0,4,1,H-,1,3,2,0,1000,250.0,3,D31JA,35,train
1105.360984802246,5,2,3,0,4,1,H-,0,2,1,0,1000,250.0,1,D31JA,36,train
945.2459812164307,5,2,3,0,4,1,H-,1,1,5,0,1000,250.0,1,D31JA,37,train
1217.0400619506836,5,2,3,0,4,1,H-,1,3,2,0,1000,250.0,3,D31JA,38,train
961.0888957977295,5,2,3,0,4,1,H-,1,0,3,0,1000,250.0,0,D31JA,39,train
640.977144241333,5,2,3,0,4,1,H-,1,0,3,0,1000,250.0,0,D31JA,40,train
2016.8440341949463,5,2,3,0,4,1,H-,1,4,4,0,1000,250.0,4,D31JA,41,train
976.8831729888916,5,2,3,0,4,1,H-,1,2,1,0,1000,250.0,2,D31JA,42,train
1216.8951034545898,5,2,3,0,4,1,H-,1,4,4,0,1000,250.0,4,D31JA,43,train
832.935094833374,5,2,3,0,4,1,H-,1,1,5,0,1000,250.0,1,D31JA,44,train
1489.015817642212,5,2,3,0,4,1,H-,1,5,0,0,1000,250.0,5,D31JA,45,train
2177.0880222320557,5,2,3,0,4,1,H-,1,4,4,0,1000,250.0,4,D31JA,46,train
1280.846118927002,5,2,3,0,4,1,H-,1,0,3,0,1000,250.0,0,D31JA,47,train
977.2160053253174,5,2,3,0,4,1,H-,1,2,1,0,1000,250.0,2,D31JA,48,train
801.008939743042,5,2,3,0,4,1,H-,1,4,4,0,1000,250.0,4,D31JA,49,train
721.0228443145752,5,2,3,0,4,1,H-,1,5,0,0,1000,250.0,5,D31JA,50,train
641.1988735198975,5,2,3,0,4,1,H-,1,3,2,0,1000,250.0,3,D31JA,51,train
720.9339141845703,5,2,3,0,4,1,H-,1,5,0,0,1000,250.0,5,D31JA,52,train
849.2569923400879,5,2,3,0,4,1,H-,1,0,3,0,1000,250.0,0,D31JA,53,train
463.95111083984375,5,2,3,0,4,1,H-,1,1,5,0,1000,250.0,1,D31JA,54,train
688.788890838623,5,2,3,0,4,1,H-,0,0,3,0,1000,250.0,1,D31JA,55,train
784.7929000854492,5,2,3,0,4,1,H-,1,2,1,0,1000,250.0,2,D31JA,56,train
608.7601184844971,5,2,3,0,4,1,H-,1,2,1,0,1000,250.0,2,D31JA,57,train
512.7060413360596,5,2,3,0,4,1,H-,1,2,1,0,1000,250.0,2,D31JA,58,train
784.9581241607666,5,2,3,0,4,1,H-,1,1,5,0,1000,250.0,1,D31JA,59,train
640.6409740447998,5,2,3,0,4,1,H-,1,0,3,0,1000,250.0,0,D31JA,60,train
544.7700023651123,5,2,3,0,4,1,H-,1,2,1,0,1000,250.0,2,D31JA,61,train
464.6868705749512,5,2,3,0,4,1,H-,1,2,1,0,1000,250.0,2,D31JA,62,train
720.6778526306152,5,2,3,0,4,1,H-,1,4,4,0,1000,250.0,4,D31JA,63,train
608.8228225708008,5,2,3,0,4,1,H-,1,3,2,0,1000,250.0,3,D31JA,64,train
688.6539459228516,5,2,3,0,4,1,H-,1,0,3,0,1000,250.0,0,D31JA,65,train
543.9698696136475,5,2,3,0,4,1,H-,1,3,2,0,1000,250.0,3,D31JA,66,train
416.8219566345215,5,2,3,0,4,1,H-,1,3,2,0,1000,250.0,3,D31JA,67,train
352.70214080810547,5,2,3,0,4,1,H-,1,3,2,0,1000,250.0,3,D31JA,68,train
672.6911067962646,5,2,3,0,4,1,H-,1,4,4,0,1000,250.0,4,D31JA,69,train
704.7381401062012,5,2,3,0,4,1,H-,1,0,3,0,1000,250.0,0,D31JA,70,train
512.7041339874268,5,2,3,0,4,1,H-,1,1,5,0,1000,250.0,1,D31JA,71,train
656.6319465637207,5,2,3,0,4,1,H-,1,0,3,0,1000,250.0,0,D31JA,72,train
608.726978302002,5,2,3,0,4,1,H-,1,5,0,0,1000,250.0,5,D31JA,73,train
640.7921314239502,5,2,3,0,4,1,H-,1,5,0,0,1000,250.0,5,D31JA,74,train
576.4479637145996,5,2,3,0,4,1,H-,1,4,4,0,1000,250.0,4,D31JA,75,train
432.68799781799316,5,2,3,0,4,1,H-,1,4,4,0,1000,250.0,4,D31JA,76,train
400.6218910217285,5,2,3,0,4,1,H-,1,4,4,0,1000,250.0,4,D31JA,77,train
576.7309665679932,5,2,3,0,4,1,H-,1,1,5,0,1000,250.0,1,D31JA,78,train
528.8231372833252,5,2,3,0,4,1,H-,1,4,4,0,1000,250.0,4,D31JA,79,train
688.8179779052734,5,2,3,0,4,1,H-,1,2,1,0,1000,250.0,2,D31JA,80,train
448.69017601013184,5,2,3,0,4,1,H-,1,2,1,0,1000,250.0,2,D31JA,81,train
560.7328414916992,5,2,3,0,4,1,H-,1,1,5,0,1000,250.0,1,D31JA,82,train
640.7771110534668,5,2,3,0,4,1,H-,1,5,0,0,1000,250.0,5,D31JA,83,train
480.6671142578125,5,2,3,0,4,1,H-,1,5,0,0,1000,250.0,5,D31JA,84,train
832.8990936279297,5,2,3,0,4,1,H-,1,3,2,0,1000,250.0,3,D31JA,85,train
608.7768077850342,5,2,3,0,4,1,H-,1,1,5,0,1000,250.0,1,D31JA,86,train
560.6729984283447,5,2,3,0,4,1,H-,1,2,1,0,1000,250.0,2,D31JA,87,train
624.8440742492676,5,2,3,0,4,1,H-,0,4,4,0,1000,250.0,5,D31JA,88,train
976.8021106719971,5,2,3,0,4,1,H-,1,5,0,0,1000,250.0,5,D31JA,89,train
480.78083992004395,5,2,3,0,4,1,H-,1,4,4,0,1000,250.0,4,D31JA,90,train
704.7309875488281,5,2,3,0,4,1,H-,1,5,0,0,1000,250.0,5,D31JA,91,train
624.8130798339844,5,2,3,0,4,1,H-,1,1,5,0,1000,250.0,1,D31JA,92,train
432.52110481262207,5,2,3,0,4,1,H-,1,0,3,0,1000,250.0,0,D31JA,93,train
480.6361198425293,5,2,3,0,4,1,H-,1,0,3,0,1000,250.0,0,D31JA,94,train
384.8850727081299,5,2,3,0,4,1,H-,1,1,5,0,1000,250.0,1,D31JA,95,train
544.7921752929688,5,2,3,0,4,1,H-,1,2,1,0,1000,250.0,2,D31JA,96,train
640.5868530273438,5,2,3,0,4,1,H-,0,4,4,0,1000,250.0,5,D31JA,97,train
640.5079364776611,5,2,3,0,4,1,H-,1,0,3,0,1000,250.0,0,D31JA,98,train
560.797929763794,5,2,3,0,4,1,H-,1,1,5,0,1000,250.0,1,D31JA,99,train
592.8680896759033,5,2,3,0,4,1,H-,0,4,4,0,1000,250.0,3,D31JA,100,train
752.9489994049072,5,2,3,0,4,1,H-,1,5,0,0,1000,250.0,5,D31JA,101,train
672.7561950683594,5,2,3,0,4,1,H-,1,1,5,0,1000,250.0,1,D31JA,102,train
544.8119640350342,5,2,3,0,4,1,H-,1,1,5,0,1000,250.0,1,D31JA,103,train
416.6240692138672,5,2,3,0,4,1,H-,1,1,5,0,1000,250.0,1,D31JA,104,train
528.9139747619629,5,2,3,0,4,1,H-,1,0,3,0,1000,250.0,0,D31JA,105,train
544.8319911956787,5,2,3,0,4,1,H-,1,1,5,0,1000,250.0,1,D31JA,106,train
608.6990833282471,5,2,3,0,4,1,H-,1,3,2,0,1000,250.0,3,D31JA,107,train
672.7120876312256,5,2,3,0,4,1,H-,1,0,3,0,1000,250.0,0,D31JA,108,train
816.6999816894531,5,2,3,0,4,1,H-,1,2,1,0,1000,250.0,2,D31JA,109,train
1009.3109607696533,5,2,3,0,4,1,H-,1,4,4,0,1000,250.0,4,D31JA,110,train
528.7377834320068,5,2,3,0,4,1,H-,1,4,4,0,1000,250.0,4,D31JA,111,train
464.6458625793457,5,2,3,0,4,1,H-,1,4,4,0,1000,250.0,4,D31JA,112,train
896.8667984008789,5,2,3,0,4,1,H-,1,5,0,0,1000,250.0,5,D31JA,113,train
592.628002166748,5,2,3,0,4,1,H-,0,4,4,0,1000,250.0,3,D31JA,114,train
416.8250560760498,5,2,3,0,4,1,H-,1,4,4,0,1000,250.0,4,D31JA,115,train
752.8548240661621,5,2,3,0,4,1,H-,1,1,5,0,1000,250.0,1,D31JA,116,train
416.58902168273926,5,2,3,0,4,1,H-,1,1,5,0,1000,250.0,1,D31JA,117,train
496.83690071105957,5,2,3,0,4,1,H-,1,4,4,0,1000,250.0,4,D31JA,118,train
560.7690811157227,5,2,3,0,4,1,H-,1,4,4,0,1000,250.0,4,D31JA,119,train
544.806957244873,5,2,3,0,4,1,H-,1,3,2,0,1000,250.0,3,D31JA,120,train
880.8929920196533,5,2,3,0,4,1,H-,1,5,0,0,1000,250.0,5,D31JA,121,train
592.8821563720703,5,2,3,0,4,1,H-,1,2,1,0,1000,250.0,2,D31JA,122,train
880.8028697967529,5,2,3,0,4,1,H-,1,5,0,0,1000,250.0,5,D31JA,123,train
608.8719367980957,5,2,3,0,4,1,H-,1,0,3,0,1000,250.0,0,D31JA,124,train
432.59215354919434,5,2,3,0,4,1,H-,1,0,3,0,1000,250.0,0,D31JA,125,train
928.9278984069824,5,2,3,0,4,1,H-,1,5,0,0,1000,250.0,5,D31JA,126,train
752.8009414672852,5,2,3,0,4,1,H-,1,5,0,0,1000,250.0,5,D31JA,127,train
448.93693923950195,5,2,3,0,4,1,H-,1,5,0,0,1000,250.0,5,D31JA,128,train
640.8259868621826,5,2,3,0,4,1,H-,1,2,1,0,1000,250.0,2,D31JA,129,train
672.7979183197021,5,2,3,0,4,1,H-,1,1,5,0,1000,250.0,1,D31JA,130,train
896.8338966369629,5,2,3,0,4,1,H-,1,4,4,0,1000,250.0,4,D31JA,131,train
912.7609729766846,5,2,3,0,4,1,H-,1,1,5,0,1000,250.0,1,D31JA,132,train
608.7450981140137,5,2,3,0,4,1,H-,1,4,4,0,1000,250.0,4,D31JA,133,train
880.6798458099365,5,2,3,0,4,1,H-,1,0,3,0,1000,250.0,0,D31JA,134,train
576.8849849700928,5,2,3,0,4,1,H-,1,5,0,0,1000,250.0,5,D31JA,135,train
496.6599941253662,5,2,3,0,4,1,H-,0,4,4,0,1000,250.0,5,D31JA,136,train
864.7959232330322,5,2,3,0,4,1,H-,1,0,3,0,1000,250.0,0,D31JA,137,train
848.7720489501953,5,2,3,0,4,1,H-,1,5,0,0,1000,250.0,5,D31JA,138,train
672.9609966278076,5,2,3,0,4,1,H-,1,4,4,0,1000,250.0,4,D31JA,139,train
1088.5488986968994,5,2,3,0,4,1,H-,1,5,0,0,1000,250.0,5,D31JA,140,train
672.7747917175293,5,2,3,0,4,1,H-,1,5,0,0,1000,250.0,5,D31JA,141,train
704.8048973083496,5,2,3,0,4,1,H-,1,0,3,0,1000,250.0,0,D31JA,142,train
560.9121322631836,5,2,3,0,4,1,H-,1,1,5,0,1000,250.0,1,D31JA,143,train
480.78012466430664,5,2,3,0,4,1,H-,1,2,1,0,1000,250.0,2,D31JA,144,train
1056.7538738250732,5,2,3,0,4,1,H-,1,5,0,0,1000,250.0,5,D31JA,145,train
480.8080196380615,5,2,3,0,4,1,H-,1,5,0,0,1000,250.0,5,D31JA,146,train
784.6460342407227,5,2,3,0,4,1,H-,1,1,5,0,1000,250.0,1,D31JA,147,train
704.7569751739502,5,2,3,0,4,1,H-,1,1,5,0,1000,250.0,1,D31JA,148,train
1376.6779899597168,5,2,3,0,4,1,H-,0,2,1,0,1000,250.0,1,D31JA,149,train
416.8879985809326,5,2,3,0,4,1,H-,1,2,1,0,1000,250.0,2,D31JA,150,train
448.8089084625244,5,2,3,0,4,1,H-,1,2,1,0,1000,250.0,2,D31JA,151,train
624.5880126953125,5,2,3,0,4,1,H-,1,1,5,0,1000,250.0,1,D31JA,152,train
992.6707744598389,5,2,3,0,4,1,H-,1,4,4,0,1000,250.0,4,D31JA,153,train
576.8170356750488,5,2,3,0,4,1,H-,1,3,2,0,1000,250.0,3,D31JA,154,train
656.6469669342041,5,2,3,0,4,1,H-,1,4,4,0,1000,250.0,4,D31JA,155,train
592.7751064300537,5,2,3,0,4,1,H-,1,3,2,0,1000,250.0,3,D31JA,156,train
976.7739772796631,5,2,3,0,4,1,H-,1,5,0,0,1000,250.0,5,D31JA,157,train
560.8031749725342,5,2,3,0,4,1,H-,1,4,4,0,1000,250.0,4,D31JA,158,train
1024.9660015106201,5,2,3,0,4,1,H-,1,0,3,0,1000,250.0,0,D31JA,159,train
1489.0971183776855,5,2,3,0,4,1,H-,1,4,4,0,1000,250.0,4,D31JA,160,train
592.8709506988525,5,2,3,0,4,1,H-,1,3,2,0,1000,250.0,3,D31JA,161,train
1041.09787940979,5,2,3,0,4,1,H-,1,4,4,0,1000,250.0,4,D31JA,162,train
609.0328693389893,5,2,3,0,4,1,H-,1,4,4,0,1000,250.0,4,D31JA,163,train
1408.9789390563965,5,2,3,0,4,1,H-,1,1,5,0,1000,250.0,1,D31JA,164,train
592.648983001709,5,2,3,0,4,1,H-,1,2,1,0,1000,250.0,2,D31JA,165,train
608.7291240692139,5,2,3,0,4,1,H-,1,0,3,0,1000,250.0,0,D31JA,166,train
608.7281703948975,5,2,3,0,4,1,H-,0,4,4,0,1000,250.0,3,D31JA,167,train
625.4539489746094,5,2,3,0,4,1,H-,1,2,1,0,1000,250.0,2,D31JA,168,train
976.9711494445801,5,2,3,0,4,1,H-,1,5,0,0,1000,250.0,5,D31JA,169,train
673.0170249938965,5,2,3,0,4,1,H-,1,2,1,0,1000,250.0,2,D31JA,170,train
688.8790130615234,5,2,3,0,4,1,H-,1,1,5,0,1000,250.0,1,D31JA,171,train
752.8040409088135,5,2,3,0,4,1,H-,1,0,3,0,1000,250.0,0,D31JA,172,train
673.0470657348633,5,2,3,0,4,1,H-,1,3,2,0,1000,250.0,3,D31JA,173,train
1376.9419193267822,5,2,3,0,4,1,H-,1,1,5,0,1000,250.0,1,D31JA,174,train
560.8890056610107,5,2,3,0,4,1,H-,1,2,1,0,1000,250.0,2,D31JA,175,train
817.1510696411133,5,2,3,0,4,1,H-,1,0,3,0,1000,250.0,0,D31JA,176,train
865.1189804077148,5,2,3,0,4,1,H-,1,5,0,0,1000,250.0,5,D31JA,177,train
673.0079650878906,5,2,3,0,4,1,H-,1,3,2,0,1000,250.0,3,D31JA,178,train
929.0649890899658,5,2,3,0,4,1,H-,1,1,5,0,1000,250.0,1,D31JA,179,train
449.01084899902344,5,2,3,0,4,1,H-,1,0,3,0,1000,250.0,0,D31JA,180,train
689.1539096832275,5,2,3,0,4,1,H-,1,3,2,0,1000,250.0,3,D31JA,181,train
625.0851154327393,5,2,3,0,4,1,H-,1,2,1,0,1000,250.0,2,D31JA,182,train
544.7709560394287,5,2,3,0,4,1,H-,1,3,2,0,1000,250.0,3,D31JA,183,train
944.8471069335938,5,2,3,0,4,1,H-,1,5,0,0,1000,250.0,5,D31JA,184,train
656.9509506225586,5,2,3,0,4,1,H-,1,0,3,0,1000,250.0,0,D31JA,185,train
656.9969654083252,5,2,3,0,4,1,H-,1,1,5,0,1000,250.0,1,D31JA,186,train
977.0050048828125,5,2,3,0,4,1,H-,1,4,4,0,1000,250.0,4,D31JA,187,train
592.6861763000488,5,2,3,0,4,1,H-,1,4,4,0,1000,250.0,4,D31JA,188,train
624.7298717498779,5,2,3,0,4,1,H-,1,5,0,0,1000,250.0,5,D31JA,189,train
752.9768943786621,5,2,3,0,4,1,H-,1,0,3,0,1000,250.0,0,D31JA,190,train
640.7389640808105,5,2,3,0,4,1,H-,1,2,1,0,1000,250.0,2,D31JA,191,train
1072.7708339691162,5,2,3,0,4,1,H-,1,5,0,0,1000,250.0,5,D31JA,192,train
529.0329456329346,5,2,3,0,4,1,H-,1,3,2,0,1000,250.0,3,D31JA,193,train
689.0017986297607,5,2,3,0,4,1,H-,1,1,5,0,1000,250.0,1,D31JA,194,train
705.1198482513428,5,2,3,0,4,1,H-,1,5,0,0,1000,250.0,5,D31JA,195,train
560.9390735626221,5,2,3,0,4,1,H-,1,3,2,0,1000,250.0,3,D31JA,196,train
672.9059219360352,5,2,3,0,4,1,H-,1,1,5,0,1000,250.0,1,D31JA,197,train
801.4390468597412,5,2,3,0,4,1,H-,1,4,4,0,1000,250.0,4,D31JA,198,train
496.8290328979492,5,2,3,0,4,1,H-,1,4,4,0,1000,250.0,4,D31JA,199,train
593.0001735687256,5,2,3,0,4,1,H-,1,2,1,0,1000,250.0,2,D31JA,200,train
656.9669246673584,5,2,3,0,4,1,H-,1,0,3,0,1000,250.0,0,D31JA,201,train
656.7740440368652,5,2,3,0,4,1,H-,1,0,3,0,1000,250.0,0,D31JA,202,train
384.93919372558594,5,2,3,0,4,1,H-,1,0,3,0,1000,250.0,0,D31JA,203,train
704.9868106842041,5,2,3,0,4,1,H-,1,2,1,0,1000,250.0,2,D31JA,204,train
576.714038848877,5,2,3,0,4,1,H-,1,0,3,0,1000,250.0,0,D31JA,205,train
576.6720771789551,5,2,3,0,4,1,H-,1,2,1,0,1000,250.0,2,D31JA,206,train
480.910062789917,5,2,3,0,4,1,H-,1,5,0,0,1000,250.0,5,D31JA,207,train
640.9339904785156,5,2,3,0,4,1,H-,1,2,1,0,1000,250.0,2,D31JA,208,train
416.6138172149658,5,2,3,0,4,1,H-,1,2,1,0,1000,250.0,2,D31JA,209,train
865.0200366973877,5,2,3,0,4,1,H-,1,0,3,0,1000,250.0,0,D31JA,210,train
672.8260517120361,5,2,3,0,4,1,H-,1,1,5,0,1000,250.0,1,D31JA,211,train
720.9291458129883,5,2,3,0,4,1,H-,1,5,0,0,1000,250.0,5,D31JA,212,train
1137.0790004730225,5,2,3,0,4,1,H-,1,0,3,0,1000,250.0,0,D31JA,213,train
609.4131469726562,5,2,3,0,4,1,H-,1,3,2,0,1000,250.0,3,D31JA,214,train
960.6637954711914,5,2,3,0,4,1,H-,1,3,2,0,1000,250.0,3,D31JA,215,train
656.6920280456543,5,2,3,0,4,1,H-,1,3,2,0,1000,250.0,3,D31JA,216,train
592.5049781799316,5,2,3,0,4,1,H-,1,5,0,0,1000,250.0,5,D31JA,217,train
512.7151012420654,5,2,3,0,4,1,H-,1,3,2,0,1000,250.0,3,D31JA,218,train
592.6899909973145,5,2,3,0,4,1,H-,1,0,3,0,1000,250.0,0,D31JA,219,train
624.798059463501,5,2,3,0,4,1,H-,1,2,1,0,1000,250.0,2,D31JA,220,train
640.7251358032227,5,2,3,0,4,1,H-,1,0,3,0,1000,250.0,0,D31JA,221,train
768.82004737854,5,2,3,0,4,1,H-,1,4,4,0,1000,250.0,4,D31JA,222,train
480.8058738708496,5,2,3,0,4,1,H-,1,4,4,0,1000,250.0,4,D31JA,223,train
1072.8609561920166,5,2,3,0,4,1,H-,1,5,0,0,1000,250.0,5,D31JA,224,train
528.9058685302734,5,2,3,0,4,1,H-,1,2,1,0,1000,250.0,2,D31JA,225,train
624.6888637542725,5,2,3,0,4,1,H-,1,4,4,0,1000,250.0,4,D31JA,226,train
1008.8319778442383,5,2,3,0,4,1,H-,1,5,0,0,1000,250.0,5,D31JA,227,train
624.8319149017334,5,2,3,0,4,1,H-,1,0,3,0,1000,250.0,0,D31JA,228,train
992.6960468292236,5,2,3,0,4,1,H-,1,4,4,0,1000,250.0,4,D31JA,229,train
544.7988510131836,5,2,3,0,4,1,H-,1,3,2,0,1000,250.0,3,D31JA,230,train
608.5300445556641,5,2,3,0,4,1,H-,1,4,4,0,1000,250.0,4,D31JA,231,train
480.79395294189453,5,2,3,0,4,1,H-,1,4,4,0,1000,250.0,4,D31JA,232,train
593.1930541992188,5,2,3,0,4,1,H-,1,0,3,0,1000,250.0,0,D31JA,233,train
640.9990787506104,5,2,3,0,4,1,H-,1,1,5,0,1000,250.0,1,D31JA,234,train
577.0959854125977,5,2,3,0,4,1,H-,1,4,4,0,1000,250.0,4,D31JA,235,train
561.1090660095215,5,2,3,0,4,1,H-,1,3,2,0,1000,250.0,3,D31JA,236,train
784.837007522583,5,2,3,0,4,1,H-,1,4,4,0,1000,250.0,4,D31JA,237,train
640.7649517059326,5,2,3,0,4,1,H-,1,3,2,0,1000,250.0,3,D31JA,238,train
576.7250061035156,5,2,3,0,4,1,H-,1,4,4,0,1000,250.0,4,D31JA,239,train
672.6539134979248,5,2,3,0,4,1,H-,1,2,1,0,1000,250.0,2,D31JA,240,train
592.7488803863525,5,2,3,0,4,1,H-,1,4,4,0,1000,250.0,4,D31JA,241,train
720.7508087158203,5,2,3,0,4,1,H-,1,0,3,0,1000,250.0,0,D31JA,242,train
1088.6709690093994,5,2,3,0,4,1,H-,1,4,4,0,1000,250.0,4,D31JA,243,train
1056.8158626556396,5,2,3,0,4,1,H-,1,1,5,0,1000,250.0,1,D31JA,244,train
528.8989543914795,5,2,3,0,4,1,H-,1,3,2,0,1000,250.0,3,D31JA,245,train
672.7399826049805,5,2,3,0,4,1,H-,1,4,4,0,1000,250.0,4,D31JA,246,train
672.8501319885254,5,2,3,0,4,1,H-,1,1,5,0,1000,250.0,1,D31JA,247,train
672.9230880737305,5,2,3,0,4,1,H-,1,4,4,0,1000,250.0,4,D31JA,248,train
592.8149223327637,5,2,3,0,4,1,H-,1,3,2,0,1000,250.0,3,D31JA,249,train
1360.537052154541,3,0,2,1,4,5,H-,1,4,4,0,1000,250.0,4,D31JA,250,test
1712.6789093017578,3,0,2,1,4,5,H-,1,3,0,0,1000,250.0,3,D31JA,251,test
1472.6738929748535,3,0,2,1,4,5,H-,1,2,2,0,1000,250.0,2,D31JA,252,test
1824.7370719909668,3,0,2,1,4,5,H-,1,0,1,0,1000,250.0,0,D31JA,253,test
1392.8351402282715,3,0,2,1,4,5,H-,0,3,0,0,1000,250.0,4,D31JA,254,test
640.5279636383057,3,0,2,1,4,5,H-,1,3,0,0,1000,250.0,3,D31JA,255,test
496.6859817504883,3,0,2,1,4,5,H-,1,5,5,0,1000,250.0,5,D31JA,256,test
1072.7739334106445,3,0,2,1,4,5,H-,1,2,2,0,1000,250.0,2,D31JA,257,test
688.7500286102295,3,0,2,1,4,5,H-,0,0,1,0,1000,250.0,2,D31JA,258,test
768.7489986419678,3,0,2,1,4,5,H-,1,2,2,0,1000,250.0,2,D31JA,259,test
832.7310085296631,3,0,2,1,4,5,H-,1,5,5,0,1000,250.0,5,D31JA,260,test
2384.788990020752,3,0,2,1,4,5,H-,1,3,0,0,1000,250.0,3,D31JA,261,test
816.8690204620361,3,0,2,1,4,5,H-,1,4,4,0,1000,250.0,4,D31JA,262,test
720.8068370819092,3,0,2,1,4,5,H-,1,5,5,0,1000,250.0,5,D31JA,263,test
480.7469844818115,3,0,2,1,4,5,H-,1,5,5,0,1000,250.0,5,D31JA,264,test
816.8032169342041,3,0,2,1,4,5,H-,1,2,2,0,1000,250.0,2,D31JA,265,test
1168.8120365142822,3,0,2,1,4,5,H-,1,1,3,0,1000,250.0,1,D31JA,266,test
752.7780532836914,3,0,2,1,4,5,H-,1,2,2,0,1000,250.0,2,D31JA,267,test
672.245979309082,3,0,2,1,4,5,H-,1,0,1,0,1000,250.0,0,D31JA,268,test
672.7299690246582,3,0,2,1,4,5,H-,1,4,4,0,1000,250.0,4,D31JA,269,test
1744.379997253418,3,0,2,1,4,5,H-,1,1,3,0,1000,250.0,1,D31JA,270,test
496.87695503234863,3,0,2,1,4,5,H-,1,1,3,0,1000,250.0,1,D31JA,271,test
992.6259517669678,3,0,2,1,4,5,H-,1,3,0,0,1000,250.0,3,D31JA,272,test
864.7949695587158,3,0,2,1,4,5,H-,1,2,2,0,1000,250.0,2,D31JA,273,test
416.3961410522461,3,0,2,1,4,5,H-,1,0,1,0,1000,250.0,0,D31JA,274,test
640.7549381256104,3,0,2,1,4,5,H-,1,4,4,0,1000,250.0,4,D31JA,275,test
704.77294921875,3,0,2,1,4,5,H-,1,2,2,0,1000,250.0,2,D31JA,276,test
464.7178649902344,3,0,2,1,4,5,H-,1,2,2,0,1000,250.0,2,D31JA,277,test
624.7189044952393,3,0,2,1,4,5,H-,0,3,0,0,1000,250.0,5,D31JA,278,test
608.7429523468018,3,0,2,1,4,5,H-,1,0,1,0,1000,250.0,0,D31JA,279,test
400.6659984588623,3,0,2,1,4,5,H-,1,0,1,0,1000,250.0,0,D31JA,280,test
1008.7809562683105,3,0,2,1,4,5,H-,1,1,3,0,1000,250.0,1,D31JA,281,test
528.5201072692871,3,0,2,1,4,5,H-,1,0,1,0,1000,250.0,0,D31JA,282,test
912.7640724182129,3,0,2,1,4,5,H-,1,2,2,0,1000,250.0,2,D31JA,283,test
624.6659755706787,3,0,2,1,4,5,H-,1,4,4,0,1000,250.0,4,D31JA,284,test
416.73898696899414,3,0,2,1,4,5,H-,1,4,4,0,1000,250.0,4,D31JA,285,test
624.6960163116455,3,0,2,1,4,5,H-,0,3,0,0,1000,250.0,5,D31JA,286,test
544.7859764099121,3,0,2,1,4,5,H-,1,3,0,0,1000,250.0,3,D31JA,287,test
416.66698455810547,3,0,2,1,4,5,H-,1,3,0,0,1000,250.0,3,D31JA,288,test
384.6321105957031,3,0,2,1,4,5,H-,1,3,0,0,1000,250.0,3,D31JA,289,test
272.62187004089355,3,0,2,1,4,5,H-,1,3,0,0,1000,250.0,3,D31JA,290,test
720.8089828491211,3,0,2,1,4,5,H-,1,2,2,0,1000,250.0,2,D31JA,291,test
416.64600372314453,3,0,2,1,4,5,H-,1,0,1,0,1000,250.0,0,D31JA,292,test
1200.8318901062012,3,0,2,1,4,5,H-,1,5,5,0,1000,250.0,5,D31JA,293,test
656.7261219024658,3,0,2,1,4,5,H-,1,0,1,0,1000,250.0,0,D31JA,294,test
576.7791271209717,3,0,2,1,4,5,H-,1,0,1,0,1000,250.0,0,D31JA,295,test
928.786039352417,3,0,2,1,4,5,H-,1,1,3,0,1000,250.0,1,D31JA,296,test
800.8670806884766,3,0,2,1,4,5,H-,1,2,2,0,1000,250.0,2,D31JA,297,test
864.7301197052002,3,0,2,1,4,5,H-,1,5,5,0,1000,250.0,5,D31JA,298,test
912.7838611602783,3,0,2,1,4,5,H-,1,5,5,0,1000,250.0,5,D31JA,299,test
800.8921146392822,3,0,2,1,4,5,H-,1,3,0,0,1000,250.0,3,D31JA,300,test
880.7990550994873,3,0,2,1,4,5,H-,1,5,5,0,1000,250.0,5,D31JA,301,test
576.8320560455322,3,0,2,1,4,5,H-,1,3,0,0,1000,250.0,3,D31JA,302,test
592.7801132202148,3,0,2,1,4,5,H-,1,0,1,0,1000,250.0,0,D31JA,303,test
688.8082027435303,3,0,2,1,4,5,H-,1,4,4,0,1000,250.0,4,D31JA,304,test
656.4850807189941,3,0,2,1,4,5,H-,1,2,2,0,1000,250.0,2,D31JA,305,test
784.8279476165771,3,0,2,1,4,5,H-,1,5,5,0,1000,250.0,5,D31JA,306,test
896.7709541320801,3,0,2,1,4,5,H-,1,2,2,0,1000,250.0,2,D31JA,307,test
640.4330730438232,3,0,2,1,4,5,H-,0,3,0,0,1000,250.0,5,D31JA,308,test
1232.7780723571777,3,0,2,1,4,5,H-,0,5,5,0,1000,250.0,3,D31JA,309,test
720.8271026611328,3,0,2,1,4,5,H-,1,2,2,0,1000,250.0,2,D31JA,310,test
480.66186904907227,3,0,2,1,4,5,H-,1,2,2,0,1000,250.0,2,D31JA,311,test
1504.7008991241455,3,0,2,1,4,5,H-,1,5,5,0,1000,250.0,5,D31JA,312,test
752.8820037841797,3,0,2,1,4,5,H-,1,2,2,0,1000,250.0,2,D31JA,313,test
768.869161605835,3,0,2,1,4,5,H-,1,3,0,0,1000,250.0,3,D31JA,314,test
976.7379760742188,3,0,2,1,4,5,H-,1,1,3,0,1000,250.0,1,D31JA,315,test
432.7559471130371,3,0,2,1,4,5,H-,1,1,3,0,1000,250.0,1,D31JA,316,test
816.7831897735596,3,0,2,1,4,5,H-,1,5,5,0,1000,250.0,5,D31JA,317,test
528.6750793457031,3,0,2,1,4,5,H-,1,5,5,0,1000,250.0,5,D31JA,318,test
640.7980918884277,3,0,2,1,4,5,H-,1,4,4,0,1000,250.0,4,D31JA,319,test
576.8640041351318,3,0,2,1,4,5,H-,1,4,4,0,1000,250.0,4,D31JA,320,test
416.66507720947266,3,0,2,1,4,5,H-,1,4,4,0,1000,250.0,4,D31JA,321,test
704.8158645629883,3,0,2,1,4,5,H-,1,5,5,0,1000,250.0,5,D31JA,322,test
752.784013748169,3,0,2,1,4,5,H-,1,4,4,0,1000,250.0,4,D31JA,323,test
848.6928939819336,3,0,2,1,4,5,H-,1,0,1,0,1000,250.0,0,D31JA,324,test
1792.6712036132812,3,0,2,1,4,5,H-,1,3,0,0,1000,250.0,3,D31JA,325,test
400.60997009277344,3,0,2,1,4,5,H-,1,3,0,0,1000,250.0,3,D31JA,326,test
768.8210010528564,3,0,2,1,4,5,H-,1,5,5,0,1000,250.0,5,D31JA,327,test
816.8220520019531,3,0,2,1,4,5,H-,1,2,2,0,1000,250.0,2,D31JA,328,test
1152.7669429779053,3,0,2,1,4,5,H-,1,3,0,0,1000,250.0,3,D31JA,329,test
384.71293449401855,3,0,2,1,4,5,H-,1,3,0,0,1000,250.0,3,D31JA,330,test
496.6409206390381,3,0,2,1,4,5,H-,1,5,5,0,1000,250.0,5,D31JA,331,test
448.7168788909912,3,0,2,1,4,5,H-,1,3,0,0,1000,250.0,3,D31JA,332,test
704.6871185302734,3,0,2,1,4,5,H-,1,2,2,0,1000,250.0,2,D31JA,333,test
416.64695739746094,3,0,2,1,4,5,H-,1,2,2,0,1000,250.0,2,D31JA,334,test
800.8239269256592,3,0,2,1,4,5,H-,1,3,0,0,1000,250.0,3,D31JA,335,test
608.7281703948975,3,0,2,1,4,5,H-,1,0,1,0,1000,250.0,0,D31JA,336,test
880.781888961792,3,0,2,1,4,5,H-,1,5,5,0,1000,250.0,5,D31JA,337,test
496.7150688171387,3,0,2,1,4,5,H-,1,5,5,0,1000,250.0,5,D31JA,338,test
656.728982925415,3,0,2,1,4,5,H-,1,4,4,0,1000,250.0,4,D31JA,339,test
384.79089736938477,3,0,2,1,4,5,H-,1,4,4,0,1000,250.0,4,D31JA,340,test
608.8428497314453,3,0,2,1,4,5,H-,1,5,5,0,1000,250.0,5,D31JA,341,test
752.8290748596191,3,0,2,1,4,5,H-,1,1,3,0,1000,250.0,1,D31JA,342,test
608.7300777435303,3,0,2,1,4,5,H-,1,4,4,0,1000,250.0,4,D31JA,343,test
688.7240409851074,3,0,2,1,4,5,H-,1,1,3,0,1000,250.0,1,D31JA,344,test
976.9089221954346,3,0,2,1,4,5,H-,1,5,5,0,1000,250.0,5,D31JA,345,test
656.7280292510986,3,0,2,1,4,5,H-,1,0,1,0,1000,250.0,0,D31JA,346,test
544.6701049804688,3,0,2,1,4,5,H-,1,5,5,0,1000,250.0,5,D31JA,347,test
640.7201290130615,3,0,2,1,4,5,H-,1,0,1,0,1000,250.0,0,D31JA,348,test
768.7180042266846,3,0,2,1,4,5,H-,1,2,2,0,1000,250.0,2,D31JA,349,test
752.7391910552979,3,0,2,1,4,5,H-,1,1,3,0,1000,250.0,1,D31JA,350,test
880.439043045044,3,0,2,1,4,5,H-,1,3,0,0,1000,250.0,3,D31JA,351,test
752.7379989624023,3,0,2,1,4,5,H-,1,2,2,0,1000,250.0,2,D31JA,352,test
672.6579666137695,3,0,2,1,4,5,H-,1,5,5,0,1000,250.0,5,D31JA,353,test
704.8640251159668,3,0,2,1,4,5,H-,0,1,3,0,1000,250.0,0,D31JA,354,test
1488.8129234313965,3,0,2,1,4,5,H-,1,3,0,0,1000,250.0,3,D31JA,355,test
768.6941623687744,3,0,2,1,4,5,H-,1,5,5,0,1000,250.0,5,D31JA,356,test
560.593843460083,3,0,2,1,4,5,H-,1,5,5,0,1000,250.0,5,D31JA,357,test
832.8630924224854,3,0,2,1,4,5,H-,1,2,2,0,1000,250.0,2,D31JA,358,test
1184.8561763763428,3,0,2,1,4,5,H-,1,3,0,0,1000,250.0,3,D31JA,359,test
481.5351963043213,3,0,2,1,4,5,H-,1,4,4,0,1000,250.0,4,D31JA,360,test
560.7459545135498,3,0,2,1,4,5,H-,1,2,2,0,1000,250.0,2,D31JA,361,test
544.762134552002,3,0,2,1,4,5,H-,1,4,4,0,1000,250.0,4,D31JA,362,test
1024.7960090637207,3,0,2,1,4,5,H-,1,3,0,0,1000,250.0,3,D31JA,363,test
672.8289127349854,3,0,2,1,4,5,H-,1,4,4,0,1000,250.0,4,D31JA,364,test
496.6890811920166,3,0,2,1,4,5,H-,1,4,4,0,1000,250.0,4,D31JA,365,test
624.6728897094727,3,0,2,1,4,5,H-,1,0,1,0,1000,250.0,0,D31JA,366,test
1487.9260063171387,3,0,2,1,4,5,H-,1,1,3,0,1000,250.0,1,D31JA,367,test
608.7429523468018,3,0,2,1,4,5,H-,0,2,2,0,1000,250.0,3,D31JA,368,test
1600.818157196045,3,0,2,1,4,5,H-,1,3,0,0,1000,250.0,3,D31JA,369,test
576.6448974609375,3,0,2,1,4,5,H-,1,4,4,0,1000,250.0,4,D31JA,370,test
1376.7058849334717,3,0,2,1,4,5,H-,1,2,2,0,1000,250.0,2,D31JA,371,test
1488.3592128753662,3,0,2,1,4,5,H-,1,5,5,0,1000,250.0,5,D31JA,372,test
880.7218074798584,3,0,2,1,4,5,H-,1,1,3,0,1000,250.0,1,D31JA,373,test
769.5839405059814,3,0,2,1,4,5,H-,1,2,2,0,1000,250.0,2,D31JA,374,test
736.6840839385986,3,0,2,1,4,5,H-,1,1,3,0,1000,250.0,1,D31JA,375,test
672.6438999176025,3,0,2,1,4,5,H-,1,0,1,0,1000,250.0,0,D31JA,376,test
496.737003326416,3,0,2,1,4,5,H-,1,0,1,0,1000,250.0,0,D31JA,377,test
608.6840629577637,3,0,2,1,4,5,H-,1,4,4,0,1000,250.0,4,D31JA,378,test
480.8039665222168,3,0,2,1,4,5,H-,1,4,4,0,1000,250.0,4,D31JA,379,test
864.861011505127,3,0,2,1,4,5,H-,1,3,0,0,1000,250.0,3,D31JA,380,test
704.7698497772217,3,0,2,1,4,5,H-,1,2,2,0,1000,250.0,2,D31JA,381,test
1184.683084487915,3,0,2,1,4,5,H-,1,5,5,0,1000,250.0,5,D31JA,382,test
704.7879695892334,3,0,2,1,4,5,H-,1,0,1,0,1000,250.0,0,D31JA,383,test
672.7077960968018,3,0,2,1,4,5,H-,1,2,2,0,1000,250.0,2,D31JA,384,test
512.7241611480713,3,0,2,1,4,5,H-,1,2,2,0,1000,250.0,2,D31JA,385,test
928.8368225097656,3,0,2,1,4,5,H-,1,5,5,0,1000,250.0,5,D31JA,386,test
1312.6399517059326,3,0,2,1,4,5,H-,1,3,0,0,1000,250.0,3,D31JA,387,test
592.7910804748535,3,0,2,1,4,5,H-,1,3,0,0,1000,250.0,3,D31JA,388,test
1216.6149616241455,3,0,2,1,4,5,H-,1,5,5,0,1000,250.0,5,D31JA,389,test
848.8798141479492,3,0,2,1,4,5,H-,1,1,3,0,1000,250.0,1,D31JA,390,test
560.8141422271729,3,0,2,1,4,5,H-,1,4,4,0,1000,250.0,4,D31JA,391,test
992.8231239318848,3,0,2,1,4,5,H-,1,5,5,0,1000,250.0,5,D31JA,392,test
896.7230319976807,3,0,2,1,4,5,H-,1,1,3,0,1000,250.0,1,D31JA,393,test
864.997148513794,3,0,2,1,4,5,H-,1,0,1,0,1000,250.0,0,D31JA,394,test
672.7850437164307,3,0,2,1,4,5,H-,1,2,2,0,1000,250.0,2,D31JA,395,test
992.6981925964355,3,0,2,1,4,5,H-,1,3,0,0,1000,250.0,3,D31JA,396,test
592.8258895874023,3,0,2,1,4,5,H-,1,4,4,0,1000,250.0,4,D31JA,397,test
656.796932220459,3,0,2,1,4,5,H-,1,2,2,0,1000,250.0,2,D31JA,398,test
848.6840724945068,3,0,2,1,4,5,H-,1,0,1,0,1000,250.0,0,D31JA,399,test
1104.9129962921143,3,0,2,1,4,5,H-,1,2,2,0,1000,250.0,2,D31JA,400,test
656.7509174346924,3,0,2,1,4,5,H-,1,0,1,0,1000,250.0,0,D31JA,401,test
1232.6550483703613,3,0,2,1,4,5,H-,1,5,5,0,1000,250.0,5,D31JA,402,test
672.7981567382812,3,0,2,1,4,5,H-,1,4,4,0,1000,250.0,4,D31JA,403,test
1072.8468894958496,3,0,2,1,4,5,H-,1,1,3,0,1000,250.0,1,D31JA,404,test
704.7390937805176,3,0,2,1,4,5,H-,1,5,5,0,1000,250.0,5,D31JA,405,test
928.8318157196045,3,0,2,1,4,5,H-,1,2,2,0,1000,250.0,2,D31JA,406,test
1056.771993637085,3,0,2,1,4,5,H-,1,1,3,0,1000,250.0,1,D31JA,407,test
1296.6630458831787,3,0,2,1,4,5,H-,1,3,0,0,1000,250.0,3,D31JA,408,test
528.7380218505859,3,0,2,1,4,5,H-,1,2,2,0,1000,250.0,2,D31JA,409,test
896.7840671539307,3,0,2,1,4,5,H-,1,5,5,0,1000,250.0,5,D31JA,410,test
1264.9128437042236,3,0,2,1,4,5,H-,1,1,3,0,1000,250.0,1,D31JA,411,test
1376.7750263214111,3,0,2,1,4,5,H-,0,3,0,0,1000,250.0,4,D31JA,412,test
992.8200244903564,3,0,2,1,4,5,H-,1,0,1,0,1000,250.0,0,D31JA,413,test
704.779863357544,3,0,2,1,4,5,H-,1,4,4,0,1000,250.0,4,D31JA,414,test
1008.7339878082275,3,0,2,1,4,5,H-,1,1,3,0,1000,250.0,1,D31JA,415,test
624.932050704956,3,0,2,1,4,5,H-,1,4,4,0,1000,250.0,4,D31JA,416,test
592.7338600158691,3,0,2,1,4,5,H-,1,4,4,0,1000,250.0,4,D31JA,417,test
352.71596908569336,3,0,2,1,4,5,H-,1,4,4,0,1000,250.0,4,D31JA,418,test
720.7610607147217,3,0,2,1,4,5,H-,1,0,1,0,1000,250.0,0,D31JA,419,test
480.64494132995605,3,0,2,1,4,5,H-,1,0,1,0,1000,250.0,0,D31JA,420,test
1184.8020553588867,3,0,2,1,4,5,H-,1,3,0,0,1000,250.0,3,D31JA,421,test
384.7079277038574,3,0,2,1,4,5,H-,1,3,0,0,1000,250.0,3,D31JA,422,test
416.7289733886719,3,0,2,1,4,5,H-,1,3,0,0,1000,250.0,3,D31JA,423,test
656.7909717559814,3,0,2,1,4,5,H-,1,2,2,0,1000,250.0,2,D31JA,424,test
576.7440795898438,3,0,2,1,4,5,H-,1,4,4,0,1000,250.0,4,D31JA,425,test
624.7100830078125,3,0,2,1,4,5,H-,1,2,2,0,1000,250.0,2,D31JA,426,test
560.3668689727783,3,0,2,1,4,5,H-,1,0,1,0,1000,250.0,0,D31JA,427,test
816.8070316314697,3,0,2,1,4,5,H-,1,3,0,0,1000,250.0,3,D31JA,428,test
656.8441390991211,3,0,2,1,4,5,H-,1,4,4,0,1000,250.0,4,D31JA,429,test
400.7270336151123,3,0,2,1,4,5,H-,1,4,4,0,1000,250.0,4,D31JA,430,test
560.7340335845947,3,0,2,1,4,5,H-,0,2,2,0,1000,250.0,3,D31JA,431,test
880.922794342041,3,0,2,1,4,5,H-,1,2,2,0,1000,250.0,2,D31JA,432,test
560.8389377593994,3,0,2,1,4,5,H-,1,4,4,0,1000,250.0,4,D31JA,433,test
864.7201061248779,3,0,2,1,4,5,H-,1,5,5,0,1000,250.0,5,D31JA,434,test
496.6259002685547,3,0,2,1,4,5,H-,1,5,5,0,1000,250.0,5,D31JA,435,test
608.8230609893799,3,0,2,1,4,5,H-,1,4,4,0,1000,250.0,4,D31JA,436,test
688.74192237854,3,0,2,1,4,5,H-,1,2,2,0,1000,250.0,2,D31JA,437,test
1248.603105545044,3,0,2,1,4,5,H-,1,1,3,0,1000,250.0,1,D31JA,438,test
592.5338268280029,3,0,2,1,4,5,H-,1,0,1,0,1000,250.0,0,D31JA,439,test
544.6968078613281,3,0,2,1,4,5,H-,1,1,3,0,1000,250.0,1,D31JA,440,test
512.6421451568604,3,0,2,1,4,5,H-,1,0,1,0,1000,250.0,0,D31JA,441,test
640.6490802764893,3,0,2,1,4,5,H-,1,4,4,0,1000,250.0,4,D31JA,442,test
688.878059387207,3,0,2,1,4,5,H-,1,1,3,0,1000,250.0,1,D31JA,443,test
560.791015625,3,0,2,1,4,5,H-,1,0,1,0,1000,250.0,0,D31JA,444,test
608.8321208953857,3,0,2,1,4,5,H-,1,4,4,0,1000,250.0,4,D31JA,445,test
688.7011528015137,3,0,2,1,4,5,H-,1,2,2,0,1000,250.0,2,D31JA,446,test
800.7900714874268,3,0,2,1,4,5,H-,1,2,2,0,1000,250.0,2,D31JA,447,test
576.9579410552979,3,0,2,1,4,5,H-,1,0,1,0,1000,250.0,0,D31JA,448,test
1136.871099472046,3,0,2,1,4,5,H-,1,1,3,0,1000,250.0,1,D31JA,449,test
496.62113189697266,3,0,2,1,4,5,H-,1,1,3,0,1000,250.0,1,D31JA,450,test
656.8310260772705,3,0,2,1,4,5,H-,1,2,2,0,1000,250.0,2,D31JA,451,test
800.6429672241211,3,0,2,1,4,5,H-,0,1,3,0,1000,250.0,0,D31JA,452,test
720.8399772644043,3,0,2,1,4,5,H-,1,2,2,0,1000,250.0,2,D31JA,453,test
816.788911819458,3,0,2,1,4,5,H-,1,1,3,0,1000,250.0,1,D31JA,454,test
656.8400859832764,3,0,2,1,4,5,H-,1,2,2,0,1000,250.0,2,D31JA,455,test
816.8501853942871,3,0,2,1,4,5,H-,1,5,5,0,1000,250.0,5,D31JA,456,test
944.9079036712646,3,0,2,1,4,5,H-,1,1,3,0,1000,250.0,1,D31JA,457,test
865.1437759399414,3,0,2,1,4,5,H-,1,0,1,0,1000,250.0,0,D31JA,458,test
785.0489616394043,3,0,2,1,4,5,H-,1,5,5,0,1000,250.0,5,D31JA,459,test
753.2219886779785,3,0,2,1,4,5,H-,1,0,1,0,1000,250.0,0,D31JA,460,test
561.1588954925537,3,0,2,1,4,5,H-,1,0,1,0,1000,250.0,0,D31JA,461,test
529.1249752044678,3,0,2,1,4,5,H-,1,0,1,0,1000,250.0,0,D31JA,462,test
1216.9709205627441,3,0,2,1,4,5,H-,1,1,3,0,1000,250.0,1,D31JA,463,test
769.0119743347168,3,0,2,1,4,5,H-,1,2,2,0,1000,250.0,2,D31JA,464,test
833.1329822540283,3,0,2,1,4,5,H-,1,5,5,0,1000,250.0,5,D31JA,465,test
577.0077705383301,3,0,2,1,4,5,H-,1,0,1,0,1000,250.0,0,D31JA,466,test
1185.0590705871582,3,0,2,1,4,5,H-,1,2,2,0,1000,250.0,2,D31JA,467,test
657.0479869842529,3,0,2,1,4,5,H-,1,0,1,0,1000,250.0,0,D31JA,468,test
609.0550422668457,3,0,2,1,4,5,H-,1,4,4,0,1000,250.0,4,D31JA,469,test
561.028003692627,3,0,2,1,4,5,H-,1,2,2,0,1000,250.0,2,D31JA,470,test
737.0429039001465,3,0,2,1,4,5,H-,1,5,5,0,1000,250.0,5,D31JA,471,test
977.0970344543457,3,0,2,1,4,5,H-,1,3,0,0,1000,250.0,3,D31JA,472,test
561.0837936401367,3,0,2,1,4,5,H-,1,0,1,0,1000,250.0,0,D31JA,473,test
577.1360397338867,3,0,2,1,4,5,H-,1,5,5,0,1000,250.0,5,D31JA,474,test
465.03496170043945,3,0,2,1,4,5,H-,1,5,5,0,1000,250.0,5,D31JA,475,test
673.1209754943848,3,0,2,1,4,5,H-,1,3,0,0,1000,250.0,3,D31JA,476,test
1169.0688133239746,3,0,2,1,4,5,H-,0,1,3,0,1000,250.0,0,D31JA,477,test
688.9019012451172,3,0,2,1,4,5,H-,1,5,5,0,1000,250.0,5,D31JA,478,test
577.1441459655762,3,0,2,1,4,5,H-,1,5,5,0,1000,250.0,5,D31JA,479,test
705.1489353179932,3,0,2,1,4,5,H-,1,3,0,0,1000,250.0,3,D31JA,480,test
609.1179847717285,3,0,2,1,4,5,H-,1,0,1,0,1000,250.0,0,D31JA,481,test
465.1319980621338,3,0,2,1,4,5,H-,1,0,1,0,1000,250.0,0,D31JA,482,test
465.130090713501,3,0,2,1,4,5,H-,1,5,5,0,1000,250.0,5,D31JA,483,test
529.0927886962891,3,0,2,1,4,5,H-,1,4,4,0,1000,250.0,4,D31JA,484,test
577.003002166748,3,0,2,1,4,5,H-,1,5,5,0,1000,250.0,5,D31JA,485,test
641.0989761352539,3,0,2,1,4,5,H-,1,2,2,0,1000,250.0,2,D31JA,486,test
865.09108543396,3,0,2,1,4,5,H-,1,1,3,0,1000,250.0,1,D31JA,487,test
640.9411430358887,3,0,2,1,4,5,H-,1,2,2,0,1000,250.0,2,D31JA,488,test
929.1079044342041,3,0,2,1,4,5,H-,1,1,3,0,1000,250.0,1,D31JA,489,test
609.0469360351562,3,0,2,1,4,5,H-,1,5,5,0,1000,250.0,5,D31JA,490,test
801.1069297790527,3,0,2,1,4,5,H-,1,5,5,0,1000,250.0,5,D31JA,491,test
561.1269474029541,3,0,2,1,4,5,H-,1,4,4,0,1000,250.0,4,D31JA,492,test
529.0250778198242,3,0,2,1,4,5,H-,1,4,4,0,1000,250.0,4,D31JA,493,test
641.0951614379883,3,0,2,1,4,5,H-,1,3,0,0,1000,250.0,3,D31JA,494,test
721.1248874664307,3,0,2,1,4,5,H-,1,1,3,0,1000,250.0,1,D31JA,495,test
576.815128326416,3,0,2,1,4,5,H-,1,1,3,0,1000,250.0,1,D31JA,496,test
496.65021896362305,3,0,2,1,4,5,H-,1,1,3,0,1000,250.0,1,D31JA,497,test
576.801061630249,3,0,2,1,4,5,H-,1,0,1,0,1000,250.0,0,D31JA,498,test
528.846025466919,3,0,2,1,4,5,H-,1,2,2,0,1000,250.0,2,D31JA,499,test
