RT,SRmap_0,SRmap_1,SRmap_2,SRmap_3,SRmap_4,SRmap_5,condition,correct,correct_response,curstim,ms-precue,ms-prestimblank,ntrials,response,subject,trial,type
2000.425100326538,5,1,3,0,4,2,M,1,1,1,0,1000,250.0,1,c15sm,0,train
1311.141014099121,5,1,3,0,4,2,M,0,4,4,0,1000,250.0,3,c15sm,1,train
816.9059753417969,5,1,3,0,4,2,M,1,4,4,0,1000,250.0,4,c15sm,2,train
655.8740139007568,5,1,3,0,4,2,M,1,0,3,0,1000,250.0,0,c15sm,3,train
928.7669658660889,5,1,3,0,4,2,M,0,5,0,0,1000,250.0,4,c15sm,4,train
1424.9298572540283,5,1,3,0,4,2,M,1,3,2,0,1000,250.0,3,c15sm,5,train
801.2840747833252,5,1,3,0,4,2,M,1,5,0,0,1000,250.0,5,c15sm,6,train
784.4629287719727,5,1,3,0,4,2,M,1,4,4,0,1000,250.0,4,c15sm,7,train
784.3170166015625,5,1,3,0,4,2,M,1,3,2,0,1000,250.0,3,c15sm,8,train
817.1300888061523,5,1,3,0,4,2,M,0,2,5,0,1000,250.0,0,c15sm,9,train
1360.90087890625,5,1,3,0,4,2,M,1,3,2,0,1000,250.0,3,c15sm,10,train
1025.1550674438477,5,1,3,0,4,2,M,0,5,0,0,1000,250.0,4,c15sm,11,train
576.9190788269043,5,1,3,0,4,2,M,1,0,3,0,1000,250.0,0,c15sm,12,train
496.5817928314209,5,1,3,0,4,2,M,1,0,3,0,1000,250.0,0,c15sm,13,train
672.7340221405029,5,1,3,0,4,2,M,0,2,5,0,1000,250.0,1,c15sm,14,train
961.2221717834473,5,1,3,0,4,2,M,1,3,2,0,1000,250.0,3,c15sm,15,train
625.201940536499,5,1,3,0,4,2,M,1,3,2,0,1000,250.0,3,c15sm,16,train
960.4229927062988,5,1,3,0,4,2,M,1,1,1,0,1000,250.0,1,c15sm,17,train
1072.7508068084717,5,1,3,0,4,2,M,1,4,4,0,1000,250.0,4,c15sm,18,train
720.9219932556152,5,1,3,0,4,2,M,1,3,2,0,1000,250.0,3,c15sm,19,train
465.1598930358887,5,1,3,0,4,2,M,1,0,3,0,1000,250.0,0,c15sm,20,train
1536.6220474243164,5,1,3,0,4,2,M,0,4,4,0,1000,250.0,2,c15sm,21,train
449.052095413208,5,1,3,0,4,2,M,1,0,3,0,1000,250.0,0,c15sm,22,train
1248.784065246582,5,1,3,0,4,2,M,1,4,4,0,1000,250.0,4,c15sm,23,train
624.7179508209229,5,1,3,0,4,2,M,1,4,4,0,1000,250.0,4,c15sm,24,train
1088.5181427001953,5,1,3,0,4,2,M,1,1,1,0,1000,250.0,1,c15sm,25,train
721.5900421142578,5,1,3,0,4,2,M,1,5,0,0,1000,250.0,5,c15sm,26,train
1440.9101009368896,5,1,3,0,4,2,M,1,2,5,0,1000,250.0,2,c15sm,27,train
592.8969383239746,5,1,3,0,4,2,M,1,2,5,0,1000,250.0,2,c15sm,28,train
1249.4988441467285,5,1,3,0,4,2,M,1,4,4,0,1000,250.0,4,c15sm,29,train
1409.3399047851562,5,1,3,0,4,2,M,0,5,0,0,1000,250.0,4,c15sm,30,train
1153.0449390411377,5,1,3,0,4,2,M,1,4,4,0,1000,250.0,4,c15sm,31,train
1216.583013534546,5,1,3,0,4,2,M,1,2,5,0,1000,250.0,2,c15sm,32,train
593.1429862976074,5,1,3,0,4,2,M,1,2,5,0,1000,250.0,2,c15sm,33,train
513.3788585662842,5,1,3,0,4,2,M,1,2,5,0,1000,250.0,2,c15sm,34,train
640.6540870666504,5,1,3,0,4,2,M,1,3,2,0,1000,250.0,3,c15sm,35,train
640.7930850982666,5,1,3,0,4,2,M,1,5,0,0,1000,250.0,5,c15sm,36,train
1520.550012588501,5,1,3,0,4,2,M,1,1,1,0,1000,250.0,1,c15sm,37,train
529.2978286743164,5,1,3,0,4,2,M,1,0,3,0,1000,250.0,0,c15sm,38,train
912.4879837036133,5,1,3,0,4,2,M,1,3,2,0,1000,250.0,3,c15sm,39,train
848.578929901123,5,1,3,0,4,2,M,1,1,1,0,1000,250.0,1,c15sm,40,train
400.4027843475342,5,1,3,0,4,2,M,1,0,3,0,1000,250.0,0,c15sm,41,train
768.7749862670898,5,1,3,0,4,2,M,1,2,5,0,1000,250.0,2,c15sm,42,train
416.00918769836426,5,1,3,0,4,2,M,1,1,1,0,1000,250.0,1,c15sm,43,train
625.4329681396484,5,1,3,0,4,2,M,1,2,5,0,1000,250.0,2,c15sm,44,train
592.6251411437988,5,1,3,0,4,2,M,1,2,5,0,1000,250.0,2,c15sm,45,train
704.4849395751953,5,1,3,0,4,2,M,1,3,2,0,1000,250.0,3,c15sm,46,train
817.0039653778076,5,1,3,0,4,2,M,1,2,5,0,1000,250.0,2,c15sm,47,train
768.4109210968018,5,1,3,0,4,2,M,1,4,4,0,1000,250.0,4,c15sm,48,train
462.51893043518066,5,1,3,0,4,2,M,1,5,0,0,1000,250.0,5,c15sm,49,train
640.9749984741211,5,1,3,0,4,2,M,1,0,3,0,1000,250.0,0,c15sm,50,train
703.6042213439941,5,1,3,0,4,2,M,1,3,2,0,1000,250.0,3,c15sm,51,train
544.7001457214355,5,1,3,0,4,2,M,1,3,2,0,1000,250.0,3,c15sm,52,train
960.5138301849365,5,1,3,0,4,2,M,1,2,5,0,1000,250.0,2,c15sm,53,train
640.9268379211426,5,1,3,0,4,2,M,1,4,4,0,1000,250.0,4,c15sm,54,train
640.9168243408203,5,1,3,0,4,2,M,0,5,0,0,1000,250.0,4,c15sm,55,train
1152.400016784668,5,1,3,0,4,2,M,1,2,5,0,1000,250.0,2,c15sm,56,train
944.7460174560547,5,1,3,0,4,2,M,1,5,0,0,1000,250.0,5,c15sm,57,train
480.8540344238281,5,1,3,0,4,2,M,1,5,0,0,1000,250.0,5,c15sm,58,train
592.6871299743652,5,1,3,0,4,2,M,1,5,0,0,1000,250.0,5,c15sm,59,train
800.4450798034668,5,1,3,0,4,2,M,1,1,1,0,1000,250.0,1,c15sm,60,train
560.1820945739746,5,1,3,0,4,2,M,1,1,1,0,1000,250.0,1,c15sm,61,train
448.9939212799072,5,1,3,0,4,2,M,1,0,3,0,1000,250.0,0,c15sm,62,train
832.8280448913574,5,1,3,0,4,2,M,1,3,2,0,1000,250.0,3,c15sm,63,train
768.5258388519287,5,1,3,0,4,2,M,1,2,5,0,1000,250.0,2,c15sm,64,train
688.1558895111084,5,1,3,0,4,2,M,1,4,4,0,1000,250.0,4,c15sm,65,train
528.8949012756348,5,1,3,0,4,2,M,1,1,1,0,1000,250.0,1,c15sm,66,train
496.87790870666504,5,1,3,0,4,2,M,1,1,1,0,1000,250.0,1,c15sm,67,train
448.91810417175293,5,1,3,0,4,2,M,1,1,1,0,1000,250.0,1,c15sm,68,train
479.1290760040283,5,1,3,0,4,2,M,1,0,3,0,1000,250.0,0,c15sm,69,train
640.9080028533936,5,1,3,0,4,2,M,1,3,2,0,1000,250.0,3,c15sm,70,train
816.7388439178467,5,1,3,0,4,2,M,1,3,2,0,1000,250.0,3,c15sm,71,train
448.9459991455078,5,1,3,0,4,2,M,1,3,2,0,1000,250.0,3,c15sm,72,train
496.97089195251465,5,1,3,0,4,2,M,1,0,3,0,1000,250.0,0,c15sm,73,train
545.0699329376221,5,1,3,0,4,2,M,0,2,5,0,1000,250.0,1,c15sm,74,train
592.7329063415527,5,1,3,0,4,2,M,1,1,1,0,1000,250.0,1,c15sm,75,train
576.7800807952881,5,1,3,0,4,2,M,1,3,2,0,1000,250.0,3,c15sm,76,train
417.2830581665039,5,1,3,0,4,2,M,1,3,2,0,1000,250.0,3,c15sm,77,train
752.4919509887695,5,1,3,0,4,2,M,1,2,5,0,1000,250.0,2,c15sm,78,train
576.941967010498,5,1,3,0,4,2,M,1,1,1,0,1000,250.0,1,c15sm,79,train
432.7878952026367,5,1,3,0,4,2,M,1,1,1,0,1000,250.0,1,c15sm,80,train
401.2329578399658,5,1,3,0,4,2,M,1,0,3,0,1000,250.0,0,c15sm,81,train
336.43293380737305,5,1,3,0,4,2,M,1,0,3,0,1000,250.0,0,c15sm,82,train
353.08098793029785,5,1,3,0,4,2,M,1,0,3,0,1000,250.0,0,c15sm,83,train
592.7689075469971,5,1,3,0,4,2,M,1,1,1,0,1000,250.0,1,c15sm,84,train
640.8920288085938,5,1,3,0,4,2,M,1,2,5,0,1000,250.0,2,c15sm,85,train
544.9450016021729,5,1,3,0,4,2,M,1,0,3,0,1000,250.0,0,c15sm,86,train
592.3769474029541,5,1,3,0,4,2,M,1,3,2,0,1000,250.0,3,c15sm,87,train
801.0220527648926,5,1,3,0,4,2,M,0,5,0,0,1000,250.0,4,c15sm,88,train
609.2569828033447,5,1,3,0,4,2,M,1,1,1,0,1000,250.0,1,c15sm,89,train
672.8999614715576,5,1,3,0,4,2,M,1,5,0,0,1000,250.0,5,c15sm,90,train
561.2399578094482,5,1,3,0,4,2,M,1,0,3,0,1000,250.0,0,c15sm,91,train
912.9109382629395,5,1,3,0,4,2,M,1,3,2,0,1000,250.0,3,c15sm,92,train
688.4260177612305,5,1,3,0,4,2,M,0,2,5,0,1000,250.0,1,c15sm,93,train
801.3191223144531,5,1,3,0,4,2,M,1,5,0,0,1000,250.0,5,c15sm,94,train
497.0829486846924,5,1,3,0,4,2,M,1,5,0,0,1000,250.0,5,c15sm,95,train
480.9110164642334,5,1,3,0,4,2,M,1,0,3,0,1000,250.0,0,c15sm,96,train
992.0220375061035,5,1,3,0,4,2,M,1,4,4,0,1000,250.0,4,c15sm,97,train
640.3028964996338,5,1,3,0,4,2,M,1,3,2,0,1000,250.0,3,c15sm,98,train
673.1259822845459,5,1,3,0,4,2,M,1,1,1,0,1000,250.0,1,c15sm,99,train
416.59998893737793,5,1,3,0,4,2,M,1,1,1,0,1000,250.0,1,c15sm,100,train
288.5022163391113,5,1,3,0,4,2,M,1,1,1,0,1000,250.0,1,c15sm,101,train
448.4140872955322,5,1,3,0,4,2,M,1,0,3,0,1000,250.0,0,c15sm,102,train
640.4459476470947,5,1,3,0,4,2,M,1,4,4,0,1000,250.0,4,c15sm,103,train
480.6041717529297,5,1,3,0,4,2,M,1,0,3,0,1000,250.0,0,c15sm,104,train
801.1329174041748,5,1,3,0,4,2,M,1,3,2,0,1000,250.0,3,c15sm,105,train
528.4910202026367,5,1,3,0,4,2,M,1,1,1,0,1000,250.0,1,c15sm,106,train
608.6421012878418,5,1,3,0,4,2,M,1,4,4,0,1000,250.0,4,c15sm,107,train
496.92702293395996,5,1,3,0,4,2,M,1,0,3,0,1000,250.0,0,c15sm,108,train
575.5631923675537,5,1,3,0,4,2,M,1,5,0,0,1000,250.0,5,c15sm,109,train
512.7019882202148,5,1,3,0,4,2,M,1,0,3,0,1000,250.0,0,c15sm,110,train
576.801061630249,5,1,3,0,4,2,M,0,2,5,0,1000,250.0,1,c15sm,111,train
688.6019706726074,5,1,3,0,4,2,M,1,4,4,0,1000,250.0,4,c15sm,112,train
816.8540000915527,5,1,3,0,4,2,M,1,3,2,0,1000,250.0,3,c15sm,113,train
512.606143951416,5,1,3,0,4,2,M,1,0,3,0,1000,250.0,0,c15sm,114,train
704.6980857849121,5,1,3,0,4,2,M,1,1,1,0,1000,250.0,1,c15sm,115,train
721.0679054260254,5,1,3,0,4,2,M,1,4,4,0,1000,250.0,4,c15sm,116,train
513.408899307251,5,1,3,0,4,2,M,1,5,0,0,1000,250.0,5,c15sm,117,train
528.4960269927979,5,1,3,0,4,2,M,1,5,0,0,1000,250.0,5,c15sm,118,train
2000.9360313415527,5,1,3,0,4,2,M,1,3,2,0,1000,250.0,3,c15sm,119,train
608.558177947998,5,1,3,0,4,2,M,1,3,2,0,1000,250.0,3,c15sm,120,train
512.4509334564209,5,1,3,0,4,2,M,1,3,2,0,1000,250.0,3,c15sm,121,train
512.915849685669,5,1,3,0,4,2,M,0,5,0,0,1000,250.0,4,c15sm,122,train
624.8691082000732,5,1,3,0,4,2,M,1,4,4,0,1000,250.0,4,c15sm,123,train
560.431957244873,5,1,3,0,4,2,M,1,3,2,0,1000,250.0,3,c15sm,124,train
640.5680179595947,5,1,3,0,4,2,M,1,4,4,0,1000,250.0,4,c15sm,125,train
1137.026071548462,5,1,3,0,4,2,M,1,2,5,0,1000,250.0,2,c15sm,126,train
928.30491065979,5,1,3,0,4,2,M,1,3,2,0,1000,250.0,3,c15sm,127,train
608.4029674530029,5,1,3,0,4,2,M,1,5,0,0,1000,250.0,5,c15sm,128,train
480.60107231140137,5,1,3,0,4,2,M,1,5,0,0,1000,250.0,5,c15sm,129,train
400.7430076599121,5,1,3,0,4,2,M,1,5,0,0,1000,250.0,5,c15sm,130,train
608.5200309753418,5,1,3,0,4,2,M,1,4,4,0,1000,250.0,4,c15sm,131,train
512.5229358673096,5,1,3,0,4,2,M,1,5,0,0,1000,250.0,5,c15sm,132,train
689.3789768218994,5,1,3,0,4,2,M,1,3,2,0,1000,250.0,3,c15sm,133,train
576.9619941711426,5,1,3,0,4,2,M,1,5,0,0,1000,250.0,5,c15sm,134,train
560.107946395874,5,1,3,0,4,2,M,1,4,4,0,1000,250.0,4,c15sm,135,train
608.3371639251709,5,1,3,0,4,2,M,1,4,4,0,1000,250.0,4,c15sm,136,train
656.714916229248,5,1,3,0,4,2,M,0,2,5,0,1000,250.0,3,c15sm,137,train
816.5988922119141,5,1,3,0,4,2,M,1,3,2,0,1000,250.0,3,c15sm,138,train
881.1309337615967,5,1,3,0,4,2,M,1,2,5,0,1000,250.0,2,c15sm,139,train
689.0981197357178,5,1,3,0,4,2,M,1,4,4,0,1000,250.0,4,c15sm,140,train
752.4929046630859,5,1,3,0,4,2,M,1,1,1,0,1000,250.0,1,c15sm,141,train
576.5440464019775,5,1,3,0,4,2,M,1,5,0,0,1000,250.0,5,c15sm,142,train
593.1041240692139,5,1,3,0,4,2,M,1,4,4,0,1000,250.0,4,c15sm,143,train
801.59592628479,5,1,3,0,4,2,M,1,2,5,0,1000,250.0,2,c15sm,144,train
560.7719421386719,5,1,3,0,4,2,M,1,4,4,0,1000,250.0,4,c15sm,145,train
768.9869403839111,5,1,3,0,4,2,M,1,3,2,0,1000,250.0,3,c15sm,146,train
544.5220470428467,5,1,3,0,4,2,M,1,3,2,0,1000,250.0,3,c15sm,147,train
577.1269798278809,5,1,3,0,4,2,M,1,0,3,0,1000,250.0,0,c15sm,148,train
609.5860004425049,5,1,3,0,4,2,M,1,2,5,0,1000,250.0,2,c15sm,149,train
464.7970199584961,5,1,3,0,4,2,M,1,2,5,0,1000,250.0,2,c15sm,150,train
480.0760746002197,5,1,3,0,4,2,M,1,1,1,0,1000,250.0,1,c15sm,151,train
494.77195739746094,5,1,3,0,4,2,M,1,0,3,0,1000,250.0,0,c15sm,152,train
448.9269256591797,5,1,3,0,4,2,M,1,1,1,0,1000,250.0,1,c15sm,153,train
624.2070198059082,5,1,3,0,4,2,M,1,3,2,0,1000,250.0,3,c15sm,154,train
560.7519149780273,5,1,3,0,4,2,M,1,4,4,0,1000,250.0,4,c15sm,155,train
464.96105194091797,5,1,3,0,4,2,M,1,4,4,0,1000,250.0,4,c15sm,156,train
400.7430076599121,5,1,3,0,4,2,M,1,4,4,0,1000,250.0,4,c15sm,157,train
496.3269233703613,5,1,3,0,4,2,M,0,0,3,0,1000,250.0,3,c15sm,158,train
577.0089626312256,5,1,3,0,4,2,M,1,1,1,0,1000,250.0,1,c15sm,159,train
592.4990177154541,5,1,3,0,4,2,M,0,4,4,0,1000,250.0,1,c15sm,160,train
624.398946762085,5,1,3,0,4,2,M,1,4,4,0,1000,250.0,4,c15sm,161,train
417.3319339752197,5,1,3,0,4,2,M,1,4,4,0,1000,250.0,4,c15sm,162,train
512.4180316925049,5,1,3,0,4,2,M,1,0,3,0,1000,250.0,0,c15sm,163,train
496.4888095855713,5,1,3,0,4,2,M,1,1,1,0,1000,250.0,1,c15sm,164,train
849.2329120635986,5,1,3,0,4,2,M,1,5,0,0,1000,250.0,5,c15sm,165,train
976.9229888916016,5,1,3,0,4,2,M,1,3,2,0,1000,250.0,3,c15sm,166,train
513.7321949005127,5,1,3,0,4,2,M,1,5,0,0,1000,250.0,5,c15sm,167,train
576.7991542816162,5,1,3,0,4,2,M,1,1,1,0,1000,250.0,1,c15sm,168,train
720.3960418701172,5,1,3,0,4,2,M,1,4,4,0,1000,250.0,4,c15sm,169,train
609.246015548706,5,1,3,0,4,2,M,1,5,0,0,1000,250.0,5,c15sm,170,train
720.8099365234375,5,1,3,0,4,2,M,1,1,1,0,1000,250.0,1,c15sm,171,train
576.1940479278564,5,1,3,0,4,2,M,1,2,5,0,1000,250.0,2,c15sm,172,train
593.0469036102295,5,1,3,0,4,2,M,1,2,5,0,1000,250.0,2,c15sm,173,train
511.5818977355957,5,1,3,0,4,2,M,1,1,1,0,1000,250.0,1,c15sm,174,train
864.2668724060059,5,1,3,0,4,2,M,1,3,2,0,1000,250.0,3,c15sm,175,train
832.4458599090576,5,1,3,0,4,2,M,1,2,5,0,1000,250.0,2,c15sm,176,train
480.4079532623291,5,1,3,0,4,2,M,1,2,5,0,1000,250.0,2,c15sm,177,train
561.2621307373047,5,1,3,0,4,2,M,1,3,2,0,1000,250.0,3,c15sm,178,train
576.9970417022705,5,1,3,0,4,2,M,1,2,5,0,1000,250.0,2,c15sm,179,train
560.7759952545166,5,1,3,0,4,2,M,1,5,0,0,1000,250.0,5,c15sm,180,train
544.3320274353027,5,1,3,0,4,2,M,1,2,5,0,1000,250.0,2,c15sm,181,train
512.2170448303223,5,1,3,0,4,2,M,1,2,5,0,1000,250.0,2,c15sm,182,train
545.1200008392334,5,1,3,0,4,2,M,1,5,0,0,1000,250.0,5,c15sm,183,train
640.3820514678955,5,1,3,0,4,2,M,1,3,2,0,1000,250.0,3,c15sm,184,train
513.6959552764893,5,1,3,0,4,2,M,1,0,3,0,1000,250.0,0,c15sm,185,train
720.587968826294,5,1,3,0,4,2,M,1,4,4,0,1000,250.0,4,c15sm,186,train
720.4611301422119,5,1,3,0,4,2,M,1,2,5,0,1000,250.0,2,c15sm,187,train
512.7320289611816,5,1,3,0,4,2,M,1,1,1,0,1000,250.0,1,c15sm,188,train
576.462984085083,5,1,3,0,4,2,M,1,2,5,0,1000,250.0,2,c15sm,189,train
576.0729312896729,5,1,3,0,4,2,M,1,4,4,0,1000,250.0,4,c15sm,190,train
736.9990348815918,5,1,3,0,4,2,M,1,4,4,0,1000,250.0,4,c15sm,191,train
672.5668907165527,5,1,3,0,4,2,M,1,0,3,0,1000,250.0,0,c15sm,192,train
912.0340347290039,5,1,3,0,4,2,M,1,3,2,0,1000,250.0,3,c15sm,193,train
464.5700454711914,5,1,3,0,4,2,M,1,4,4,0,1000,250.0,4,c15sm,194,train
640.5808925628662,5,1,3,0,4,2,M,1,5,0,0,1000,250.0,5,c15sm,195,train
448.5290050506592,5,1,3,0,4,2,M,1,4,4,0,1000,250.0,4,c15sm,196,train
577.103853225708,5,1,3,0,4,2,M,1,5,0,0,1000,250.0,5,c15sm,197,train
417.2070026397705,5,1,3,0,4,2,M,1,5,0,0,1000,250.0,5,c15sm,198,train
704.4649124145508,5,1,3,0,4,2,M,1,1,1,0,1000,250.0,1,c15sm,199,train
544.9349880218506,5,1,3,0,4,2,M,1,2,5,0,1000,250.0,2,c15sm,200,train
865.4229640960693,5,1,3,0,4,2,M,1,2,5,0,1000,250.0,2,c15sm,201,train
462.88204193115234,5,1,3,0,4,2,M,1,4,4,0,1000,250.0,4,c15sm,202,train
494.98605728149414,5,1,3,0,4,2,M,1,0,3,0,1000,250.0,0,c15sm,203,train
560.5220794677734,5,1,3,0,4,2,M,1,0,3,0,1000,250.0,0,c15sm,204,train
385.15210151672363,5,1,3,0,4,2,M,1,0,3,0,1000,250.0,0,c15sm,205,train
688.0149841308594,5,1,3,0,4,2,M,1,3,2,0,1000,250.0,3,c15sm,206,train
609.4410419464111,5,1,3,0,4,2,M,1,1,1,0,1000,250.0,1,c15sm,207,train
465.04902839660645,5,1,3,0,4,2,M,1,0,3,0,1000,250.0,0,c15sm,208,train
625.3271102905273,5,1,3,0,4,2,M,1,4,4,0,1000,250.0,4,c15sm,209,train
400.84290504455566,5,1,3,0,4,2,M,1,4,4,0,1000,250.0,4,c15sm,210,train
833.09006690979,5,1,3,0,4,2,M,1,3,2,0,1000,250.0,3,c15sm,211,train
448.4550952911377,5,1,3,0,4,2,M,1,0,3,0,1000,250.0,0,c15sm,212,train
592.4241542816162,5,1,3,0,4,2,M,1,4,4,0,1000,250.0,4,c15sm,213,train
385.39600372314453,5,1,3,0,4,2,M,1,0,3,0,1000,250.0,0,c15sm,214,train
401.14784240722656,5,1,3,0,4,2,M,1,0,3,0,1000,250.0,0,c15sm,215,train
591.0189151763916,5,1,3,0,4,2,M,1,5,0,0,1000,250.0,5,c15sm,216,train
464.5040035247803,5,1,3,0,4,2,M,1,0,3,0,1000,250.0,0,c15sm,217,train
751.3020038604736,5,1,3,0,4,2,M,1,3,2,0,1000,250.0,3,c15sm,218,train
480.62610626220703,5,1,3,0,4,2,M,1,0,3,0,1000,250.0,0,c15sm,219,train
496.5779781341553,5,1,3,0,4,2,M,1,5,0,0,1000,250.0,5,c15sm,220,train
479.57301139831543,5,1,3,0,4,2,M,1,5,0,0,1000,250.0,5,c15sm,221,train
401.1969566345215,5,1,3,0,4,2,M,1,5,0,0,1000,250.0,5,c15sm,222,train
607.5479984283447,5,1,3,0,4,2,M,0,2,5,0,1000,250.0,1,c15sm,223,train
496.80209159851074,5,1,3,0,4,2,M,1,5,0,0,1000,250.0,5,c15sm,224,train
688.4050369262695,5,1,3,0,4,2,M,1,3,2,0,1000,250.0,3,c15sm,225,train
497.45893478393555,5,1,3,0,4,2,M,1,3,2,0,1000,250.0,3,c15sm,226,train
368.86000633239746,5,1,3,0,4,2,M,1,3,2,0,1000,250.0,3,c15sm,227,train
528.3160209655762,5,1,3,0,4,2,M,0,5,0,0,1000,250.0,4,c15sm,228,train
464.3900394439697,5,1,3,0,4,2,M,1,4,4,0,1000,250.0,4,c15sm,229,train
464.5860195159912,5,1,3,0,4,2,M,0,0,3,0,1000,250.0,3,c15sm,230,train
593.4319496154785,5,1,3,0,4,2,M,1,4,4,0,1000,250.0,4,c15sm,231,train
561.0871315002441,5,1,3,0,4,2,M,1,5,0,0,1000,250.0,5,c15sm,232,train
465.26193618774414,5,1,3,0,4,2,M,1,5,0,0,1000,250.0,5,c15sm,233,train
560.4119300842285,5,1,3,0,4,2,M,1,3,2,0,1000,250.0,3,c15sm,234,train
544.5489883422852,5,1,3,0,4,2,M,1,5,0,0,1000,250.0,5,c15sm,235,train
417.74797439575195,5,1,3,0,4,2,M,1,3,2,0,1000,250.0,3,c15sm,236,train
561.2261295318604,5,1,3,0,4,2,M,1,0,3,0,1000,250.0,0,c15sm,237,train
736.4840507507324,5,1,3,0,4,2,M,1,4,4,0,1000,250.0,4,c15sm,238,train
624.9949932098389,5,1,3,0,4,2,M,0,1,1,0,1000,250.0,4,c15sm,239,train
480.6790351867676,5,1,3,0,4,2,M,1,0,3,0,1000,250.0,0,c15sm,240,train
448.49300384521484,5,1,3,0,4,2,M,1,1,1,0,1000,250.0,1,c15sm,241,train
448.29511642456055,5,1,3,0,4,2,M,1,0,3,0,1000,250.0,0,c15sm,242,train
576.7459869384766,5,1,3,0,4,2,M,1,2,5,0,1000,250.0,2,c15sm,243,train
592.6170349121094,5,1,3,0,4,2,M,1,3,2,0,1000,250.0,3,c15sm,244,train
449.00989532470703,5,1,3,0,4,2,M,1,0,3,0,1000,250.0,0,c15sm,245,train
672.1081733703613,5,1,3,0,4,2,M,1,3,2,0,1000,250.0,3,c15sm,246,train
512.4387741088867,5,1,3,0,4,2,M,1,5,0,0,1000,250.0,5,c15sm,247,train
752.3400783538818,5,1,3,0,4,2,M,1,4,4,0,1000,250.0,4,c15sm,248,train
753.19504737854,5,1,3,0,4,2,M,1,1,1,0,1000,250.0,1,c15sm,249,train
8880.007028579712,5,1,3,0,4,2,M,1,4,4,0,1000,250.0,4,c15sm,250,test
2897.3100185394287,5,1,3,0,4,2,M,1,2,5,0,1000,250.0,2,c15sm,251,test
2160.0379943847656,5,1,3,0,4,2,M,1,0,3,0,1000,250.0,0,c15sm,252,test
3359.898090362549,5,1,3,0,4,2,M,1,3,2,0,1000,250.0,3,c15sm,253,test
1855.0310134887695,5,1,3,0,4,2,M,1,0,3,0,1000,250.0,0,c15sm,254,test
3088.106870651245,5,1,3,0,4,2,M,0,4,4,0,1000,250.0,3,c15sm,255,test
2288.5351181030273,5,1,3,0,4,2,M,1,2,5,0,1000,250.0,2,c15sm,256,test
1504.176139831543,5,1,3,0,4,2,M,1,0,3,0,1000,250.0,0,c15sm,257,test
1649.1920948028564,5,1,3,0,4,2,M,1,1,1,0,1000,250.0,1,c15sm,258,test
1104.3012142181396,5,1,3,0,4,2,M,1,0,3,0,1000,250.0,0,c15sm,259,test
1760.3249549865723,5,1,3,0,4,2,M,0,5,0,0,1000,250.0,4,c15sm,260,test
1264.4999027252197,5,1,3,0,4,2,M,1,0,3,0,1000,250.0,0,c15sm,261,test
1344.3388938903809,5,1,3,0,4,2,M,1,2,5,0,1000,250.0,2,c15sm,262,test
1600.283145904541,5,1,3,0,4,2,M,1,5,0,0,1000,250.0,5,c15sm,263,test
1728.518009185791,5,1,3,0,4,2,M,1,2,5,0,1000,250.0,2,c15sm,264,test
1265.1419639587402,5,1,3,0,4,2,M,1,1,1,0,1000,250.0,1,c15sm,265,test
3280.0559997558594,5,1,3,0,4,2,M,1,4,4,0,1000,250.0,4,c15sm,266,test
2465.0111198425293,5,1,3,0,4,2,M,1,3,2,0,1000,250.0,3,c15sm,267,test
1118.8311576843262,5,1,3,0,4,2,M,1,4,4,0,1000,250.0,4,c15sm,268,test
1297.0919609069824,5,1,3,0,4,2,M,1,0,3,0,1000,250.0,0,c15sm,269,test
1680.499792098999,5,1,3,0,4,2,M,1,3,2,0,1000,250.0,3,c15sm,270,test
1152.1048545837402,5,1,3,0,4,2,M,1,0,3,0,1000,250.0,0,c15sm,271,test
992.6421642303467,5,1,3,0,4,2,M,1,1,1,0,1000,250.0,1,c15sm,272,test
976.3998985290527,5,1,3,0,4,2,M,1,0,3,0,1000,250.0,0,c15sm,273,test
816.4281845092773,5,1,3,0,4,2,M,1,0,3,0,1000,250.0,0,c15sm,274,test
1792.2449111938477,5,1,3,0,4,2,M,1,4,4,0,1000,250.0,4,c15sm,275,test
832.6079845428467,5,1,3,0,4,2,M,1,0,3,0,1000,250.0,0,c15sm,276,test
1295.7360744476318,5,1,3,0,4,2,M,1,4,4,0,1000,250.0,4,c15sm,277,test
1376.9922256469727,5,1,3,0,4,2,M,1,2,5,0,1000,250.0,2,c15sm,278,test
689.3429756164551,5,1,3,0,4,2,M,1,2,5,0,1000,250.0,2,c15sm,279,test
1776.2398719787598,5,1,3,0,4,2,M,1,3,2,0,1000,250.0,3,c15sm,280,test
1232.3310375213623,5,1,3,0,4,2,M,1,1,1,0,1000,250.0,1,c15sm,281,test
1500.8089542388916,5,1,3,0,4,2,M,1,5,0,0,1000,250.0,5,c15sm,282,test
1277.7190208435059,5,1,3,0,4,2,M,1,2,5,0,1000,250.0,2,c15sm,283,test
1793.3108806610107,5,1,3,0,4,2,M,1,5,0,0,1000,250.0,5,c15sm,284,test
959.3479633331299,5,1,3,0,4,2,M,1,1,1,0,1000,250.0,1,c15sm,285,test
1376.4660358428955,5,1,3,0,4,2,M,1,5,0,0,1000,250.0,5,c15sm,286,test
3072.3519325256348,5,1,3,0,4,2,M,1,3,2,0,1000,250.0,3,c15sm,287,test
1425.117015838623,5,1,3,0,4,2,M,1,4,4,0,1000,250.0,4,c15sm,288,test
864.555835723877,5,1,3,0,4,2,M,1,0,3,0,1000,250.0,0,c15sm,289,test
2608.57892036438,5,1,3,0,4,2,M,1,3,2,0,1000,250.0,3,c15sm,290,test
1889.017105102539,5,1,3,0,4,2,M,1,5,0,0,1000,250.0,5,c15sm,291,test
832.6799869537354,5,1,3,0,4,2,M,1,5,0,0,1000,250.0,5,c15sm,292,test
592.4069881439209,5,1,3,0,4,2,M,1,5,0,0,1000,250.0,5,c15sm,293,test
1135.3700160980225,5,1,3,0,4,2,M,1,1,1,0,1000,250.0,1,c15sm,294,test
1200.300931930542,5,1,3,0,4,2,M,1,3,2,0,1000,250.0,3,c15sm,295,test
1120.3720569610596,5,1,3,0,4,2,M,0,4,4,0,1000,250.0,5,c15sm,296,test
1088.3409976959229,5,1,3,0,4,2,M,1,0,3,0,1000,250.0,0,c15sm,297,test
1024.9741077423096,5,1,3,0,4,2,M,1,4,4,0,1000,250.0,4,c15sm,298,test
912.330150604248,5,1,3,0,4,2,M,1,1,1,0,1000,250.0,1,c15sm,299,test
480.3578853607178,5,1,3,0,4,2,M,1,1,1,0,1000,250.0,1,c15sm,300,test
494.62294578552246,5,1,3,0,4,2,M,0,3,2,0,1000,250.0,1,c15sm,301,test
2272.5751399993896,5,1,3,0,4,2,M,1,1,1,0,1000,250.0,1,c15sm,302,test
1025.0670909881592,5,1,3,0,4,2,M,1,4,4,0,1000,250.0,4,c15sm,303,test
416.5689945220947,5,1,3,0,4,2,M,1,4,4,0,1000,250.0,4,c15sm,304,test
1376.1310577392578,5,1,3,0,4,2,M,1,1,1,0,1000,250.0,1,c15sm,305,test
1424.9420166015625,5,1,3,0,4,2,M,1,3,2,0,1000,250.0,3,c15sm,306,test
2225.174903869629,5,1,3,0,4,2,M,1,2,5,0,1000,250.0,2,c15sm,307,test
992.4359321594238,5,1,3,0,4,2,M,1,1,1,0,1000,250.0,1,c15sm,308,test
752.1429061889648,5,1,3,0,4,2,M,1,0,3,0,1000,250.0,0,c15sm,309,test
1601.104974746704,5,1,3,0,4,2,M,1,3,2,0,1000,250.0,3,c15sm,310,test
768.4400081634521,5,1,3,0,4,2,M,1,0,3,0,1000,250.0,0,c15sm,311,test
1249.0980625152588,5,1,3,0,4,2,M,0,2,5,0,1000,250.0,5,c15sm,312,test
832.5059413909912,5,1,3,0,4,2,M,1,0,3,0,1000,250.0,0,c15sm,313,test
1904.263973236084,5,1,3,0,4,2,M,1,4,4,0,1000,250.0,4,c15sm,314,test
1473.2959270477295,5,1,3,0,4,2,M,1,4,4,0,1000,250.0,4,c15sm,315,test
703.383207321167,5,1,3,0,4,2,M,1,0,3,0,1000,250.0,0,c15sm,316,test
688.5020732879639,5,1,3,0,4,2,M,1,0,3,0,1000,250.0,0,c15sm,317,test
1552.4909496307373,5,1,3,0,4,2,M,1,3,2,0,1000,250.0,3,c15sm,318,test
1024.6620178222656,5,1,3,0,4,2,M,1,1,1,0,1000,250.0,1,c15sm,319,test
816.6568279266357,5,1,3,0,4,2,M,1,1,1,0,1000,250.0,1,c15sm,320,test
1216.8190479278564,5,1,3,0,4,2,M,1,4,4,0,1000,250.0,4,c15sm,321,test
1888.239860534668,5,1,3,0,4,2,M,1,5,0,0,1000,250.0,5,c15sm,322,test
832.038164138794,5,1,3,0,4,2,M,1,0,3,0,1000,250.0,0,c15sm,323,test
2352.8339862823486,5,1,3,0,4,2,M,1,2,5,0,1000,250.0,2,c15sm,324,test
1022.6869583129883,5,1,3,0,4,2,M,1,4,4,0,1000,250.0,4,c15sm,325,test
1200.430154800415,5,1,3,0,4,2,M,1,5,0,0,1000,250.0,5,c15sm,326,test
1040.8880710601807,5,1,3,0,4,2,M,1,1,1,0,1000,250.0,1,c15sm,327,test
1088.892936706543,5,1,3,0,4,2,M,1,2,5,0,1000,250.0,2,c15sm,328,test
737.7309799194336,5,1,3,0,4,2,M,1,2,5,0,1000,250.0,2,c15sm,329,test
671.8869209289551,5,1,3,0,4,2,M,1,4,4,0,1000,250.0,4,c15sm,330,test
736.6721630096436,5,1,3,0,4,2,M,0,0,3,0,1000,250.0,1,c15sm,331,test
976.538896560669,5,1,3,0,4,2,M,1,2,5,0,1000,250.0,2,c15sm,332,test
1568.4969425201416,5,1,3,0,4,2,M,1,3,2,0,1000,250.0,3,c15sm,333,test
977.3430824279785,5,1,3,0,4,2,M,1,1,1,0,1000,250.0,1,c15sm,334,test
1472.2201824188232,5,1,3,0,4,2,M,1,3,2,0,1000,250.0,3,c15sm,335,test
705.1291465759277,5,1,3,0,4,2,M,0,3,2,0,1000,250.0,2,c15sm,336,test
752.5579929351807,5,1,3,0,4,2,M,1,3,2,0,1000,250.0,3,c15sm,337,test
1265.0690078735352,5,1,3,0,4,2,M,1,1,1,0,1000,250.0,1,c15sm,338,test
833.0490589141846,5,1,3,0,4,2,M,1,2,5,0,1000,250.0,2,c15sm,339,test
1585.7760906219482,5,1,3,0,4,2,M,1,3,2,0,1000,250.0,3,c15sm,340,test
1184.4151020050049,5,1,3,0,4,2,M,1,3,2,0,1000,250.0,3,c15sm,341,test
1120.9771633148193,5,1,3,0,4,2,M,1,4,4,0,1000,250.0,4,c15sm,342,test
974.7309684753418,5,1,3,0,4,2,M,1,0,3,0,1000,250.0,0,c15sm,343,test
864.1331195831299,5,1,3,0,4,2,M,1,1,1,0,1000,250.0,1,c15sm,344,test
1376.1241436004639,5,1,3,0,4,2,M,1,3,2,0,1000,250.0,3,c15sm,345,test
690.140962600708,5,1,3,0,4,2,M,1,0,3,0,1000,250.0,0,c15sm,346,test
831.5508365631104,5,1,3,0,4,2,M,1,1,1,0,1000,250.0,1,c15sm,347,test
864.1738891601562,5,1,3,0,4,2,M,1,1,1,0,1000,250.0,1,c15sm,348,test
1104.5269966125488,5,1,3,0,4,2,M,1,2,5,0,1000,250.0,2,c15sm,349,test
848.0660915374756,5,1,3,0,4,2,M,1,0,3,0,1000,250.0,0,c15sm,350,test
976.5970706939697,5,1,3,0,4,2,M,1,2,5,0,1000,250.0,2,c15sm,351,test
848.6008644104004,5,1,3,0,4,2,M,1,0,3,0,1000,250.0,0,c15sm,352,test
1281.1338901519775,5,1,3,0,4,2,M,1,3,2,0,1000,250.0,3,c15sm,353,test
1230.6098937988281,5,1,3,0,4,2,M,1,2,5,0,1000,250.0,2,c15sm,354,test
719.0999984741211,5,1,3,0,4,2,M,1,2,5,0,1000,250.0,2,c15sm,355,test
753.1681060791016,5,1,3,0,4,2,M,1,4,4,0,1000,250.0,4,c15sm,356,test
465.0139808654785,5,1,3,0,4,2,M,1,4,4,0,1000,250.0,4,c15sm,357,test
849.0889072418213,5,1,3,0,4,2,M,1,2,5,0,1000,250.0,2,c15sm,358,test
1184.499979019165,5,1,3,0,4,2,M,0,0,3,0,1000,250.0,4,c15sm,359,test
913.0539894104004,5,1,3,0,4,2,M,1,4,4,0,1000,250.0,4,c15sm,360,test
560.6458187103271,5,1,3,0,4,2,M,1,0,3,0,1000,250.0,0,c15sm,361,test
1616.624116897583,5,1,3,0,4,2,M,1,5,0,0,1000,250.0,5,c15sm,362,test
609.0211868286133,5,1,3,0,4,2,M,1,4,4,0,1000,250.0,4,c15sm,363,test
816.439151763916,5,1,3,0,4,2,M,1,2,5,0,1000,250.0,2,c15sm,364,test
1009.2239379882812,5,1,3,0,4,2,M,1,1,1,0,1000,250.0,1,c15sm,365,test
1424.7181415557861,5,1,3,0,4,2,M,1,3,2,0,1000,250.0,3,c15sm,366,test
1104.3188571929932,5,1,3,0,4,2,M,1,1,1,0,1000,250.0,1,c15sm,367,test
944.7660446166992,5,1,3,0,4,2,M,1,1,1,0,1000,250.0,1,c15sm,368,test
1185.1661205291748,5,1,3,0,4,2,M,1,5,0,0,1000,250.0,5,c15sm,369,test
769.1810131072998,5,1,3,0,4,2,M,1,1,1,0,1000,250.0,1,c15sm,370,test
704.2660713195801,5,1,3,0,4,2,M,1,2,5,0,1000,250.0,2,c15sm,371,test
818.2730674743652,5,1,3,0,4,2,M,1,1,1,0,1000,250.0,1,c15sm,372,test
736.7191314697266,5,1,3,0,4,2,M,1,1,1,0,1000,250.0,1,c15sm,373,test
1168.7037944793701,5,1,3,0,4,2,M,1,3,2,0,1000,250.0,3,c15sm,374,test
976.3801097869873,5,1,3,0,4,2,M,1,5,0,0,1000,250.0,5,c15sm,375,test
1248.3549118041992,5,1,3,0,4,2,M,1,1,1,0,1000,250.0,1,c15sm,376,test
1248.6979961395264,5,1,3,0,4,2,M,1,3,2,0,1000,250.0,3,c15sm,377,test
1199.789047241211,5,1,3,0,4,2,M,1,2,5,0,1000,250.0,2,c15sm,378,test
672.9910373687744,5,1,3,0,4,2,M,1,2,5,0,1000,250.0,2,c15sm,379,test
976.5691757202148,5,1,3,0,4,2,M,1,5,0,0,1000,250.0,5,c15sm,380,test
688.5480880737305,5,1,3,0,4,2,M,1,0,3,0,1000,250.0,0,c15sm,381,test
1552.631139755249,5,1,3,0,4,2,M,1,5,0,0,1000,250.0,5,c15sm,382,test
641.381025314331,5,1,3,0,4,2,M,1,5,0,0,1000,250.0,5,c15sm,383,test
1504.492998123169,5,1,3,0,4,2,M,1,3,2,0,1000,250.0,3,c15sm,384,test
1153.028964996338,5,1,3,0,4,2,M,1,4,4,0,1000,250.0,4,c15sm,385,test
1263.1680965423584,5,1,3,0,4,2,M,1,3,2,0,1000,250.0,3,c15sm,386,test
960.9718322753906,5,1,3,0,4,2,M,1,0,3,0,1000,250.0,0,c15sm,387,test
864.9849891662598,5,1,3,0,4,2,M,0,2,5,0,1000,250.0,5,c15sm,388,test
2688.5058879852295,5,1,3,0,4,2,M,0,5,0,0,1000,250.0,4,c15sm,389,test
1680.6039810180664,5,1,3,0,4,2,M,1,5,0,0,1000,250.0,5,c15sm,390,test
1182.7480792999268,5,1,3,0,4,2,M,0,4,4,0,1000,250.0,5,c15sm,391,test
1296.3790893554688,5,1,3,0,4,2,M,1,2,5,0,1000,250.0,2,c15sm,392,test
1072.2999572753906,5,1,3,0,4,2,M,1,4,4,0,1000,250.0,4,c15sm,393,test
689.04709815979,5,1,3,0,4,2,M,1,4,4,0,1000,250.0,4,c15sm,394,test
560.6749057769775,5,1,3,0,4,2,M,1,4,4,0,1000,250.0,4,c15sm,395,test
784.930944442749,5,1,3,0,4,2,M,1,1,1,0,1000,250.0,1,c15sm,396,test
1520.5039978027344,5,1,3,0,4,2,M,1,5,0,0,1000,250.0,5,c15sm,397,test
1040.3528213500977,5,1,3,0,4,2,M,1,2,5,0,1000,250.0,2,c15sm,398,test
529.1130542755127,5,1,3,0,4,2,M,1,2,5,0,1000,250.0,2,c15sm,399,test
1038.620948791504,5,1,3,0,4,2,M,1,5,0,0,1000,250.0,5,c15sm,400,test
1408.3528518676758,5,1,3,0,4,2,M,0,3,2,0,1000,250.0,4,c15sm,401,test
752.1610260009766,5,1,3,0,4,2,M,1,1,1,0,1000,250.0,1,c15sm,402,test
719.1920280456543,5,1,3,0,4,2,M,1,0,3,0,1000,250.0,0,c15sm,403,test
1248.1679916381836,5,1,3,0,4,2,M,0,3,2,0,1000,250.0,4,c15sm,404,test
1249.1528987884521,5,1,3,0,4,2,M,1,3,2,0,1000,250.0,3,c15sm,405,test
625.4501342773438,5,1,3,0,4,2,M,1,3,2,0,1000,250.0,3,c15sm,406,test
736.098051071167,5,1,3,0,4,2,M,1,0,3,0,1000,250.0,0,c15sm,407,test
1121.0038661956787,5,1,3,0,4,2,M,1,2,5,0,1000,250.0,2,c15sm,408,test
1008.6491107940674,5,1,3,0,4,2,M,0,3,2,0,1000,250.0,4,c15sm,409,test
833.0299854278564,5,1,3,0,4,2,M,1,2,5,0,1000,250.0,2,c15sm,410,test
1040.7660007476807,5,1,3,0,4,2,M,1,3,2,0,1000,250.0,3,c15sm,411,test
1136.9798183441162,5,1,3,0,4,2,M,1,1,1,0,1000,250.0,1,c15sm,412,test
1024.9881744384766,5,1,3,0,4,2,M,0,2,5,0,1000,250.0,5,c15sm,413,test
1264.441967010498,5,1,3,0,4,2,M,1,2,5,0,1000,250.0,2,c15sm,414,test
1088.1619453430176,5,1,3,0,4,2,M,1,1,1,0,1000,250.0,1,c15sm,415,test
2224.377155303955,5,1,3,0,4,2,M,1,4,4,0,1000,250.0,4,c15sm,416,test
1152.7538299560547,5,1,3,0,4,2,M,1,5,0,0,1000,250.0,5,c15sm,417,test
1217.0231342315674,5,1,3,0,4,2,M,1,3,2,0,1000,250.0,3,c15sm,418,test
656.3830375671387,5,1,3,0,4,2,M,0,5,0,0,1000,250.0,4,c15sm,419,test
879.8041343688965,5,1,3,0,4,2,M,1,2,5,0,1000,250.0,2,c15sm,420,test
896.8539237976074,5,1,3,0,4,2,M,1,0,3,0,1000,250.0,0,c15sm,421,test
640.8789157867432,5,1,3,0,4,2,M,1,0,3,0,1000,250.0,0,c15sm,422,test
576.5500068664551,5,1,3,0,4,2,M,1,0,3,0,1000,250.0,0,c15sm,423,test
1409.0440273284912,5,1,3,0,4,2,M,1,3,2,0,1000,250.0,3,c15sm,424,test
624.474048614502,5,1,3,0,4,2,M,1,0,3,0,1000,250.0,0,c15sm,425,test
561.2478256225586,5,1,3,0,4,2,M,0,4,4,0,1000,250.0,5,c15sm,426,test
1345.076084136963,5,1,3,0,4,2,M,1,5,0,0,1000,250.0,5,c15sm,427,test
496.97184562683105,5,1,3,0,4,2,M,1,0,3,0,1000,250.0,0,c15sm,428,test
881.1750411987305,5,1,3,0,4,2,M,1,2,5,0,1000,250.0,2,c15sm,429,test
737.1480464935303,5,1,3,0,4,2,M,1,5,0,0,1000,250.0,5,c15sm,430,test
592.8659439086914,5,1,3,0,4,2,M,1,0,3,0,1000,250.0,0,c15sm,431,test
1073.0619430541992,5,1,3,0,4,2,M,1,3,2,0,1000,250.0,3,c15sm,432,test
817.5868988037109,5,1,3,0,4,2,M,0,5,0,0,1000,250.0,4,c15sm,433,test
1055.860996246338,5,1,3,0,4,2,M,1,1,1,0,1000,250.0,1,c15sm,434,test
670.1030731201172,5,1,3,0,4,2,M,1,5,0,0,1000,250.0,5,c15sm,435,test
609.3449592590332,5,1,3,0,4,2,M,1,4,4,0,1000,250.0,4,c15sm,436,test
608.7450981140137,5,1,3,0,4,2,M,1,1,1,0,1000,250.0,1,c15sm,437,test
640.3059959411621,5,1,3,0,4,2,M,0,2,5,0,1000,250.0,0,c15sm,438,test
720.4427719116211,5,1,3,0,4,2,M,1,5,0,0,1000,250.0,5,c15sm,439,test
641.1311626434326,5,1,3,0,4,2,M,0,2,5,0,1000,250.0,0,c15sm,440,test
896.3100910186768,5,1,3,0,4,2,M,1,4,4,0,1000,250.0,4,c15sm,441,test
622.534990310669,5,1,3,0,4,2,M,1,5,0,0,1000,250.0,5,c15sm,442,test
1200.881004333496,5,1,3,0,4,2,M,1,2,5,0,1000,250.0,2,c15sm,443,test
945.8169937133789,5,1,3,0,4,2,M,1,4,4,0,1000,250.0,4,c15sm,444,test
1392.7481174468994,5,1,3,0,4,2,M,1,5,0,0,1000,250.0,5,c15sm,445,test
672.2838878631592,5,1,3,0,4,2,M,1,1,1,0,1000,250.0,1,c15sm,446,test
783.1690311431885,5,1,3,0,4,2,M,0,3,2,0,1000,250.0,2,c15sm,447,test
944.7348117828369,5,1,3,0,4,2,M,0,5,0,0,1000,250.0,4,c15sm,448,test
1248.5129833221436,5,1,3,0,4,2,M,1,0,3,0,1000,250.0,0,c15sm,449,test
816.1389827728271,5,1,3,0,4,2,M,1,0,3,0,1000,250.0,0,c15sm,450,test
816.7059421539307,5,1,3,0,4,2,M,1,2,5,0,1000,250.0,2,c15sm,451,test
704.3540477752686,5,1,3,0,4,2,M,1,0,3,0,1000,250.0,0,c15sm,452,test
417.2079563140869,5,1,3,0,4,2,M,1,2,5,0,1000,250.0,2,c15sm,453,test
385.408878326416,5,1,3,0,4,2,M,1,2,5,0,1000,250.0,2,c15sm,454,test
385.9879970550537,5,1,3,0,4,2,M,1,2,5,0,1000,250.0,2,c15sm,455,test
768.3870792388916,5,1,3,0,4,2,M,1,1,1,0,1000,250.0,1,c15sm,456,test
560.1987838745117,5,1,3,0,4,2,M,1,0,3,0,1000,250.0,0,c15sm,457,test
496.98400497436523,5,1,3,0,4,2,M,0,1,1,0,1000,250.0,2,c15sm,458,test
704.6229839324951,5,1,3,0,4,2,M,1,1,1,0,1000,250.0,1,c15sm,459,test
448.26197624206543,5,1,3,0,4,2,M,1,1,1,0,1000,250.0,1,c15sm,460,test
849.4870662689209,5,1,3,0,4,2,M,1,5,0,0,1000,250.0,5,c15sm,461,test
560.6400966644287,5,1,3,0,4,2,M,1,4,4,0,1000,250.0,4,c15sm,462,test
896.8322277069092,5,1,3,0,4,2,M,1,2,5,0,1000,250.0,2,c15sm,463,test
1264.585018157959,5,1,3,0,4,2,M,0,5,0,0,1000,250.0,4,c15sm,464,test
944.8709487915039,5,1,3,0,4,2,M,1,4,4,0,1000,250.0,4,c15sm,465,test
800.1880645751953,5,1,3,0,4,2,M,1,5,0,0,1000,250.0,5,c15sm,466,test
624.6719360351562,5,1,3,0,4,2,M,1,1,1,0,1000,250.0,1,c15sm,467,test
1230.626106262207,5,1,3,0,4,2,M,1,3,2,0,1000,250.0,3,c15sm,468,test
767.7450180053711,5,1,3,0,4,2,M,1,0,3,0,1000,250.0,0,c15sm,469,test
1216.465950012207,5,1,3,0,4,2,M,1,5,0,0,1000,250.0,5,c15sm,470,test
1040.4791831970215,5,1,3,0,4,2,M,1,5,0,0,1000,250.0,5,c15sm,471,test
720.17502784729,5,1,3,0,4,2,M,1,5,0,0,1000,250.0,5,c15sm,472,test
576.5788555145264,5,1,3,0,4,2,M,0,2,5,0,1000,250.0,0,c15sm,473,test
1872.344970703125,5,1,3,0,4,2,M,1,5,0,0,1000,250.0,5,c15sm,474,test
624.0229606628418,5,1,3,0,4,2,M,1,0,3,0,1000,250.0,0,c15sm,475,test
801.0480403900146,5,1,3,0,4,2,M,0,5,0,0,1000,250.0,0,c15sm,476,test
1088.7739658355713,5,1,3,0,4,2,M,1,3,2,0,1000,250.0,3,c15sm,477,test
976.9449234008789,5,1,3,0,4,2,M,1,5,0,0,1000,250.0,5,c15sm,478,test
704.5948505401611,5,1,3,0,4,2,M,1,5,0,0,1000,250.0,5,c15sm,479,test
688.338041305542,5,1,3,0,4,2,M,1,4,4,0,1000,250.0,4,c15sm,480,test
1185.0199699401855,5,1,3,0,4,2,M,1,3,2,0,1000,250.0,3,c15sm,481,test
561.0029697418213,5,1,3,0,4,2,M,1,3,2,0,1000,250.0,3,c15sm,482,test
703.7198543548584,5,1,3,0,4,2,M,1,5,0,0,1000,250.0,5,c15sm,483,test
831.8679332733154,5,1,3,0,4,2,M,1,1,1,0,1000,250.0,1,c15sm,484,test
865.3261661529541,5,1,3,0,4,2,M,0,4,4,0,1000,250.0,5,c15sm,485,test
768.481969833374,5,1,3,0,4,2,M,1,5,0,0,1000,250.0,5,c15sm,486,test
640.8548355102539,5,1,3,0,4,2,M,1,0,3,0,1000,250.0,0,c15sm,487,test
1185.0900650024414,5,1,3,0,4,2,M,1,4,4,0,1000,250.0,4,c15sm,488,test
832.6160907745361,5,1,3,0,4,2,M,0,3,2,0,1000,250.0,2,c15sm,489,test
976.5620231628418,5,1,3,0,4,2,M,0,5,0,0,1000,250.0,4,c15sm,490,test
1568.9940452575684,5,1,3,0,4,2,M,1,1,1,0,1000,250.0,1,c15sm,491,test
704.3068408966064,5,1,3,0,4,2,M,1,0,3,0,1000,250.0,0,c15sm,492,test
433.7921142578125,5,1,3,0,4,2,M,1,0,3,0,1000,250.0,0,c15sm,493,test
657.0379734039307,5,1,3,0,4,2,M,1,4,4,0,1000,250.0,4,c15sm,494,test
464.4360542297363,5,1,3,0,4,2,M,1,4,4,0,1000,250.0,4,c15sm,495,test
576.3440132141113,5,1,3,0,4,2,M,1,4,4,0,1000,250.0,4,c15sm,496,test
1712.402105331421,5,1,3,0,4,2,M,1,3,2,0,1000,250.0,3,c15sm,497,test
639.976978302002,5,1,3,0,4,2,M,1,0,3,0,1000,250.0,0,c15sm,498,test
1024.9509811401367,5,1,3,0,4,2,M,0,4,4,0,1000,250.0,3,c15sm,499,test
