RT,SRmap_0,SRmap_1,SRmap_2,SRmap_3,SRmap_4,SRmap_5,condition,correct,correct_response,curstim,ms-precue,ms-prestimblank,ntrials,response,subject,trial,type
5487.648963928223,3,2,5,0,4,1,H+,1,2,1,0,1000,250.0,2,e18am,0,train
3680.422782897949,3,2,5,0,4,1,H+,1,5,2,0,1000,250.0,5,e18am,1,train
1504.729986190796,3,2,5,0,4,1,H+,1,4,4,0,1000,250.0,4,e18am,2,train
1472.4900722503662,3,2,5,0,4,1,H+,1,4,4,0,1000,250.0,4,e18am,3,train
1056.5321445465088,3,2,5,0,4,1,H+,1,4,4,0,1000,250.0,4,e18am,4,train
992.6221370697021,3,2,5,0,4,1,H+,1,0,3,0,1000,250.0,0,e18am,5,train
1280.4720401763916,3,2,5,0,4,1,H+,1,4,4,0,1000,250.0,4,e18am,6,train
1520.4451084136963,3,2,5,0,4,1,H+,1,5,2,0,1000,250.0,5,e18am,7,train
1408.463954925537,3,2,5,0,4,1,H+,0,2,1,0,1000,250.0,1,e18am,8,train
896.5699672698975,3,2,5,0,4,1,H+,0,4,4,0,1000,250.0,5,e18am,9,train
1008.7890625,3,2,5,0,4,1,H+,1,2,1,0,1000,250.0,2,e18am,10,train
736.9499206542969,3,2,5,0,4,1,H+,1,0,3,0,1000,250.0,0,e18am,11,train
2192.945957183838,3,2,5,0,4,1,H+,1,2,1,0,1000,250.0,2,e18am,12,train
864.3009662628174,3,2,5,0,4,1,H+,1,0,3,0,1000,250.0,0,e18am,13,train
608.9260578155518,3,2,5,0,4,1,H+,1,0,3,0,1000,250.0,0,e18am,14,train
1008.2690715789795,3,2,5,0,4,1,H+,1,1,5,0,1000,250.0,1,e18am,15,train
1072.5769996643066,3,2,5,0,4,1,H+,1,4,4,0,1000,250.0,4,e18am,16,train
656.559944152832,3,2,5,0,4,1,H+,1,0,3,0,1000,250.0,0,e18am,17,train
848.7200736999512,3,2,5,0,4,1,H+,1,1,5,0,1000,250.0,1,e18am,18,train
768.5627937316895,3,2,5,0,4,1,H+,1,1,5,0,1000,250.0,1,e18am,19,train
800.5349636077881,3,2,5,0,4,1,H+,0,2,1,0,1000,250.0,3,e18am,20,train
1488.5709285736084,3,2,5,0,4,1,H+,1,3,0,0,1000,250.0,3,e18am,21,train
688.5778903961182,3,2,5,0,4,1,H+,1,3,0,0,1000,250.0,3,e18am,22,train
656.7480564117432,3,2,5,0,4,1,H+,0,1,5,0,1000,250.0,0,e18am,23,train
768.5749530792236,3,2,5,0,4,1,H+,0,2,1,0,1000,250.0,3,e18am,24,train
1392.5468921661377,3,2,5,0,4,1,H+,1,4,4,0,1000,250.0,4,e18am,25,train
1104.5479774475098,3,2,5,0,4,1,H+,1,3,0,0,1000,250.0,3,e18am,26,train
1728.9650440216064,3,2,5,0,4,1,H+,1,4,4,0,1000,250.0,4,e18am,27,train
1280.837059020996,3,2,5,0,4,1,H+,1,5,2,0,1000,250.0,5,e18am,28,train
1216.9458866119385,3,2,5,0,4,1,H+,1,4,4,0,1000,250.0,4,e18am,29,train
752.903938293457,3,2,5,0,4,1,H+,1,5,2,0,1000,250.0,5,e18am,30,train
1264.8050785064697,3,2,5,0,4,1,H+,1,3,0,0,1000,250.0,3,e18am,31,train
784.9969863891602,3,2,5,0,4,1,H+,1,5,2,0,1000,250.0,5,e18am,32,train
768.7900066375732,3,2,5,0,4,1,H+,1,5,2,0,1000,250.0,5,e18am,33,train
784.8730087280273,3,2,5,0,4,1,H+,0,1,5,0,1000,250.0,0,e18am,34,train
896.9700336456299,3,2,5,0,4,1,H+,1,0,3,0,1000,250.0,0,e18am,35,train
1120.9559440612793,3,2,5,0,4,1,H+,1,3,0,0,1000,250.0,3,e18am,36,train
1040.5120849609375,3,2,5,0,4,1,H+,1,1,5,0,1000,250.0,1,e18am,37,train
640.9120559692383,3,2,5,0,4,1,H+,1,5,2,0,1000,250.0,5,e18am,38,train
1312.9310607910156,3,2,5,0,4,1,H+,1,4,4,0,1000,250.0,4,e18am,39,train
768.5461044311523,3,2,5,0,4,1,H+,1,1,5,0,1000,250.0,1,e18am,40,train
736.9248867034912,3,2,5,0,4,1,H+,1,1,5,0,1000,250.0,1,e18am,41,train
560.8830451965332,3,2,5,0,4,1,H+,1,5,2,0,1000,250.0,5,e18am,42,train
576.869010925293,3,2,5,0,4,1,H+,1,5,2,0,1000,250.0,5,e18am,43,train
624.9730587005615,3,2,5,0,4,1,H+,1,5,2,0,1000,250.0,5,e18am,44,train
1168.895959854126,3,2,5,0,4,1,H+,1,0,3,0,1000,250.0,0,e18am,45,train
800.9891510009766,3,2,5,0,4,1,H+,1,4,4,0,1000,250.0,4,e18am,46,train
832.8230381011963,3,2,5,0,4,1,H+,1,2,1,0,1000,250.0,2,e18am,47,train
865.0228977203369,3,2,5,0,4,1,H+,1,0,3,0,1000,250.0,0,e18am,48,train
1120.5508708953857,3,2,5,0,4,1,H+,1,3,0,0,1000,250.0,3,e18am,49,train
1280.3449630737305,3,2,5,0,4,1,H+,0,4,4,0,1000,250.0,5,e18am,50,train
1040.895938873291,3,2,5,0,4,1,H+,1,3,0,0,1000,250.0,3,e18am,51,train
800.9281158447266,3,2,5,0,4,1,H+,1,1,5,0,1000,250.0,1,e18am,52,train
2000.9040832519531,3,2,5,0,4,1,H+,1,3,0,0,1000,250.0,3,e18am,53,train
1152.9381275177002,3,2,5,0,4,1,H+,1,4,4,0,1000,250.0,4,e18am,54,train
1072.4670886993408,3,2,5,0,4,1,H+,1,2,1,0,1000,250.0,2,e18am,55,train
1232.7711582183838,3,2,5,0,4,1,H+,1,4,4,0,1000,250.0,4,e18am,56,train
672.9128360748291,3,2,5,0,4,1,H+,1,5,2,0,1000,250.0,5,e18am,57,train
784.9490642547607,3,2,5,0,4,1,H+,1,2,1,0,1000,250.0,2,e18am,58,train
944.9570178985596,3,2,5,0,4,1,H+,1,0,3,0,1000,250.0,0,e18am,59,train
1168.990135192871,3,2,5,0,4,1,H+,1,1,5,0,1000,250.0,1,e18am,60,train
640.84792137146,3,2,5,0,4,1,H+,1,5,2,0,1000,250.0,5,e18am,61,train
592.9579734802246,3,2,5,0,4,1,H+,1,5,2,0,1000,250.0,5,e18am,62,train
880.9850215911865,3,2,5,0,4,1,H+,1,4,4,0,1000,250.0,4,e18am,63,train
944.9419975280762,3,2,5,0,4,1,H+,1,0,3,0,1000,250.0,0,e18am,64,train
624.9730587005615,3,2,5,0,4,1,H+,1,1,5,0,1000,250.0,1,e18am,65,train
608.8199615478516,3,2,5,0,4,1,H+,1,1,5,0,1000,250.0,1,e18am,66,train
480.8239936828613,3,2,5,0,4,1,H+,1,1,5,0,1000,250.0,1,e18am,67,train
720.736026763916,3,2,5,0,4,1,H+,1,4,4,0,1000,250.0,4,e18am,68,train
688.5249614715576,3,2,5,0,4,1,H+,1,2,1,0,1000,250.0,2,e18am,69,train
640.5580043792725,3,2,5,0,4,1,H+,1,4,4,0,1000,250.0,4,e18am,70,train
480.1151752471924,3,2,5,0,4,1,H+,1,3,0,0,1000,250.0,3,e18am,71,train
640.5539512634277,3,2,5,0,4,1,H+,1,0,3,0,1000,250.0,0,e18am,72,train
736.548900604248,3,2,5,0,4,1,H+,1,1,5,0,1000,250.0,1,e18am,73,train
752.6140213012695,3,2,5,0,4,1,H+,1,1,5,0,1000,250.0,1,e18am,74,train
800.5189895629883,3,2,5,0,4,1,H+,1,0,3,0,1000,250.0,0,e18am,75,train
704.4239044189453,3,2,5,0,4,1,H+,1,5,2,0,1000,250.0,5,e18am,76,train
736.5820407867432,3,2,5,0,4,1,H+,1,5,2,0,1000,250.0,5,e18am,77,train
640.5389308929443,3,2,5,0,4,1,H+,1,5,2,0,1000,250.0,5,e18am,78,train
720.4601764678955,3,2,5,0,4,1,H+,1,1,5,0,1000,250.0,1,e18am,79,train
528.5210609436035,3,2,5,0,4,1,H+,1,1,5,0,1000,250.0,1,e18am,80,train
704.5929431915283,3,2,5,0,4,1,H+,1,0,3,0,1000,250.0,0,e18am,81,train
960.3500366210938,3,2,5,0,4,1,H+,0,2,1,0,1000,250.0,3,e18am,82,train
832.7760696411133,3,2,5,0,4,1,H+,1,0,3,0,1000,250.0,0,e18am,83,train
496.380090713501,3,2,5,0,4,1,H+,1,0,3,0,1000,250.0,0,e18am,84,train
864.9709224700928,3,2,5,0,4,1,H+,1,1,5,0,1000,250.0,1,e18am,85,train
945.0371265411377,3,2,5,0,4,1,H+,1,0,3,0,1000,250.0,0,e18am,86,train
1680.9091567993164,3,2,5,0,4,1,H+,1,4,4,0,1000,250.0,4,e18am,87,train
928.5891056060791,3,2,5,0,4,1,H+,1,2,1,0,1000,250.0,2,e18am,88,train
1536.9699001312256,3,2,5,0,4,1,H+,1,4,4,0,1000,250.0,4,e18am,89,train
656.8808555603027,3,2,5,0,4,1,H+,1,5,2,0,1000,250.0,5,e18am,90,train
912.9021167755127,3,2,5,0,4,1,H+,1,3,0,0,1000,250.0,3,e18am,91,train
608.9088916778564,3,2,5,0,4,1,H+,1,0,3,0,1000,250.0,0,e18am,92,train
640.9108638763428,3,2,5,0,4,1,H+,1,5,2,0,1000,250.0,5,e18am,93,train
528.2750129699707,3,2,5,0,4,1,H+,1,5,2,0,1000,250.0,5,e18am,94,train
640.4900550842285,3,2,5,0,4,1,H+,0,1,5,0,1000,250.0,0,e18am,95,train
720.6149101257324,3,2,5,0,4,1,H+,1,4,4,0,1000,250.0,4,e18am,96,train
1104.5069694519043,3,2,5,0,4,1,H+,1,2,1,0,1000,250.0,2,e18am,97,train
800.6119728088379,3,2,5,0,4,1,H+,1,4,4,0,1000,250.0,4,e18am,98,train
800.8639812469482,3,2,5,0,4,1,H+,1,2,1,0,1000,250.0,2,e18am,99,train
944.8239803314209,3,2,5,0,4,1,H+,1,4,4,0,1000,250.0,4,e18am,100,train
713.4499549865723,3,2,5,0,4,1,H+,1,3,0,0,1000,250.0,3,e18am,101,train
1008.958101272583,3,2,5,0,4,1,H+,1,4,4,0,1000,250.0,4,e18am,102,train
656.8338871002197,3,2,5,0,4,1,H+,1,4,4,0,1000,250.0,4,e18am,103,train
1008.6359977722168,3,2,5,0,4,1,H+,1,0,3,0,1000,250.0,0,e18am,104,train
816.5161609649658,3,2,5,0,4,1,H+,1,2,1,0,1000,250.0,2,e18am,105,train
816.9260025024414,3,2,5,0,4,1,H+,1,4,4,0,1000,250.0,4,e18am,106,train
624.8829364776611,3,2,5,0,4,1,H+,0,2,1,0,1000,250.0,3,e18am,107,train
928.9829730987549,3,2,5,0,4,1,H+,1,4,4,0,1000,250.0,4,e18am,108,train
736.9041442871094,3,2,5,0,4,1,H+,1,1,5,0,1000,250.0,1,e18am,109,train
688.9448165893555,3,2,5,0,4,1,H+,1,2,1,0,1000,250.0,2,e18am,110,train
816.627025604248,3,2,5,0,4,1,H+,1,1,5,0,1000,250.0,1,e18am,111,train
1169.0518856048584,3,2,5,0,4,1,H+,1,0,3,0,1000,250.0,0,e18am,112,train
768.9409255981445,3,2,5,0,4,1,H+,1,1,5,0,1000,250.0,1,e18am,113,train
528.8801193237305,3,2,5,0,4,1,H+,1,1,5,0,1000,250.0,1,e18am,114,train
1344.850778579712,3,2,5,0,4,1,H+,1,4,4,0,1000,250.0,4,e18am,115,train
688.593864440918,3,2,5,0,4,1,H+,1,0,3,0,1000,250.0,0,e18am,116,train
704.58984375,3,2,5,0,4,1,H+,1,2,1,0,1000,250.0,2,e18am,117,train
640.4440402984619,3,2,5,0,4,1,H+,1,1,5,0,1000,250.0,1,e18am,118,train
640.4850482940674,3,2,5,0,4,1,H+,1,5,2,0,1000,250.0,5,e18am,119,train
640.4669284820557,3,2,5,0,4,1,H+,1,5,2,0,1000,250.0,5,e18am,120,train
720.5410003662109,3,2,5,0,4,1,H+,1,4,4,0,1000,250.0,4,e18am,121,train
704.524040222168,3,2,5,0,4,1,H+,1,4,4,0,1000,250.0,4,e18am,122,train
1264.4541263580322,3,2,5,0,4,1,H+,1,4,4,0,1000,250.0,4,e18am,123,train
896.5210914611816,3,2,5,0,4,1,H+,1,0,3,0,1000,250.0,0,e18am,124,train
672.5368499755859,3,2,5,0,4,1,H+,1,5,2,0,1000,250.0,5,e18am,125,train
720.52001953125,3,2,5,0,4,1,H+,0,3,0,0,1000,250.0,4,e18am,126,train
736.6209030151367,3,2,5,0,4,1,H+,1,2,1,0,1000,250.0,2,e18am,127,train
672.490119934082,3,2,5,0,4,1,H+,1,5,2,0,1000,250.0,5,e18am,128,train
624.4280338287354,3,2,5,0,4,1,H+,1,0,3,0,1000,250.0,0,e18am,129,train
672.8379726409912,3,2,5,0,4,1,H+,0,3,0,0,1000,250.0,4,e18am,130,train
784.8401069641113,3,2,5,0,4,1,H+,1,0,3,0,1000,250.0,0,e18am,131,train
880.561113357544,3,2,5,0,4,1,H+,0,3,0,0,1000,250.0,4,e18am,132,train
800.5869388580322,3,2,5,0,4,1,H+,1,5,2,0,1000,250.0,5,e18am,133,train
816.1709308624268,3,2,5,0,4,1,H+,1,2,1,0,1000,250.0,2,e18am,134,train
624.4850158691406,3,2,5,0,4,1,H+,1,0,3,0,1000,250.0,0,e18am,135,train
576.4679908752441,3,2,5,0,4,1,H+,1,0,3,0,1000,250.0,0,e18am,136,train
528.5079479217529,3,2,5,0,4,1,H+,1,0,3,0,1000,250.0,0,e18am,137,train
704.4918537139893,3,2,5,0,4,1,H+,1,4,4,0,1000,250.0,4,e18am,138,train
752.4869441986084,3,2,5,0,4,1,H+,0,3,0,0,1000,250.0,4,e18am,139,train
640.657901763916,3,2,5,0,4,1,H+,1,5,2,0,1000,250.0,5,e18am,140,train
1008.8388919830322,3,2,5,0,4,1,H+,1,0,3,0,1000,250.0,0,e18am,141,train
1088.9339447021484,3,2,5,0,4,1,H+,1,3,0,0,1000,250.0,3,e18am,142,train
1280.8661460876465,3,2,5,0,4,1,H+,1,4,4,0,1000,250.0,4,e18am,143,train
1040.3878688812256,3,2,5,0,4,1,H+,1,3,0,0,1000,250.0,3,e18am,144,train
688.906192779541,3,2,5,0,4,1,H+,0,1,5,0,1000,250.0,0,e18am,145,train
1056.9939613342285,3,2,5,0,4,1,H+,1,3,0,0,1000,250.0,3,e18am,146,train
1008.526086807251,3,2,5,0,4,1,H+,1,4,4,0,1000,250.0,4,e18am,147,train
528.8128852844238,3,2,5,0,4,1,H+,1,0,3,0,1000,250.0,0,e18am,148,train
608.3669662475586,3,2,5,0,4,1,H+,1,0,3,0,1000,250.0,0,e18am,149,train
784.9750518798828,3,2,5,0,4,1,H+,1,2,1,0,1000,250.0,2,e18am,150,train
1008.9190006256104,3,2,5,0,4,1,H+,1,1,5,0,1000,250.0,1,e18am,151,train
832.8218460083008,3,2,5,0,4,1,H+,1,0,3,0,1000,250.0,0,e18am,152,train
1040.938138961792,3,2,5,0,4,1,H+,1,3,0,0,1000,250.0,3,e18am,153,train
1136.9729042053223,3,2,5,0,4,1,H+,1,1,5,0,1000,250.0,1,e18am,154,train
1073.0140209197998,3,2,5,0,4,1,H+,1,2,1,0,1000,250.0,2,e18am,155,train
1024.9791145324707,3,2,5,0,4,1,H+,1,4,4,0,1000,250.0,4,e18am,156,train
688.8759136199951,3,2,5,0,4,1,H+,1,4,4,0,1000,250.0,4,e18am,157,train
720.9200859069824,3,2,5,0,4,1,H+,1,2,1,0,1000,250.0,2,e18am,158,train
656.7120552062988,3,2,5,0,4,1,H+,0,1,5,0,1000,250.0,0,e18am,159,train
1120.6259727478027,3,2,5,0,4,1,H+,1,0,3,0,1000,250.0,0,e18am,160,train
752.4759769439697,3,2,5,0,4,1,H+,1,0,3,0,1000,250.0,0,e18am,161,train
608.4580421447754,3,2,5,0,4,1,H+,1,5,2,0,1000,250.0,5,e18am,162,train
784.5640182495117,3,2,5,0,4,1,H+,1,4,4,0,1000,250.0,4,e18am,163,train
640.5110359191895,3,2,5,0,4,1,H+,1,5,2,0,1000,250.0,5,e18am,164,train
1952.4540901184082,3,2,5,0,4,1,H+,1,3,0,0,1000,250.0,3,e18am,165,train
720.4759120941162,3,2,5,0,4,1,H+,1,3,0,0,1000,250.0,3,e18am,166,train
656.5079689025879,3,2,5,0,4,1,H+,1,5,2,0,1000,250.0,5,e18am,167,train
784.8238945007324,3,2,5,0,4,1,H+,1,1,5,0,1000,250.0,1,e18am,168,train
608.7450981140137,3,2,5,0,4,1,H+,1,1,5,0,1000,250.0,1,e18am,169,train
656.5268039703369,3,2,5,0,4,1,H+,1,3,0,0,1000,250.0,3,e18am,170,train
688.5011196136475,3,2,5,0,4,1,H+,1,5,2,0,1000,250.0,5,e18am,171,train
688.1568431854248,3,2,5,0,4,1,H+,1,2,1,0,1000,250.0,2,e18am,172,train
656.1439037322998,3,2,5,0,4,1,H+,1,1,5,0,1000,250.0,1,e18am,173,train
816.5709972381592,3,2,5,0,4,1,H+,1,2,1,0,1000,250.0,2,e18am,174,train
784.6040725708008,3,2,5,0,4,1,H+,1,1,5,0,1000,250.0,1,e18am,175,train
640.4509544372559,3,2,5,0,4,1,H+,1,2,1,0,1000,250.0,2,e18am,176,train
848.0801582336426,3,2,5,0,4,1,H+,0,3,0,0,1000,250.0,4,e18am,177,train
720.4749584197998,3,2,5,0,4,1,H+,1,5,2,0,1000,250.0,5,e18am,178,train
752.5570392608643,3,2,5,0,4,1,H+,1,2,1,0,1000,250.0,2,e18am,179,train
624.4759559631348,3,2,5,0,4,1,H+,1,2,1,0,1000,250.0,2,e18am,180,train
736.5448474884033,3,2,5,0,4,1,H+,1,1,5,0,1000,250.0,1,e18am,181,train
912.5521183013916,3,2,5,0,4,1,H+,1,3,0,0,1000,250.0,3,e18am,182,train
832.5879573822021,3,2,5,0,4,1,H+,1,1,5,0,1000,250.0,1,e18am,183,train
512.5930309295654,3,2,5,0,4,1,H+,1,1,5,0,1000,250.0,1,e18am,184,train
736.8159294128418,3,2,5,0,4,1,H+,1,2,1,0,1000,250.0,2,e18am,185,train
896.6000080108643,3,2,5,0,4,1,H+,1,0,3,0,1000,250.0,0,e18am,186,train
896.4531421661377,3,2,5,0,4,1,H+,1,5,2,0,1000,250.0,5,e18am,187,train
624.5300769805908,3,2,5,0,4,1,H+,1,5,2,0,1000,250.0,5,e18am,188,train
800.5249500274658,3,2,5,0,4,1,H+,1,5,2,0,1000,250.0,5,e18am,189,train
784.5311164855957,3,2,5,0,4,1,H+,0,0,3,0,1000,250.0,1,e18am,190,train
1200.6330490112305,3,2,5,0,4,1,H+,1,3,0,0,1000,250.0,3,e18am,191,train
1248.5909461975098,3,2,5,0,4,1,H+,1,4,4,0,1000,250.0,4,e18am,192,train
1120.4807758331299,3,2,5,0,4,1,H+,1,3,0,0,1000,250.0,3,e18am,193,train
704.4708728790283,3,2,5,0,4,1,H+,1,4,4,0,1000,250.0,4,e18am,194,train
704.4410705566406,3,2,5,0,4,1,H+,1,2,1,0,1000,250.0,2,e18am,195,train
1424.1039752960205,3,2,5,0,4,1,H+,1,3,0,0,1000,250.0,3,e18am,196,train
1056.6880702972412,3,2,5,0,4,1,H+,1,2,1,0,1000,250.0,2,e18am,197,train
656.5499305725098,3,2,5,0,4,1,H+,1,2,1,0,1000,250.0,2,e18am,198,train
544.8219776153564,3,2,5,0,4,1,H+,1,2,1,0,1000,250.0,2,e18am,199,train
528.4631252288818,3,2,5,0,4,1,H+,1,2,1,0,1000,250.0,2,e18am,200,train
448.46606254577637,3,2,5,0,4,1,H+,1,2,1,0,1000,250.0,2,e18am,201,train
768.5348987579346,3,2,5,0,4,1,H+,1,5,2,0,1000,250.0,5,e18am,202,train
672.4989414215088,3,2,5,0,4,1,H+,1,4,4,0,1000,250.0,4,e18am,203,train
672.5010871887207,3,2,5,0,4,1,H+,1,1,5,0,1000,250.0,1,e18am,204,train
736.5009784698486,3,2,5,0,4,1,H+,1,5,2,0,1000,250.0,5,e18am,205,train
1408.4339141845703,3,2,5,0,4,1,H+,1,4,4,0,1000,250.0,4,e18am,206,train
1072.5140571594238,3,2,5,0,4,1,H+,1,4,4,0,1000,250.0,4,e18am,207,train
928.5531044006348,3,2,5,0,4,1,H+,0,2,1,0,1000,250.0,5,e18am,208,train
912.6019477844238,3,2,5,0,4,1,H+,1,2,1,0,1000,250.0,2,e18am,209,train
672.5590229034424,3,2,5,0,4,1,H+,1,5,2,0,1000,250.0,5,e18am,210,train
608.5879802703857,3,2,5,0,4,1,H+,1,5,2,0,1000,250.0,5,e18am,211,train
624.5620250701904,3,2,5,0,4,1,H+,1,0,3,0,1000,250.0,0,e18am,212,train
1008.7411403656006,3,2,5,0,4,1,H+,1,5,2,0,1000,250.0,5,e18am,213,train
816.5199756622314,3,2,5,0,4,1,H+,1,3,0,0,1000,250.0,3,e18am,214,train
576.5759944915771,3,2,5,0,4,1,H+,1,3,0,0,1000,250.0,3,e18am,215,train
1456.7301273345947,3,2,5,0,4,1,H+,1,4,4,0,1000,250.0,4,e18am,216,train
688.560962677002,3,2,5,0,4,1,H+,1,0,3,0,1000,250.0,0,e18am,217,train
704.5300006866455,3,2,5,0,4,1,H+,1,1,5,0,1000,250.0,1,e18am,218,train
944.8370933532715,3,2,5,0,4,1,H+,1,5,2,0,1000,250.0,5,e18am,219,train
720.4651832580566,3,2,5,0,4,1,H+,0,2,1,0,1000,250.0,3,e18am,220,train
896.3010311126709,3,2,5,0,4,1,H+,1,5,2,0,1000,250.0,5,e18am,221,train
960.6149196624756,3,2,5,0,4,1,H+,1,4,4,0,1000,250.0,4,e18am,222,train
576.4391422271729,3,2,5,0,4,1,H+,1,5,2,0,1000,250.0,5,e18am,223,train
672.7569103240967,3,2,5,0,4,1,H+,1,0,3,0,1000,250.0,0,e18am,224,train
976.5009880065918,3,2,5,0,4,1,H+,1,4,4,0,1000,250.0,4,e18am,225,train
640.4719352722168,3,2,5,0,4,1,H+,1,5,2,0,1000,250.0,5,e18am,226,train
672.7440357208252,3,2,5,0,4,1,H+,1,0,3,0,1000,250.0,0,e18am,227,train
640.7809257507324,3,2,5,0,4,1,H+,1,5,2,0,1000,250.0,5,e18am,228,train
672.468900680542,3,2,5,0,4,1,H+,0,1,5,0,1000,250.0,0,e18am,229,train
464.5230770111084,3,2,5,0,4,1,H+,1,1,5,0,1000,250.0,1,e18am,230,train
704.4830322265625,3,2,5,0,4,1,H+,1,2,1,0,1000,250.0,2,e18am,231,train
640.4309272766113,3,2,5,0,4,1,H+,1,1,5,0,1000,250.0,1,e18am,232,train
992.5479888916016,3,2,5,0,4,1,H+,1,4,4,0,1000,250.0,4,e18am,233,train
976.1428833007812,3,2,5,0,4,1,H+,1,4,4,0,1000,250.0,4,e18am,234,train
784.4879627227783,3,2,5,0,4,1,H+,0,3,0,0,1000,250.0,4,e18am,235,train
688.507080078125,3,2,5,0,4,1,H+,1,5,2,0,1000,250.0,5,e18am,236,train
1008.5389614105225,3,2,5,0,4,1,H+,1,1,5,0,1000,250.0,1,e18am,237,train
544.4459915161133,3,2,5,0,4,1,H+,1,1,5,0,1000,250.0,1,e18am,238,train
1312.4940395355225,3,2,5,0,4,1,H+,1,4,4,0,1000,250.0,4,e18am,239,train
480.4811477661133,3,2,5,0,4,1,H+,1,4,4,0,1000,250.0,4,e18am,240,train
832.556962966919,3,2,5,0,4,1,H+,1,4,4,0,1000,250.0,4,e18am,241,train
656.4900875091553,3,2,5,0,4,1,H+,1,0,3,0,1000,250.0,0,e18am,242,train
576.5600204467773,3,2,5,0,4,1,H+,1,0,3,0,1000,250.0,0,e18am,243,train
848.5429286956787,3,2,5,0,4,1,H+,1,2,1,0,1000,250.0,2,e18am,244,train
1040.6379699707031,3,2,5,0,4,1,H+,1,0,3,0,1000,250.0,0,e18am,245,train
1680.60302734375,3,2,5,0,4,1,H+,1,0,3,0,1000,250.0,0,e18am,246,train
752.6559829711914,3,2,5,0,4,1,H+,0,3,0,0,1000,250.0,4,e18am,247,train
624.5248317718506,3,2,5,0,4,1,H+,1,5,2,0,1000,250.0,5,e18am,248,train
992.5441741943359,3,2,5,0,4,1,H+,1,3,0,0,1000,250.0,3,e18am,249,train
608.7379455566406,3,2,5,0,4,1,H+,1,5,2,0,1000,250.0,5,e18am,250,test
2496.3181018829346,3,2,5,0,4,1,H+,1,0,3,0,1000,250.0,0,e18am,251,test
656.4428806304932,3,2,5,0,4,1,H+,1,5,2,0,1000,250.0,5,e18am,252,test
608.4189414978027,3,2,5,0,4,1,H+,1,4,4,0,1000,250.0,4,e18am,253,test
1008.5029602050781,3,2,5,0,4,1,H+,1,0,3,0,1000,250.0,0,e18am,254,test
640.5520439147949,3,2,5,0,4,1,H+,1,2,1,0,1000,250.0,2,e18am,255,test
608.4780693054199,3,2,5,0,4,1,H+,1,2,1,0,1000,250.0,2,e18am,256,test
512.556791305542,3,2,5,0,4,1,H+,1,2,1,0,1000,250.0,2,e18am,257,test
1056.8821430206299,3,2,5,0,4,1,H+,1,4,4,0,1000,250.0,4,e18am,258,test
880.6619644165039,3,2,5,0,4,1,H+,1,3,0,0,1000,250.0,3,e18am,259,test
752.5520324707031,3,2,5,0,4,1,H+,1,1,5,0,1000,250.0,1,e18am,260,test
928.6899566650391,3,2,5,0,4,1,H+,1,0,3,0,1000,250.0,0,e18am,261,test
976.5570163726807,3,2,5,0,4,1,H+,1,5,2,0,1000,250.0,5,e18am,262,test
640.5150890350342,3,2,5,0,4,1,H+,1,5,2,0,1000,250.0,5,e18am,263,test
800.529956817627,3,2,5,0,4,1,H+,0,3,0,0,1000,250.0,1,e18am,264,test
624.647855758667,3,2,5,0,4,1,H+,1,5,2,0,1000,250.0,5,e18am,265,test
720.2270030975342,3,2,5,0,4,1,H+,1,4,4,0,1000,250.0,4,e18am,266,test
736.4709377288818,3,2,5,0,4,1,H+,1,0,3,0,1000,250.0,0,e18am,267,test
784.5768928527832,3,2,5,0,4,1,H+,0,2,1,0,1000,250.0,3,e18am,268,test
1136.5978717803955,3,2,5,0,4,1,H+,1,4,4,0,1000,250.0,4,e18am,269,test
816.5249824523926,3,2,5,0,4,1,H+,1,1,5,0,1000,250.0,1,e18am,270,test
1280.4820537567139,3,2,5,0,4,1,H+,1,4,4,0,1000,250.0,4,e18am,271,test
896.730899810791,3,2,5,0,4,1,H+,1,0,3,0,1000,250.0,0,e18am,272,test
672.5869178771973,3,2,5,0,4,1,H+,1,5,2,0,1000,250.0,5,e18am,273,test
592.4568176269531,3,2,5,0,4,1,H+,1,0,3,0,1000,250.0,0,e18am,274,test
800.6100654602051,3,2,5,0,4,1,H+,0,4,4,0,1000,250.0,5,e18am,275,test
784.6510410308838,3,2,5,0,4,1,H+,1,0,3,0,1000,250.0,0,e18am,276,test
736.530065536499,3,2,5,0,4,1,H+,1,5,2,0,1000,250.0,5,e18am,277,test
656.7838191986084,3,2,5,0,4,1,H+,1,4,4,0,1000,250.0,4,e18am,278,test
896.5528011322021,3,2,5,0,4,1,H+,1,0,3,0,1000,250.0,0,e18am,279,test
640.4588222503662,3,2,5,0,4,1,H+,0,3,0,0,1000,250.0,4,e18am,280,test
768.5821056365967,3,2,5,0,4,1,H+,1,1,5,0,1000,250.0,1,e18am,281,test
1200.5112171173096,3,2,5,0,4,1,H+,1,2,1,0,1000,250.0,2,e18am,282,test
1392.7900791168213,3,2,5,0,4,1,H+,1,5,2,0,1000,250.0,5,e18am,283,test
656.810998916626,3,2,5,0,4,1,H+,1,5,2,0,1000,250.0,5,e18am,284,test
528.4900665283203,3,2,5,0,4,1,H+,1,5,2,0,1000,250.0,5,e18am,285,test
672.5070476531982,3,2,5,0,4,1,H+,1,4,4,0,1000,250.0,4,e18am,286,test
1072.6039409637451,3,2,5,0,4,1,H+,1,2,1,0,1000,250.0,2,e18am,287,test
752.8071403503418,3,2,5,0,4,1,H+,1,2,1,0,1000,250.0,2,e18am,288,test
656.4760208129883,3,2,5,0,4,1,H+,1,5,2,0,1000,250.0,5,e18am,289,test
672.447919845581,3,2,5,0,4,1,H+,0,2,1,0,1000,250.0,5,e18am,290,test
672.8439331054688,3,2,5,0,4,1,H+,1,2,1,0,1000,250.0,2,e18am,291,test
704.5149803161621,3,2,5,0,4,1,H+,1,5,2,0,1000,250.0,5,e18am,292,test
1072.5419521331787,3,2,5,0,4,1,H+,1,5,2,0,1000,250.0,5,e18am,293,test
896.8391418457031,3,2,5,0,4,1,H+,1,2,1,0,1000,250.0,2,e18am,294,test
960.582971572876,3,2,5,0,4,1,H+,1,4,4,0,1000,250.0,4,e18am,295,test
688.8730525970459,3,2,5,0,4,1,H+,1,5,2,0,1000,250.0,5,e18am,296,test
640.5861377716064,3,2,5,0,4,1,H+,1,0,3,0,1000,250.0,0,e18am,297,test
576.6420364379883,3,2,5,0,4,1,H+,1,0,3,0,1000,250.0,0,e18am,298,test
704.5540809631348,3,2,5,0,4,1,H+,1,4,4,0,1000,250.0,4,e18am,299,test
640.2249336242676,3,2,5,0,4,1,H+,1,5,2,0,1000,250.0,5,e18am,300,test
832.5738906860352,3,2,5,0,4,1,H+,0,3,0,0,1000,250.0,4,e18am,301,test
720.6540107727051,3,2,5,0,4,1,H+,1,2,1,0,1000,250.0,2,e18am,302,test
720.8430767059326,3,2,5,0,4,1,H+,1,4,4,0,1000,250.0,4,e18am,303,test
672.5001335144043,3,2,5,0,4,1,H+,1,5,2,0,1000,250.0,5,e18am,304,test
656.5079689025879,3,2,5,0,4,1,H+,0,3,0,0,1000,250.0,4,e18am,305,test
1296.4200973510742,3,2,5,0,4,1,H+,1,1,5,0,1000,250.0,1,e18am,306,test
704.2710781097412,3,2,5,0,4,1,H+,1,2,1,0,1000,250.0,2,e18am,307,test
1104.5420169830322,3,2,5,0,4,1,H+,0,0,3,0,1000,250.0,4,e18am,308,test
944.7369575500488,3,2,5,0,4,1,H+,1,4,4,0,1000,250.0,4,e18am,309,test
496.3810443878174,3,2,5,0,4,1,H+,1,4,4,0,1000,250.0,4,e18am,310,test
496.47998809814453,3,2,5,0,4,1,H+,1,4,4,0,1000,250.0,4,e18am,311,test
736.5269660949707,3,2,5,0,4,1,H+,1,2,1,0,1000,250.0,2,e18am,312,test
624.6328353881836,3,2,5,0,4,1,H+,1,5,2,0,1000,250.0,5,e18am,313,test
720.5309867858887,3,2,5,0,4,1,H+,1,0,3,0,1000,250.0,0,e18am,314,test
640.5680179595947,3,2,5,0,4,1,H+,0,3,0,0,1000,250.0,4,e18am,315,test
720.5920219421387,3,2,5,0,4,1,H+,1,4,4,0,1000,250.0,4,e18am,316,test
944.5490837097168,3,2,5,0,4,1,H+,1,1,5,0,1000,250.0,1,e18am,317,test
736.6540431976318,3,2,5,0,4,1,H+,1,5,2,0,1000,250.0,5,e18am,318,test
1024.616003036499,3,2,5,0,4,1,H+,1,1,5,0,1000,250.0,1,e18am,319,test
1104.849100112915,3,2,5,0,4,1,H+,1,4,4,0,1000,250.0,4,e18am,320,test
1072.633981704712,3,2,5,0,4,1,H+,1,2,1,0,1000,250.0,2,e18am,321,test
832.5450420379639,3,2,5,0,4,1,H+,1,0,3,0,1000,250.0,0,e18am,322,test
704.4961452484131,3,2,5,0,4,1,H+,1,2,1,0,1000,250.0,2,e18am,323,test
1072.7059841156006,3,2,5,0,4,1,H+,0,3,0,0,1000,250.0,4,e18am,324,test
672.7750301361084,3,2,5,0,4,1,H+,1,5,2,0,1000,250.0,5,e18am,325,test
1184.5200061798096,3,2,5,0,4,1,H+,1,3,0,0,1000,250.0,3,e18am,326,test
1040.5290126800537,3,2,5,0,4,1,H+,1,3,0,0,1000,250.0,3,e18am,327,test
1056.5381050109863,3,2,5,0,4,1,H+,1,3,0,0,1000,250.0,3,e18am,328,test
1072.6370811462402,3,2,5,0,4,1,H+,1,3,0,0,1000,250.0,3,e18am,329,test
784.4250202178955,3,2,5,0,4,1,H+,1,5,2,0,1000,250.0,5,e18am,330,test
1104.6061515808105,3,2,5,0,4,1,H+,1,0,3,0,1000,250.0,0,e18am,331,test
1328.6490440368652,3,2,5,0,4,1,H+,1,3,0,0,1000,250.0,3,e18am,332,test
720.4999923706055,3,2,5,0,4,1,H+,1,5,2,0,1000,250.0,5,e18am,333,test
752.5289058685303,3,2,5,0,4,1,H+,0,2,1,0,1000,250.0,1,e18am,334,test
672.5800037384033,3,2,5,0,4,1,H+,1,0,3,0,1000,250.0,0,e18am,335,test
752.467155456543,3,2,5,0,4,1,H+,1,2,1,0,1000,250.0,2,e18am,336,test
608.4640026092529,3,2,5,0,4,1,H+,1,0,3,0,1000,250.0,0,e18am,337,test
1104.9118041992188,3,2,5,0,4,1,H+,1,3,0,0,1000,250.0,3,e18am,338,test
768.502950668335,3,2,5,0,4,1,H+,1,3,0,0,1000,250.0,3,e18am,339,test
688.4689331054688,3,2,5,0,4,1,H+,1,1,5,0,1000,250.0,1,e18am,340,test
624.4468688964844,3,2,5,0,4,1,H+,1,1,5,0,1000,250.0,1,e18am,341,test
608.6270809173584,3,2,5,0,4,1,H+,1,0,3,0,1000,250.0,0,e18am,342,test
1024.528980255127,3,2,5,0,4,1,H+,1,0,3,0,1000,250.0,0,e18am,343,test
1680.5639266967773,3,2,5,0,4,1,H+,1,3,0,0,1000,250.0,3,e18am,344,test
784.5230102539062,3,2,5,0,4,1,H+,1,3,0,0,1000,250.0,3,e18am,345,test
624.5050430297852,3,2,5,0,4,1,H+,1,2,1,0,1000,250.0,2,e18am,346,test
1088.5541439056396,3,2,5,0,4,1,H+,1,3,0,0,1000,250.0,3,e18am,347,test
1152.6010036468506,3,2,5,0,4,1,H+,1,0,3,0,1000,250.0,0,e18am,348,test
960.554838180542,3,2,5,0,4,1,H+,1,1,5,0,1000,250.0,1,e18am,349,test
704.55002784729,3,2,5,0,4,1,H+,1,5,2,0,1000,250.0,5,e18am,350,test
1184.6110820770264,3,2,5,0,4,1,H+,0,1,5,0,1000,250.0,4,e18am,351,test
736.5620136260986,3,2,5,0,4,1,H+,1,0,3,0,1000,250.0,0,e18am,352,test
960.5321884155273,3,2,5,0,4,1,H+,1,2,1,0,1000,250.0,2,e18am,353,test
1152.6968479156494,3,2,5,0,4,1,H+,1,3,0,0,1000,250.0,3,e18am,354,test
768.5210704803467,3,2,5,0,4,1,H+,1,5,2,0,1000,250.0,5,e18am,355,test
640.6600475311279,3,2,5,0,4,1,H+,1,0,3,0,1000,250.0,0,e18am,356,test
928.523063659668,3,2,5,0,4,1,H+,0,3,0,0,1000,250.0,4,e18am,357,test
912.6119613647461,3,2,5,0,4,1,H+,0,0,3,0,1000,250.0,1,e18am,358,test
1072.571039199829,3,2,5,0,4,1,H+,1,3,0,0,1000,250.0,3,e18am,359,test
896.8038558959961,3,2,5,0,4,1,H+,1,2,1,0,1000,250.0,2,e18am,360,test
992.5801753997803,3,2,5,0,4,1,H+,1,5,2,0,1000,250.0,5,e18am,361,test
608.4928512573242,3,2,5,0,4,1,H+,1,0,3,0,1000,250.0,0,e18am,362,test
560.5220794677734,3,2,5,0,4,1,H+,1,0,3,0,1000,250.0,0,e18am,363,test
576.4780044555664,3,2,5,0,4,1,H+,1,1,5,0,1000,250.0,1,e18am,364,test
687.8430843353271,3,2,5,0,4,1,H+,1,2,1,0,1000,250.0,2,e18am,365,test
576.5938758850098,3,2,5,0,4,1,H+,0,0,3,0,1000,250.0,1,e18am,366,test
752.532958984375,3,2,5,0,4,1,H+,1,5,2,0,1000,250.0,5,e18am,367,test
1888.5700702667236,3,2,5,0,4,1,H+,1,3,0,0,1000,250.0,3,e18am,368,test
656.4362049102783,3,2,5,0,4,1,H+,1,1,5,0,1000,250.0,1,e18am,369,test
880.4221153259277,3,2,5,0,4,1,H+,1,0,3,0,1000,250.0,0,e18am,370,test
848.5300540924072,3,2,5,0,4,1,H+,1,1,5,0,1000,250.0,1,e18am,371,test
704.4899463653564,3,2,5,0,4,1,H+,1,5,2,0,1000,250.0,5,e18am,372,test
976.6011238098145,3,2,5,0,4,1,H+,1,1,5,0,1000,250.0,1,e18am,373,test
656.4249992370605,3,2,5,0,4,1,H+,1,3,0,0,1000,250.0,3,e18am,374,test
1056.5168857574463,3,2,5,0,4,1,H+,1,0,3,0,1000,250.0,0,e18am,375,test
1984.5521450042725,3,2,5,0,4,1,H+,1,3,0,0,1000,250.0,3,e18am,376,test
1088.8350009918213,3,2,5,0,4,1,H+,1,1,5,0,1000,250.0,1,e18am,377,test
720.5851078033447,3,2,5,0,4,1,H+,1,4,4,0,1000,250.0,4,e18am,378,test
656.4970016479492,3,2,5,0,4,1,H+,1,4,4,0,1000,250.0,4,e18am,379,test
816.5090084075928,3,2,5,0,4,1,H+,0,3,0,0,1000,250.0,2,e18am,380,test
832.5719833374023,3,2,5,0,4,1,H+,1,3,0,0,1000,250.0,3,e18am,381,test
896.5010643005371,3,2,5,0,4,1,H+,1,0,3,0,1000,250.0,0,e18am,382,test
1136.6209983825684,3,2,5,0,4,1,H+,1,3,0,0,1000,250.0,3,e18am,383,test
736.4311218261719,3,2,5,0,4,1,H+,1,1,5,0,1000,250.0,1,e18am,384,test
928.5199642181396,3,2,5,0,4,1,H+,1,0,3,0,1000,250.0,0,e18am,385,test
736.0479831695557,3,2,5,0,4,1,H+,1,5,2,0,1000,250.0,5,e18am,386,test
879.662036895752,3,2,5,0,4,1,H+,1,4,4,0,1000,250.0,4,e18am,387,test
799.7920513153076,3,2,5,0,4,1,H+,1,0,3,0,1000,250.0,0,e18am,388,test
735.9628677368164,3,2,5,0,4,1,H+,1,1,5,0,1000,250.0,1,e18am,389,test
719.7039127349854,3,2,5,0,4,1,H+,1,4,4,0,1000,250.0,4,e18am,390,test
1039.5278930664062,3,2,5,0,4,1,H+,1,0,3,0,1000,250.0,0,e18am,391,test
895.9438800811768,3,2,5,0,4,1,H+,1,1,5,0,1000,250.0,1,e18am,392,test
735.9929084777832,3,2,5,0,4,1,H+,1,4,4,0,1000,250.0,4,e18am,393,test
608.5560321807861,3,2,5,0,4,1,H+,1,5,2,0,1000,250.0,5,e18am,394,test
592.8020477294922,3,2,5,0,4,1,H+,1,0,3,0,1000,250.0,0,e18am,395,test
592.6370620727539,3,2,5,0,4,1,H+,1,5,2,0,1000,250.0,5,e18am,396,test
896.5620994567871,3,2,5,0,4,1,H+,1,1,5,0,1000,250.0,1,e18am,397,test
1104.8529148101807,3,2,5,0,4,1,H+,1,3,0,0,1000,250.0,3,e18am,398,test
784.4889163970947,3,2,5,0,4,1,H+,1,5,2,0,1000,250.0,5,e18am,399,test
1264.6238803863525,3,2,5,0,4,1,H+,1,0,3,0,1000,250.0,0,e18am,400,test
800.2500534057617,3,2,5,0,4,1,H+,1,2,1,0,1000,250.0,2,e18am,401,test
1008.4481239318848,3,2,5,0,4,1,H+,1,2,1,0,1000,250.0,2,e18am,402,test
768.4500217437744,3,2,5,0,4,1,H+,1,0,3,0,1000,250.0,0,e18am,403,test
784.5480442047119,3,2,5,0,4,1,H+,1,0,3,0,1000,250.0,0,e18am,404,test
976.654052734375,3,2,5,0,4,1,H+,1,5,2,0,1000,250.0,5,e18am,405,test
752.5010108947754,3,2,5,0,4,1,H+,1,5,2,0,1000,250.0,5,e18am,406,test
640.6421661376953,3,2,5,0,4,1,H+,1,1,5,0,1000,250.0,1,e18am,407,test
912.578821182251,3,2,5,0,4,1,H+,1,3,0,0,1000,250.0,3,e18am,408,test
560.6579780578613,3,2,5,0,4,1,H+,1,3,0,0,1000,250.0,3,e18am,409,test
720.5362319946289,3,2,5,0,4,1,H+,1,4,4,0,1000,250.0,4,e18am,410,test
704.5600414276123,3,2,5,0,4,1,H+,1,4,4,0,1000,250.0,4,e18am,411,test
1152.6591777801514,3,2,5,0,4,1,H+,1,3,0,0,1000,250.0,3,e18am,412,test
912.2860431671143,3,2,5,0,4,1,H+,1,1,5,0,1000,250.0,1,e18am,413,test
1056.6051006317139,3,2,5,0,4,1,H+,1,4,4,0,1000,250.0,4,e18am,414,test
1264.4309997558594,3,2,5,0,4,1,H+,1,2,1,0,1000,250.0,2,e18am,415,test
752.8510093688965,3,2,5,0,4,1,H+,1,1,5,0,1000,250.0,1,e18am,416,test
608.4489822387695,3,2,5,0,4,1,H+,1,1,5,0,1000,250.0,1,e18am,417,test
768.496036529541,3,2,5,0,4,1,H+,1,2,1,0,1000,250.0,2,e18am,418,test
688.4751319885254,3,2,5,0,4,1,H+,1,5,2,0,1000,250.0,5,e18am,419,test
1088.533878326416,3,2,5,0,4,1,H+,1,5,2,0,1000,250.0,5,e18am,420,test
624.4640350341797,3,2,5,0,4,1,H+,1,2,1,0,1000,250.0,2,e18am,421,test
688.4560585021973,3,2,5,0,4,1,H+,1,5,2,0,1000,250.0,5,e18am,422,test
1040.644884109497,3,2,5,0,4,1,H+,1,0,3,0,1000,250.0,0,e18am,423,test
1232.5470447540283,3,2,5,0,4,1,H+,1,1,5,0,1000,250.0,1,e18am,424,test
720.329999923706,3,2,5,0,4,1,H+,1,1,5,0,1000,250.0,1,e18am,425,test
800.6200790405273,3,2,5,0,4,1,H+,1,2,1,0,1000,250.0,2,e18am,426,test
736.5081310272217,3,2,5,0,4,1,H+,1,0,3,0,1000,250.0,0,e18am,427,test
688.3499622344971,3,2,5,0,4,1,H+,1,2,1,0,1000,250.0,2,e18am,428,test
624.521017074585,3,2,5,0,4,1,H+,1,2,1,0,1000,250.0,2,e18am,429,test
784.6379280090332,3,2,5,0,4,1,H+,1,1,5,0,1000,250.0,1,e18am,430,test
688.6298656463623,3,2,5,0,4,1,H+,1,5,2,0,1000,250.0,5,e18am,431,test
784.6457958221436,3,2,5,0,4,1,H+,1,1,5,0,1000,250.0,1,e18am,432,test
864.7689819335938,3,2,5,0,4,1,H+,1,4,4,0,1000,250.0,4,e18am,433,test
944.5309638977051,3,2,5,0,4,1,H+,1,0,3,0,1000,250.0,0,e18am,434,test
1136.667013168335,3,2,5,0,4,1,H+,1,3,0,0,1000,250.0,3,e18am,435,test
832.4828147888184,3,2,5,0,4,1,H+,1,1,5,0,1000,250.0,1,e18am,436,test
704.5178413391113,3,2,5,0,4,1,H+,1,5,2,0,1000,250.0,5,e18am,437,test
608.9639663696289,3,2,5,0,4,1,H+,1,0,3,0,1000,250.0,0,e18am,438,test
1168.9419746398926,3,2,5,0,4,1,H+,1,3,0,0,1000,250.0,3,e18am,439,test
1553.0290603637695,3,2,5,0,4,1,H+,1,5,2,0,1000,250.0,5,e18am,440,test
833.0450057983398,3,2,5,0,4,1,H+,1,2,1,0,1000,250.0,2,e18am,441,test
673.0270385742188,3,2,5,0,4,1,H+,0,0,3,0,1000,250.0,1,e18am,442,test
657.006025314331,3,2,5,0,4,1,H+,1,0,3,0,1000,250.0,0,e18am,443,test
784.9600315093994,3,2,5,0,4,1,H+,1,1,5,0,1000,250.0,1,e18am,444,test
944.9400901794434,3,2,5,0,4,1,H+,1,0,3,0,1000,250.0,0,e18am,445,test
1008.5289478302002,3,2,5,0,4,1,H+,1,2,1,0,1000,250.0,2,e18am,446,test
768.604040145874,3,2,5,0,4,1,H+,1,4,4,0,1000,250.0,4,e18am,447,test
848.5550880432129,3,2,5,0,4,1,H+,1,0,3,0,1000,250.0,0,e18am,448,test
848.5231399536133,3,2,5,0,4,1,H+,1,2,1,0,1000,250.0,2,e18am,449,test
1120.8570003509521,3,2,5,0,4,1,H+,1,2,1,0,1000,250.0,2,e18am,450,test
816.8680667877197,3,2,5,0,4,1,H+,1,1,5,0,1000,250.0,1,e18am,451,test
800.5161285400391,3,2,5,0,4,1,H+,1,4,4,0,1000,250.0,4,e18am,452,test
1056.5440654754639,3,2,5,0,4,1,H+,1,3,0,0,1000,250.0,3,e18am,453,test
624.9129772186279,3,2,5,0,4,1,H+,0,2,1,0,1000,250.0,3,e18am,454,test
704.719066619873,3,2,5,0,4,1,H+,1,1,5,0,1000,250.0,1,e18am,455,test
752.518892288208,3,2,5,0,4,1,H+,1,1,5,0,1000,250.0,1,e18am,456,test
816.5068626403809,3,2,5,0,4,1,H+,1,2,1,0,1000,250.0,2,e18am,457,test
576.4451026916504,3,2,5,0,4,1,H+,1,2,1,0,1000,250.0,2,e18am,458,test
720.5390930175781,3,2,5,0,4,1,H+,1,5,2,0,1000,250.0,5,e18am,459,test
864.4599914550781,3,2,5,0,4,1,H+,0,3,0,0,1000,250.0,4,e18am,460,test
608.6299419403076,3,2,5,0,4,1,H+,1,5,2,0,1000,250.0,5,e18am,461,test
704.4670581817627,3,2,5,0,4,1,H+,1,0,3,0,1000,250.0,0,e18am,462,test
1424.5169162750244,3,2,5,0,4,1,H+,1,3,0,0,1000,250.0,3,e18am,463,test
816.504955291748,3,2,5,0,4,1,H+,0,3,0,0,1000,250.0,1,e18am,464,test
960.684061050415,3,2,5,0,4,1,H+,1,3,0,0,1000,250.0,3,e18am,465,test
656.5380096435547,3,2,5,0,4,1,H+,1,3,0,0,1000,250.0,3,e18am,466,test
1280.2488803863525,3,2,5,0,4,1,H+,1,4,4,0,1000,250.0,4,e18am,467,test
912.6269817352295,3,2,5,0,4,1,H+,1,3,0,0,1000,250.0,3,e18am,468,test
672.6269721984863,3,2,5,0,4,1,H+,1,3,0,0,1000,250.0,3,e18am,469,test
784.5871448516846,3,2,5,0,4,1,H+,1,2,1,0,1000,250.0,2,e18am,470,test
608.6888313293457,3,2,5,0,4,1,H+,1,2,1,0,1000,250.0,2,e18am,471,test
688.4348392486572,3,2,5,0,4,1,H+,1,1,5,0,1000,250.0,1,e18am,472,test
560.6601238250732,3,2,5,0,4,1,H+,1,1,5,0,1000,250.0,1,e18am,473,test
720.5939292907715,3,2,5,0,4,1,H+,1,3,0,0,1000,250.0,3,e18am,474,test
576.4648914337158,3,2,5,0,4,1,H+,1,1,5,0,1000,250.0,1,e18am,475,test
848.5829830169678,3,2,5,0,4,1,H+,1,4,4,0,1000,250.0,4,e18am,476,test
624.8061656951904,3,2,5,0,4,1,H+,1,0,3,0,1000,250.0,0,e18am,477,test
512.6121044158936,3,2,5,0,4,1,H+,1,0,3,0,1000,250.0,0,e18am,478,test
1136.6090774536133,3,2,5,0,4,1,H+,1,2,1,0,1000,250.0,2,e18am,479,test
816.4999485015869,3,2,5,0,4,1,H+,1,1,5,0,1000,250.0,1,e18am,480,test
896.5039253234863,3,2,5,0,4,1,H+,1,4,4,0,1000,250.0,4,e18am,481,test
1936.527967453003,3,2,5,0,4,1,H+,1,4,4,0,1000,250.0,4,e18am,482,test
784.6248149871826,3,2,5,0,4,1,H+,1,2,1,0,1000,250.0,2,e18am,483,test
672.6319789886475,3,2,5,0,4,1,H+,1,0,3,0,1000,250.0,0,e18am,484,test
608.5100173950195,3,2,5,0,4,1,H+,1,1,5,0,1000,250.0,1,e18am,485,test
816.5950775146484,3,2,5,0,4,1,H+,1,3,0,0,1000,250.0,3,e18am,486,test
848.4930992126465,3,2,5,0,4,1,H+,1,0,3,0,1000,250.0,0,e18am,487,test
784.5330238342285,3,2,5,0,4,1,H+,1,3,0,0,1000,250.0,3,e18am,488,test
1584.4790935516357,3,2,5,0,4,1,H+,1,4,4,0,1000,250.0,4,e18am,489,test
736.6437911987305,3,2,5,0,4,1,H+,1,0,3,0,1000,250.0,0,e18am,490,test
704.5199871063232,3,2,5,0,4,1,H+,1,5,2,0,1000,250.0,5,e18am,491,test
912.5540256500244,3,2,5,0,4,1,H+,1,1,5,0,1000,250.0,1,e18am,492,test
608.4990501403809,3,2,5,0,4,1,H+,0,4,4,0,1000,250.0,5,e18am,493,test
624.5319843292236,3,2,5,0,4,1,H+,1,5,2,0,1000,250.0,5,e18am,494,test
720.6718921661377,3,2,5,0,4,1,H+,1,1,5,0,1000,250.0,1,e18am,495,test
688.7650489807129,3,2,5,0,4,1,H+,1,0,3,0,1000,250.0,0,e18am,496,test
576.483964920044,3,2,5,0,4,1,H+,1,1,5,0,1000,250.0,1,e18am,497,test
640.496015548706,3,2,5,0,4,1,H+,1,5,2,0,1000,250.0,5,e18am,498,test
608.4740161895752,3,2,5,0,4,1,H+,1,5,2,0,1000,250.0,5,e18am,499,test
