RT,SRmap_0,SRmap_1,SRmap_2,SRmap_3,SRmap_4,SRmap_5,condition,correct,correct_response,curstim,ms-precue,ms-prestimblank,ntrials,response,subject,trial,type
4080.4519653320312,5,2,0,3,4,1,H+,1,3,3,0,1000,250.0,3,C26SL,0,train
1824.965000152588,5,2,0,3,4,1,H+,1,2,1,0,1000,250.0,2,C26SL,1,train
1392.6751613616943,5,2,0,3,4,1,H+,1,1,5,0,1000,250.0,1,C26SL,2,train
1152.79221534729,5,2,0,3,4,1,H+,1,2,1,0,1000,250.0,2,C26SL,3,train
1393.8050270080566,5,2,0,3,4,1,H+,1,5,0,0,1000,250.0,5,C26SL,4,train
1248.6588954925537,5,2,0,3,4,1,H+,1,4,4,0,1000,250.0,4,C26SL,5,train
1088.9668464660645,5,2,0,3,4,1,H+,1,2,1,0,1000,250.0,2,C26SL,6,train
1088.9828205108643,5,2,0,3,4,1,H+,1,3,3,0,1000,250.0,3,C26SL,7,train
1248.6519813537598,5,2,0,3,4,1,H+,1,5,0,0,1000,250.0,5,C26SL,8,train
1440.392017364502,5,2,0,3,4,1,H+,1,3,3,0,1000,250.0,3,C26SL,9,train
1105.1061153411865,5,2,0,3,4,1,H+,1,4,4,0,1000,250.0,4,C26SL,10,train
1024.7368812561035,5,2,0,3,4,1,H+,1,1,5,0,1000,250.0,1,C26SL,11,train
752.7298927307129,5,2,0,3,4,1,H+,1,1,5,0,1000,250.0,1,C26SL,12,train
2400.703191757202,5,2,0,3,4,1,H+,1,0,2,0,1000,250.0,0,C26SL,13,train
848.646879196167,5,2,0,3,4,1,H+,1,2,1,0,1000,250.0,2,C26SL,14,train
929.0530681610107,5,2,0,3,4,1,H+,1,2,1,0,1000,250.0,2,C26SL,15,train
752.7101039886475,5,2,0,3,4,1,H+,1,2,1,0,1000,250.0,2,C26SL,16,train
992.8958415985107,5,2,0,3,4,1,H+,1,3,3,0,1000,250.0,3,C26SL,17,train
1536.7531776428223,5,2,0,3,4,1,H+,1,5,0,0,1000,250.0,5,C26SL,18,train
1664.4549369812012,5,2,0,3,4,1,H+,1,0,2,0,1000,250.0,0,C26SL,19,train
1537.0409488677979,5,2,0,3,4,1,H+,1,5,0,0,1000,250.0,5,C26SL,20,train
1440.4339790344238,5,2,0,3,4,1,H+,1,1,5,0,1000,250.0,1,C26SL,21,train
1008.6009502410889,5,2,0,3,4,1,H+,1,1,5,0,1000,250.0,1,C26SL,22,train
1312.5040531158447,5,2,0,3,4,1,H+,1,5,0,0,1000,250.0,5,C26SL,23,train
865.0691509246826,5,2,0,3,4,1,H+,1,0,2,0,1000,250.0,0,C26SL,24,train
752.6581287384033,5,2,0,3,4,1,H+,1,2,1,0,1000,250.0,2,C26SL,25,train
1104.801893234253,5,2,0,3,4,1,H+,1,5,0,0,1000,250.0,5,C26SL,26,train
1072.6871490478516,5,2,0,3,4,1,H+,1,3,3,0,1000,250.0,3,C26SL,27,train
687.8390312194824,5,2,0,3,4,1,H+,1,1,5,0,1000,250.0,1,C26SL,28,train
1057.054042816162,5,2,0,3,4,1,H+,1,0,2,0,1000,250.0,0,C26SL,29,train
752.7279853820801,5,2,0,3,4,1,H+,0,2,1,0,1000,250.0,0,C26SL,30,train
1327.9740810394287,5,2,0,3,4,1,H+,1,4,4,0,1000,250.0,4,C26SL,31,train
512.4928951263428,5,2,0,3,4,1,H+,1,4,4,0,1000,250.0,4,C26SL,32,train
800.4531860351562,5,2,0,3,4,1,H+,1,5,0,0,1000,250.0,5,C26SL,33,train
864.4850254058838,5,2,0,3,4,1,H+,1,3,3,0,1000,250.0,3,C26SL,34,train
1088.8278484344482,5,2,0,3,4,1,H+,1,2,1,0,1000,250.0,2,C26SL,35,train
720.848798751831,5,2,0,3,4,1,H+,1,2,1,0,1000,250.0,2,C26SL,36,train
721.0390567779541,5,2,0,3,4,1,H+,1,2,1,0,1000,250.0,2,C26SL,37,train
848.5500812530518,5,2,0,3,4,1,H+,0,3,3,0,1000,250.0,4,C26SL,38,train
766.5400505065918,5,2,0,3,4,1,H+,1,0,2,0,1000,250.0,0,C26SL,39,train
432.92808532714844,5,2,0,3,4,1,H+,1,5,0,0,1000,250.0,5,C26SL,40,train
544.8591709136963,5,2,0,3,4,1,H+,1,3,3,0,1000,250.0,3,C26SL,41,train
943.3701038360596,5,2,0,3,4,1,H+,1,1,5,0,1000,250.0,1,C26SL,42,train
1184.8771572113037,5,2,0,3,4,1,H+,1,3,3,0,1000,250.0,3,C26SL,43,train
625.0019073486328,5,2,0,3,4,1,H+,1,3,3,0,1000,250.0,3,C26SL,44,train
624.7498989105225,5,2,0,3,4,1,H+,1,1,5,0,1000,250.0,1,C26SL,45,train
689.0051364898682,5,2,0,3,4,1,H+,1,0,2,0,1000,250.0,0,C26SL,46,train
688.7578964233398,5,2,0,3,4,1,H+,1,1,5,0,1000,250.0,1,C26SL,47,train
496.9930648803711,5,2,0,3,4,1,H+,0,3,3,0,1000,250.0,1,C26SL,48,train
704.970121383667,5,2,0,3,4,1,H+,1,0,2,0,1000,250.0,0,C26SL,49,train
848.4780788421631,5,2,0,3,4,1,H+,1,2,1,0,1000,250.0,2,C26SL,50,train
896.4579105377197,5,2,0,3,4,1,H+,1,0,2,0,1000,250.0,0,C26SL,51,train
944.706916809082,5,2,0,3,4,1,H+,1,3,3,0,1000,250.0,3,C26SL,52,train
736.5400791168213,5,2,0,3,4,1,H+,1,3,3,0,1000,250.0,3,C26SL,53,train
704.6730518341064,5,2,0,3,4,1,H+,1,1,5,0,1000,250.0,1,C26SL,54,train
896.9800472259521,5,2,0,3,4,1,H+,1,3,3,0,1000,250.0,3,C26SL,55,train
576.8139362335205,5,2,0,3,4,1,H+,1,3,3,0,1000,250.0,3,C26SL,56,train
673.084020614624,5,2,0,3,4,1,H+,1,1,5,0,1000,250.0,1,C26SL,57,train
864.9630546569824,5,2,0,3,4,1,H+,1,2,1,0,1000,250.0,2,C26SL,58,train
928.7130832672119,5,2,0,3,4,1,H+,1,3,3,0,1000,250.0,3,C26SL,59,train
512.4900341033936,5,2,0,3,4,1,H+,1,3,3,0,1000,250.0,3,C26SL,60,train
448.96483421325684,5,2,0,3,4,1,H+,1,3,3,0,1000,250.0,3,C26SL,61,train
752.7239322662354,5,2,0,3,4,1,H+,1,5,0,0,1000,250.0,5,C26SL,62,train
592.7109718322754,5,2,0,3,4,1,H+,1,3,3,0,1000,250.0,3,C26SL,63,train
352.7708053588867,5,2,0,3,4,1,H+,1,4,4,0,1000,250.0,4,C26SL,64,train
480.88812828063965,5,2,0,3,4,1,H+,1,4,4,0,1000,250.0,4,C26SL,65,train
784.9891185760498,5,2,0,3,4,1,H+,1,5,0,0,1000,250.0,5,C26SL,66,train
448.8401412963867,5,2,0,3,4,1,H+,1,5,0,0,1000,250.0,5,C26SL,67,train
560.1968765258789,5,2,0,3,4,1,H+,0,1,5,0,1000,250.0,0,C26SL,68,train
1088.90700340271,5,2,0,3,4,1,H+,0,2,1,0,1000,250.0,3,C26SL,69,train
784.8191261291504,5,2,0,3,4,1,H+,1,1,5,0,1000,250.0,1,C26SL,70,train
1008.9259147644043,5,2,0,3,4,1,H+,1,3,3,0,1000,250.0,3,C26SL,71,train
687.0911121368408,5,2,0,3,4,1,H+,1,4,4,0,1000,250.0,4,C26SL,72,train
672.7199554443359,5,2,0,3,4,1,H+,1,0,2,0,1000,250.0,0,C26SL,73,train
734.6370220184326,5,2,0,3,4,1,H+,1,1,5,0,1000,250.0,1,C26SL,74,train
800.739049911499,5,2,0,3,4,1,H+,0,4,4,0,1000,250.0,3,C26SL,75,train
1136.7089748382568,5,2,0,3,4,1,H+,1,3,3,0,1000,250.0,3,C26SL,76,train
592.987060546875,5,2,0,3,4,1,H+,1,0,2,0,1000,250.0,0,C26SL,77,train
497.0118999481201,5,2,0,3,4,1,H+,1,0,2,0,1000,250.0,0,C26SL,78,train
1057.0862293243408,5,2,0,3,4,1,H+,1,5,0,0,1000,250.0,5,C26SL,79,train
944.6451663970947,5,2,0,3,4,1,H+,1,2,1,0,1000,250.0,2,C26SL,80,train
593.0759906768799,5,2,0,3,4,1,H+,1,0,2,0,1000,250.0,0,C26SL,81,train
880.7399272918701,5,2,0,3,4,1,H+,1,5,0,0,1000,250.0,5,C26SL,82,train
928.9920330047607,5,2,0,3,4,1,H+,1,3,3,0,1000,250.0,3,C26SL,83,train
1136.7621421813965,5,2,0,3,4,1,H+,1,2,1,0,1000,250.0,2,C26SL,84,train
944.7829723358154,5,2,0,3,4,1,H+,1,3,3,0,1000,250.0,3,C26SL,85,train
817.0368671417236,5,2,0,3,4,1,H+,1,5,0,0,1000,250.0,5,C26SL,86,train
1120.3501224517822,5,2,0,3,4,1,H+,1,2,1,0,1000,250.0,2,C26SL,87,train
1008.9249610900879,5,2,0,3,4,1,H+,1,4,4,0,1000,250.0,4,C26SL,88,train
673.069953918457,5,2,0,3,4,1,H+,1,4,4,0,1000,250.0,4,C26SL,89,train
737.1459007263184,5,2,0,3,4,1,H+,1,0,2,0,1000,250.0,0,C26SL,90,train
992.8209781646729,5,2,0,3,4,1,H+,1,0,2,0,1000,250.0,0,C26SL,91,train
1424.787998199463,5,2,0,3,4,1,H+,1,2,1,0,1000,250.0,2,C26SL,92,train
752.540111541748,5,2,0,3,4,1,H+,1,1,5,0,1000,250.0,1,C26SL,93,train
686.6741180419922,5,2,0,3,4,1,H+,1,5,0,0,1000,250.0,5,C26SL,94,train
640.9919261932373,5,2,0,3,4,1,H+,1,5,0,0,1000,250.0,5,C26SL,95,train
1040.7259464263916,5,2,0,3,4,1,H+,1,3,3,0,1000,250.0,3,C26SL,96,train
910.5911254882812,5,2,0,3,4,1,H+,1,2,1,0,1000,250.0,2,C26SL,97,train
1008.9020729064941,5,2,0,3,4,1,H+,1,5,0,0,1000,250.0,5,C26SL,98,train
720.9351062774658,5,2,0,3,4,1,H+,1,1,5,0,1000,250.0,1,C26SL,99,train
544.619083404541,5,2,0,3,4,1,H+,1,1,5,0,1000,250.0,1,C26SL,100,train
704.7760486602783,5,2,0,3,4,1,H+,1,5,0,0,1000,250.0,5,C26SL,101,train
832.6869010925293,5,2,0,3,4,1,H+,1,0,2,0,1000,250.0,0,C26SL,102,train
784.9218845367432,5,2,0,3,4,1,H+,1,5,0,0,1000,250.0,5,C26SL,103,train
720.660924911499,5,2,0,3,4,1,H+,0,2,1,0,1000,250.0,0,C26SL,104,train
672.760009765625,5,2,0,3,4,1,H+,1,1,5,0,1000,250.0,1,C26SL,105,train
960.9699249267578,5,2,0,3,4,1,H+,1,4,4,0,1000,250.0,4,C26SL,106,train
880.875825881958,5,2,0,3,4,1,H+,1,1,5,0,1000,250.0,1,C26SL,107,train
944.443941116333,5,2,0,3,4,1,H+,1,3,3,0,1000,250.0,3,C26SL,108,train
752.4681091308594,5,2,0,3,4,1,H+,1,5,0,0,1000,250.0,5,C26SL,109,train
480.694055557251,5,2,0,3,4,1,H+,1,5,0,0,1000,250.0,5,C26SL,110,train
832.9999446868896,5,2,0,3,4,1,H+,1,4,4,0,1000,250.0,4,C26SL,111,train
656.8739414215088,5,2,0,3,4,1,H+,1,1,5,0,1000,250.0,1,C26SL,112,train
848.9060401916504,5,2,0,3,4,1,H+,1,2,1,0,1000,250.0,2,C26SL,113,train
576.3909816741943,5,2,0,3,4,1,H+,1,2,1,0,1000,250.0,2,C26SL,114,train
897.0391750335693,5,2,0,3,4,1,H+,1,3,3,0,1000,250.0,3,C26SL,115,train
704.8819065093994,5,2,0,3,4,1,H+,1,3,3,0,1000,250.0,3,C26SL,116,train
832.7970504760742,5,2,0,3,4,1,H+,1,2,1,0,1000,250.0,2,C26SL,117,train
976.891040802002,5,2,0,3,4,1,H+,1,0,2,0,1000,250.0,0,C26SL,118,train
721.0500240325928,5,2,0,3,4,1,H+,1,1,5,0,1000,250.0,1,C26SL,119,train
656.9340229034424,5,2,0,3,4,1,H+,1,4,4,0,1000,250.0,4,C26SL,120,train
608.4561347961426,5,2,0,3,4,1,H+,1,1,5,0,1000,250.0,1,C26SL,121,train
576.9898891448975,5,2,0,3,4,1,H+,1,1,5,0,1000,250.0,1,C26SL,122,train
768.7702178955078,5,2,0,3,4,1,H+,1,4,4,0,1000,250.0,4,C26SL,123,train
784.6159934997559,5,2,0,3,4,1,H+,1,0,2,0,1000,250.0,0,C26SL,124,train
1152.8759002685547,5,2,0,3,4,1,H+,1,3,3,0,1000,250.0,3,C26SL,125,train
1264.862060546875,5,2,0,3,4,1,H+,1,2,1,0,1000,250.0,2,C26SL,126,train
720.6368446350098,5,2,0,3,4,1,H+,0,2,1,0,1000,250.0,0,C26SL,127,train
689.0220642089844,5,2,0,3,4,1,H+,1,1,5,0,1000,250.0,1,C26SL,128,train
704.1120529174805,5,2,0,3,4,1,H+,1,5,0,0,1000,250.0,5,C26SL,129,train
672.5640296936035,5,2,0,3,4,1,H+,1,4,4,0,1000,250.0,4,C26SL,130,train
657.0160388946533,5,2,0,3,4,1,H+,1,1,5,0,1000,250.0,1,C26SL,131,train
624.6511936187744,5,2,0,3,4,1,H+,1,2,1,0,1000,250.0,2,C26SL,132,train
528.8231372833252,5,2,0,3,4,1,H+,1,2,1,0,1000,250.0,2,C26SL,133,train
672.8100776672363,5,2,0,3,4,1,H+,1,4,4,0,1000,250.0,4,C26SL,134,train
928.9870262145996,5,2,0,3,4,1,H+,1,3,3,0,1000,250.0,3,C26SL,135,train
560.7800483703613,5,2,0,3,4,1,H+,1,2,1,0,1000,250.0,2,C26SL,136,train
513.7510299682617,5,2,0,3,4,1,H+,1,2,1,0,1000,250.0,2,C26SL,137,train
609.0989112854004,5,2,0,3,4,1,H+,1,4,4,0,1000,250.0,4,C26SL,138,train
1328.474998474121,5,2,0,3,4,1,H+,1,5,0,0,1000,250.0,5,C26SL,139,train
784.250020980835,5,2,0,3,4,1,H+,1,2,1,0,1000,250.0,2,C26SL,140,train
513.0178928375244,5,2,0,3,4,1,H+,1,1,5,0,1000,250.0,1,C26SL,141,train
752.9871463775635,5,2,0,3,4,1,H+,1,0,2,0,1000,250.0,0,C26SL,142,train
608.5469722747803,5,2,0,3,4,1,H+,1,1,5,0,1000,250.0,1,C26SL,143,train
672.396183013916,5,2,0,3,4,1,H+,1,5,0,0,1000,250.0,5,C26SL,144,train
592.9617881774902,5,2,0,3,4,1,H+,1,5,0,0,1000,250.0,5,C26SL,145,train
480.87286949157715,5,2,0,3,4,1,H+,1,5,0,0,1000,250.0,5,C26SL,146,train
640.779972076416,5,2,0,3,4,1,H+,1,4,4,0,1000,250.0,4,C26SL,147,train
481.050968170166,5,2,0,3,4,1,H+,0,4,4,0,1000,250.0,5,C26SL,148,train
913.0980968475342,5,2,0,3,4,1,H+,1,4,4,0,1000,250.0,4,C26SL,149,train
1648.5710144042969,5,2,0,3,4,1,H+,1,5,0,0,1000,250.0,5,C26SL,150,train
606.4319610595703,5,2,0,3,4,1,H+,1,2,1,0,1000,250.0,2,C26SL,151,train
560.4920387268066,5,2,0,3,4,1,H+,1,4,4,0,1000,250.0,4,C26SL,152,train
704.7569751739502,5,2,0,3,4,1,H+,0,3,3,0,1000,250.0,2,C26SL,153,train
816.7209625244141,5,2,0,3,4,1,H+,1,4,4,0,1000,250.0,4,C26SL,154,train
816.918134689331,5,2,0,3,4,1,H+,1,5,0,0,1000,250.0,5,C26SL,155,train
577.1329402923584,5,2,0,3,4,1,H+,1,0,2,0,1000,250.0,0,C26SL,156,train
720.3891277313232,5,2,0,3,4,1,H+,1,2,1,0,1000,250.0,2,C26SL,157,train
383.41212272644043,5,2,0,3,4,1,H+,1,3,3,0,1000,250.0,3,C26SL,158,train
560.9779357910156,5,2,0,3,4,1,H+,1,0,2,0,1000,250.0,0,C26SL,159,train
497.0529079437256,5,2,0,3,4,1,H+,1,2,1,0,1000,250.0,2,C26SL,160,train
928.7610054016113,5,2,0,3,4,1,H+,1,1,5,0,1000,250.0,1,C26SL,161,train
816.6821002960205,5,2,0,3,4,1,H+,1,1,5,0,1000,250.0,1,C26SL,162,train
496.4900016784668,5,2,0,3,4,1,H+,1,5,0,0,1000,250.0,5,C26SL,163,train
800.3342151641846,5,2,0,3,4,1,H+,1,2,1,0,1000,250.0,2,C26SL,164,train
624.7789859771729,5,2,0,3,4,1,H+,1,1,5,0,1000,250.0,1,C26SL,165,train
704.7648429870605,5,2,0,3,4,1,H+,1,4,4,0,1000,250.0,4,C26SL,166,train
560.8229637145996,5,2,0,3,4,1,H+,1,0,2,0,1000,250.0,0,C26SL,167,train
654.5491218566895,5,2,0,3,4,1,H+,1,5,0,0,1000,250.0,5,C26SL,168,train
560.5239868164062,5,2,0,3,4,1,H+,1,0,2,0,1000,250.0,0,C26SL,169,train
592.5428867340088,5,2,0,3,4,1,H+,0,5,0,0,1000,250.0,4,C26SL,170,train
800.5139827728271,5,2,0,3,4,1,H+,1,4,4,0,1000,250.0,4,C26SL,171,train
1392.894983291626,5,2,0,3,4,1,H+,1,2,1,0,1000,250.0,2,C26SL,172,train
784.7499847412109,5,2,0,3,4,1,H+,1,2,1,0,1000,250.0,2,C26SL,173,train
687.2000694274902,5,2,0,3,4,1,H+,1,1,5,0,1000,250.0,1,C26SL,174,train
721.1208343505859,5,2,0,3,4,1,H+,1,0,2,0,1000,250.0,0,C26SL,175,train
720.5801010131836,5,2,0,3,4,1,H+,1,4,4,0,1000,250.0,4,C26SL,176,train
528.9549827575684,5,2,0,3,4,1,H+,1,1,5,0,1000,250.0,1,C26SL,177,train
961.0080718994141,5,2,0,3,4,1,H+,1,3,3,0,1000,250.0,3,C26SL,178,train
608.7307929992676,5,2,0,3,4,1,H+,1,4,4,0,1000,250.0,4,C26SL,179,train
544.8169708251953,5,2,0,3,4,1,H+,1,1,5,0,1000,250.0,1,C26SL,180,train
832.7760696411133,5,2,0,3,4,1,H+,1,3,3,0,1000,250.0,3,C26SL,181,train
528.7680625915527,5,2,0,3,4,1,H+,1,1,5,0,1000,250.0,1,C26SL,182,train
656.4788818359375,5,2,0,3,4,1,H+,1,3,3,0,1000,250.0,3,C26SL,183,train
688.9901161193848,5,2,0,3,4,1,H+,1,2,1,0,1000,250.0,2,C26SL,184,train
801.0051250457764,5,2,0,3,4,1,H+,1,4,4,0,1000,250.0,4,C26SL,185,train
880.6869983673096,5,2,0,3,4,1,H+,1,5,0,0,1000,250.0,5,C26SL,186,train
592.771053314209,5,2,0,3,4,1,H+,1,1,5,0,1000,250.0,1,C26SL,187,train
880.8538913726807,5,2,0,3,4,1,H+,1,4,4,0,1000,250.0,4,C26SL,188,train
545.0069904327393,5,2,0,3,4,1,H+,1,0,2,0,1000,250.0,0,C26SL,189,train
544.5139408111572,5,2,0,3,4,1,H+,1,1,5,0,1000,250.0,1,C26SL,190,train
832.5819969177246,5,2,0,3,4,1,H+,1,3,3,0,1000,250.0,3,C26SL,191,train
544.7540283203125,5,2,0,3,4,1,H+,1,1,5,0,1000,250.0,1,C26SL,192,train
721.0190296173096,5,2,0,3,4,1,H+,1,2,1,0,1000,250.0,2,C26SL,193,train
526.6311168670654,5,2,0,3,4,1,H+,1,1,5,0,1000,250.0,1,C26SL,194,train
784.782886505127,5,2,0,3,4,1,H+,1,2,1,0,1000,250.0,2,C26SL,195,train
561.1519813537598,5,2,0,3,4,1,H+,1,2,1,0,1000,250.0,2,C26SL,196,train
496.66595458984375,5,2,0,3,4,1,H+,1,2,1,0,1000,250.0,2,C26SL,197,train
704.5118808746338,5,2,0,3,4,1,H+,1,4,4,0,1000,250.0,4,C26SL,198,train
960.7799053192139,5,2,0,3,4,1,H+,1,0,2,0,1000,250.0,0,C26SL,199,train
768.5940265655518,5,2,0,3,4,1,H+,1,3,3,0,1000,250.0,3,C26SL,200,train
688.5268688201904,5,2,0,3,4,1,H+,1,0,2,0,1000,250.0,0,C26SL,201,train
560.4491233825684,5,2,0,3,4,1,H+,1,1,5,0,1000,250.0,1,C26SL,202,train
881.0391426086426,5,2,0,3,4,1,H+,1,4,4,0,1000,250.0,4,C26SL,203,train
576.6229629516602,5,2,0,3,4,1,H+,1,1,5,0,1000,250.0,1,C26SL,204,train
768.7060832977295,5,2,0,3,4,1,H+,1,3,3,0,1000,250.0,3,C26SL,205,train
688.7741088867188,5,2,0,3,4,1,H+,1,2,1,0,1000,250.0,2,C26SL,206,train
592.602014541626,5,2,0,3,4,1,H+,1,1,5,0,1000,250.0,1,C26SL,207,train
592.3550128936768,5,2,0,3,4,1,H+,1,2,1,0,1000,250.0,2,C26SL,208,train
816.8020248413086,5,2,0,3,4,1,H+,1,0,2,0,1000,250.0,0,C26SL,209,train
481.1081886291504,5,2,0,3,4,1,H+,1,4,4,0,1000,250.0,4,C26SL,210,train
609.0428829193115,5,2,0,3,4,1,H+,1,5,0,0,1000,250.0,5,C26SL,211,train
544.5530414581299,5,2,0,3,4,1,H+,1,5,0,0,1000,250.0,5,C26SL,212,train
704.5891284942627,5,2,0,3,4,1,H+,1,2,1,0,1000,250.0,2,C26SL,213,train
608.2849502563477,5,2,0,3,4,1,H+,1,1,5,0,1000,250.0,1,C26SL,214,train
544.5799827575684,5,2,0,3,4,1,H+,1,5,0,0,1000,250.0,5,C26SL,215,train
720.7279205322266,5,2,0,3,4,1,H+,1,4,4,0,1000,250.0,4,C26SL,216,train
496.61803245544434,5,2,0,3,4,1,H+,1,1,5,0,1000,250.0,1,C26SL,217,train
561.0969066619873,5,2,0,3,4,1,H+,1,1,5,0,1000,250.0,1,C26SL,218,train
576.9071578979492,5,2,0,3,4,1,H+,1,0,2,0,1000,250.0,0,C26SL,219,train
561.0499382019043,5,2,0,3,4,1,H+,0,4,4,0,1000,250.0,5,C26SL,220,train
561.2828731536865,5,2,0,3,4,1,H+,1,5,0,0,1000,250.0,5,C26SL,221,train
592.3199653625488,5,2,0,3,4,1,H+,1,4,4,0,1000,250.0,4,C26SL,222,train
593.1031703948975,5,2,0,3,4,1,H+,1,2,1,0,1000,250.0,2,C26SL,223,train
592.5788879394531,5,2,0,3,4,1,H+,1,5,0,0,1000,250.0,5,C26SL,224,train
561.1460208892822,5,2,0,3,4,1,H+,1,4,4,0,1000,250.0,4,C26SL,225,train
753.1390190124512,5,2,0,3,4,1,H+,1,5,0,0,1000,250.0,5,C26SL,226,train
880.7637691497803,5,2,0,3,4,1,H+,1,0,2,0,1000,250.0,0,C26SL,227,train
896.4450359344482,5,2,0,3,4,1,H+,1,0,2,0,1000,250.0,0,C26SL,228,train
592.4060344696045,5,2,0,3,4,1,H+,1,1,5,0,1000,250.0,1,C26SL,229,train
704.2989730834961,5,2,0,3,4,1,H+,1,0,2,0,1000,250.0,0,C26SL,230,train
671.9989776611328,5,2,0,3,4,1,H+,1,2,1,0,1000,250.0,2,C26SL,231,train
688.5471343994141,5,2,0,3,4,1,H+,1,2,1,0,1000,250.0,2,C26SL,232,train
576.880931854248,5,2,0,3,4,1,H+,1,5,0,0,1000,250.0,5,C26SL,233,train
528.5918712615967,5,2,0,3,4,1,H+,1,2,1,0,1000,250.0,2,C26SL,234,train
640.8841609954834,5,2,0,3,4,1,H+,1,4,4,0,1000,250.0,4,C26SL,235,train
608.597993850708,5,2,0,3,4,1,H+,1,1,5,0,1000,250.0,1,C26SL,236,train
528.6500453948975,5,2,0,3,4,1,H+,1,1,5,0,1000,250.0,1,C26SL,237,train
817.0199394226074,5,2,0,3,4,1,H+,1,4,4,0,1000,250.0,4,C26SL,238,train
704.6389579772949,5,2,0,3,4,1,H+,1,2,1,0,1000,250.0,2,C26SL,239,train
816.4479732513428,5,2,0,3,4,1,H+,1,3,3,0,1000,250.0,3,C26SL,240,train
592.9679870605469,5,2,0,3,4,1,H+,1,5,0,0,1000,250.0,5,C26SL,241,train
592.5629138946533,5,2,0,3,4,1,H+,1,0,2,0,1000,250.0,0,C26SL,242,train
512.8560066223145,5,2,0,3,4,1,H+,1,0,2,0,1000,250.0,0,C26SL,243,train
702.3530006408691,5,2,0,3,4,1,H+,1,4,4,0,1000,250.0,4,C26SL,244,train
513.0319595336914,5,2,0,3,4,1,H+,1,5,0,0,1000,250.0,5,C26SL,245,train
641.0400867462158,5,2,0,3,4,1,H+,1,3,3,0,1000,250.0,3,C26SL,246,train
625.0219345092773,5,2,0,3,4,1,H+,1,4,4,0,1000,250.0,4,C26SL,247,train
592.5638675689697,5,2,0,3,4,1,H+,1,0,2,0,1000,250.0,0,C26SL,248,train
768.3298587799072,5,2,0,3,4,1,H+,1,3,3,0,1000,250.0,3,C26SL,249,train
1424.325942993164,5,2,0,3,4,1,H+,1,2,1,0,1000,250.0,2,C26SL,250,test
992.2959804534912,5,2,0,3,4,1,H+,1,3,3,0,1000,250.0,3,C26SL,251,test
800.3418445587158,5,2,0,3,4,1,H+,1,2,1,0,1000,250.0,2,C26SL,252,test
801.1279106140137,5,2,0,3,4,1,H+,1,0,2,0,1000,250.0,0,C26SL,253,test
718.4841632843018,5,2,0,3,4,1,H+,1,1,5,0,1000,250.0,1,C26SL,254,test
800.5709648132324,5,2,0,3,4,1,H+,1,0,2,0,1000,250.0,0,C26SL,255,test
688.4479522705078,5,2,0,3,4,1,H+,1,1,5,0,1000,250.0,1,C26SL,256,test
766.7529582977295,5,2,0,3,4,1,H+,1,0,2,0,1000,250.0,0,C26SL,257,test
897.1531391143799,5,2,0,3,4,1,H+,1,3,3,0,1000,250.0,3,C26SL,258,test
894.7341442108154,5,2,0,3,4,1,H+,1,5,0,0,1000,250.0,5,C26SL,259,test
768.8980102539062,5,2,0,3,4,1,H+,1,4,4,0,1000,250.0,4,C26SL,260,test
608.7977886199951,5,2,0,3,4,1,H+,1,4,4,0,1000,250.0,4,C26SL,261,test
672.5859642028809,5,2,0,3,4,1,H+,1,1,5,0,1000,250.0,1,C26SL,262,test
832.7159881591797,5,2,0,3,4,1,H+,1,5,0,0,1000,250.0,5,C26SL,263,test
545.0129508972168,5,2,0,3,4,1,H+,1,5,0,0,1000,250.0,5,C26SL,264,test
560.8870983123779,5,2,0,3,4,1,H+,1,5,0,0,1000,250.0,5,C26SL,265,test
641.1159038543701,5,2,0,3,4,1,H+,1,1,5,0,1000,250.0,1,C26SL,266,test
720.9961414337158,5,2,0,3,4,1,H+,1,4,4,0,1000,250.0,4,C26SL,267,test
576.4291286468506,5,2,0,3,4,1,H+,1,4,4,0,1000,250.0,4,C26SL,268,test
817.0080184936523,5,2,0,3,4,1,H+,1,5,0,0,1000,250.0,5,C26SL,269,test
720.4699516296387,5,2,0,3,4,1,H+,1,0,2,0,1000,250.0,0,C26SL,270,test
1153.033971786499,5,2,0,3,4,1,H+,1,2,1,0,1000,250.0,2,C26SL,271,test
720.566987991333,5,2,0,3,4,1,H+,1,3,3,0,1000,250.0,3,C26SL,272,test
559.3321323394775,5,2,0,3,4,1,H+,1,1,5,0,1000,250.0,1,C26SL,273,test
896.5880870819092,5,2,0,3,4,1,H+,1,3,3,0,1000,250.0,3,C26SL,274,test
768.5408592224121,5,2,0,3,4,1,H+,1,4,4,0,1000,250.0,4,C26SL,275,test
768.4900760650635,5,2,0,3,4,1,H+,1,3,3,0,1000,250.0,3,C26SL,276,test
689.1369819641113,5,2,0,3,4,1,H+,1,3,3,0,1000,250.0,3,C26SL,277,test
768.4199810028076,5,2,0,3,4,1,H+,1,1,5,0,1000,250.0,1,C26SL,278,test
654.5860767364502,5,2,0,3,4,1,H+,1,1,5,0,1000,250.0,1,C26SL,279,test
800.7750511169434,5,2,0,3,4,1,H+,1,0,2,0,1000,250.0,0,C26SL,280,test
737.0820045471191,5,2,0,3,4,1,H+,1,0,2,0,1000,250.0,0,C26SL,281,test
864.5658493041992,5,2,0,3,4,1,H+,1,4,4,0,1000,250.0,4,C26SL,282,test
848.5839366912842,5,2,0,3,4,1,H+,1,5,0,0,1000,250.0,5,C26SL,283,test
768.5961723327637,5,2,0,3,4,1,H+,1,2,1,0,1000,250.0,2,C26SL,284,test
589.453935623169,5,2,0,3,4,1,H+,1,1,5,0,1000,250.0,1,C26SL,285,test
752.479076385498,5,2,0,3,4,1,H+,1,5,0,0,1000,250.0,5,C26SL,286,test
560.4720115661621,5,2,0,3,4,1,H+,1,1,5,0,1000,250.0,1,C26SL,287,test
544.4319248199463,5,2,0,3,4,1,H+,1,1,5,0,1000,250.0,1,C26SL,288,test
686.5270137786865,5,2,0,3,4,1,H+,1,4,4,0,1000,250.0,4,C26SL,289,test
800.9660243988037,5,2,0,3,4,1,H+,1,5,0,0,1000,250.0,5,C26SL,290,test
576.6420364379883,5,2,0,3,4,1,H+,1,4,4,0,1000,250.0,4,C26SL,291,test
768.5458660125732,5,2,0,3,4,1,H+,1,2,1,0,1000,250.0,2,C26SL,292,test
576.8868923187256,5,2,0,3,4,1,H+,1,1,5,0,1000,250.0,1,C26SL,293,test
704.6189308166504,5,2,0,3,4,1,H+,1,2,1,0,1000,250.0,2,C26SL,294,test
463.0448818206787,5,2,0,3,4,1,H+,1,2,1,0,1000,250.0,2,C26SL,295,test
591.9911861419678,5,2,0,3,4,1,H+,1,4,4,0,1000,250.0,4,C26SL,296,test
782.5868129730225,5,2,0,3,4,1,H+,1,3,3,0,1000,250.0,3,C26SL,297,test
992.3379421234131,5,2,0,3,4,1,H+,1,0,2,0,1000,250.0,0,C26SL,298,test
817.9421424865723,5,2,0,3,4,1,H+,1,4,4,0,1000,250.0,4,C26SL,299,test
624.5648860931396,5,2,0,3,4,1,H+,1,3,3,0,1000,250.0,3,C26SL,300,test
560.4381561279297,5,2,0,3,4,1,H+,1,4,4,0,1000,250.0,4,C26SL,301,test
544.5981025695801,5,2,0,3,4,1,H+,1,2,1,0,1000,250.0,2,C26SL,302,test
688.054084777832,5,2,0,3,4,1,H+,1,2,1,0,1000,250.0,2,C26SL,303,test
624.5100498199463,5,2,0,3,4,1,H+,1,3,3,0,1000,250.0,3,C26SL,304,test
545.0291633605957,5,2,0,3,4,1,H+,1,5,0,0,1000,250.0,5,C26SL,305,test
528.4359455108643,5,2,0,3,4,1,H+,1,3,3,0,1000,250.0,3,C26SL,306,test
512.1979713439941,5,2,0,3,4,1,H+,1,5,0,0,1000,250.0,5,C26SL,307,test
512.9590034484863,5,2,0,3,4,1,H+,1,5,0,0,1000,250.0,5,C26SL,308,test
528.9099216461182,5,2,0,3,4,1,H+,1,2,1,0,1000,250.0,2,C26SL,309,test
561.0449314117432,5,2,0,3,4,1,H+,1,1,5,0,1000,250.0,1,C26SL,310,test
752.6800632476807,5,2,0,3,4,1,H+,1,1,5,0,1000,250.0,1,C26SL,311,test
576.5969753265381,5,2,0,3,4,1,H+,1,5,0,0,1000,250.0,5,C26SL,312,test
529.2019844055176,5,2,0,3,4,1,H+,1,1,5,0,1000,250.0,1,C26SL,313,test
817.0459270477295,5,2,0,3,4,1,H+,0,4,4,0,1000,250.0,5,C26SL,314,test
736.5138530731201,5,2,0,3,4,1,H+,1,0,2,0,1000,250.0,0,C26SL,315,test
496.84691429138184,5,2,0,3,4,1,H+,1,0,2,0,1000,250.0,0,C26SL,316,test
912.4348163604736,5,2,0,3,4,1,H+,1,5,0,0,1000,250.0,5,C26SL,317,test
590.6009674072266,5,2,0,3,4,1,H+,1,1,5,0,1000,250.0,1,C26SL,318,test
688.7099742889404,5,2,0,3,4,1,H+,1,3,3,0,1000,250.0,3,C26SL,319,test
513.0720138549805,5,2,0,3,4,1,H+,1,3,3,0,1000,250.0,3,C26SL,320,test
560.9681606292725,5,2,0,3,4,1,H+,0,2,1,0,1000,250.0,0,C26SL,321,test
592.6871299743652,5,2,0,3,4,1,H+,1,3,3,0,1000,250.0,3,C26SL,322,test
529.1299819946289,5,2,0,3,4,1,H+,1,5,0,0,1000,250.0,5,C26SL,323,test
542.5469875335693,5,2,0,3,4,1,H+,1,1,5,0,1000,250.0,1,C26SL,324,test
561.0158443450928,5,2,0,3,4,1,H+,1,0,2,0,1000,250.0,0,C26SL,325,test
624.6380805969238,5,2,0,3,4,1,H+,1,2,1,0,1000,250.0,2,C26SL,326,test
528.6340713500977,5,2,0,3,4,1,H+,1,3,3,0,1000,250.0,3,C26SL,327,test
528.6369323730469,5,2,0,3,4,1,H+,1,1,5,0,1000,250.0,1,C26SL,328,test
640.9971714019775,5,2,0,3,4,1,H+,1,3,3,0,1000,250.0,3,C26SL,329,test
576.6711235046387,5,2,0,3,4,1,H+,1,1,5,0,1000,250.0,1,C26SL,330,test
719.5780277252197,5,2,0,3,4,1,H+,1,2,1,0,1000,250.0,2,C26SL,331,test
640.3751373291016,5,2,0,3,4,1,H+,1,3,3,0,1000,250.0,3,C26SL,332,test
577.0611763000488,5,2,0,3,4,1,H+,1,5,0,0,1000,250.0,5,C26SL,333,test
784.3329906463623,5,2,0,3,4,1,H+,1,0,2,0,1000,250.0,0,C26SL,334,test
673.1979846954346,5,2,0,3,4,1,H+,1,1,5,0,1000,250.0,1,C26SL,335,test
849.0221500396729,5,2,0,3,4,1,H+,1,2,1,0,1000,250.0,2,C26SL,336,test
704.524040222168,5,2,0,3,4,1,H+,1,2,1,0,1000,250.0,2,C26SL,337,test
480.37004470825195,5,2,0,3,4,1,H+,1,2,1,0,1000,250.0,2,C26SL,338,test
704.9429416656494,5,2,0,3,4,1,H+,1,5,0,0,1000,250.0,5,C26SL,339,test
544.6398258209229,5,2,0,3,4,1,H+,1,5,0,0,1000,250.0,5,C26SL,340,test
401.06797218322754,5,2,0,3,4,1,H+,1,5,0,0,1000,250.0,5,C26SL,341,test
528.5861492156982,5,2,0,3,4,1,H+,1,2,1,0,1000,250.0,2,C26SL,342,test
542.698860168457,5,2,0,3,4,1,H+,1,0,2,0,1000,250.0,0,C26SL,343,test
576.9979953765869,5,2,0,3,4,1,H+,1,2,1,0,1000,250.0,2,C26SL,344,test
512.6888751983643,5,2,0,3,4,1,H+,1,5,0,0,1000,250.0,5,C26SL,345,test
768.7370777130127,5,2,0,3,4,1,H+,1,3,3,0,1000,250.0,3,C26SL,346,test
576.5490531921387,5,2,0,3,4,1,H+,1,3,3,0,1000,250.0,3,C26SL,347,test
719.8739051818848,5,2,0,3,4,1,H+,1,0,2,0,1000,250.0,0,C26SL,348,test
544.9559688568115,5,2,0,3,4,1,H+,1,3,3,0,1000,250.0,3,C26SL,349,test
704.9119472503662,5,2,0,3,4,1,H+,1,1,5,0,1000,250.0,1,C26SL,350,test
624.9430179595947,5,2,0,3,4,1,H+,0,4,4,0,1000,250.0,5,C26SL,351,test
1119.9190616607666,5,2,0,3,4,1,H+,1,5,0,0,1000,250.0,5,C26SL,352,test
704.6000957489014,5,2,0,3,4,1,H+,1,5,0,0,1000,250.0,5,C26SL,353,test
817.1019554138184,5,2,0,3,4,1,H+,1,4,4,0,1000,250.0,4,C26SL,354,test
544.9769496917725,5,2,0,3,4,1,H+,1,4,4,0,1000,250.0,4,C26SL,355,test
912.6739501953125,5,2,0,3,4,1,H+,1,2,1,0,1000,250.0,2,C26SL,356,test
704.7500610351562,5,2,0,3,4,1,H+,1,5,0,0,1000,250.0,5,C26SL,357,test
656.6741466522217,5,2,0,3,4,1,H+,1,4,4,0,1000,250.0,4,C26SL,358,test
832.8640460968018,5,2,0,3,4,1,H+,1,0,2,0,1000,250.0,0,C26SL,359,test
800.4260063171387,5,2,0,3,4,1,H+,1,3,3,0,1000,250.0,3,C26SL,360,test
416.9890880584717,5,2,0,3,4,1,H+,1,3,3,0,1000,250.0,3,C26SL,361,test
702.6970386505127,5,2,0,3,4,1,H+,1,2,1,0,1000,250.0,2,C26SL,362,test
718.4009552001953,5,2,0,3,4,1,H+,1,0,2,0,1000,250.0,0,C26SL,363,test
624.7279644012451,5,2,0,3,4,1,H+,1,2,1,0,1000,250.0,2,C26SL,364,test
736.6428375244141,5,2,0,3,4,1,H+,1,0,2,0,1000,250.0,0,C26SL,365,test
657.0971012115479,5,2,0,3,4,1,H+,1,5,0,0,1000,250.0,5,C26SL,366,test
640.618085861206,5,2,0,3,4,1,H+,1,1,5,0,1000,250.0,1,C26SL,367,test
736.6061210632324,5,2,0,3,4,1,H+,1,3,3,0,1000,250.0,3,C26SL,368,test
704.603910446167,5,2,0,3,4,1,H+,1,2,1,0,1000,250.0,2,C26SL,369,test
528.3010005950928,5,2,0,3,4,1,H+,1,2,1,0,1000,250.0,2,C26SL,370,test
638.6921405792236,5,2,0,3,4,1,H+,1,5,0,0,1000,250.0,5,C26SL,371,test
673.1061935424805,5,2,0,3,4,1,H+,1,1,5,0,1000,250.0,1,C26SL,372,test
576.5690803527832,5,2,0,3,4,1,H+,1,0,2,0,1000,250.0,0,C26SL,373,test
640.6428813934326,5,2,0,3,4,1,H+,1,1,5,0,1000,250.0,1,C26SL,374,test
928.9050102233887,5,2,0,3,4,1,H+,1,5,0,0,1000,250.0,5,C26SL,375,test
640.9459114074707,5,2,0,3,4,1,H+,1,2,1,0,1000,250.0,2,C26SL,376,test
624.9489784240723,5,2,0,3,4,1,H+,1,3,3,0,1000,250.0,3,C26SL,377,test
400.8810520172119,5,2,0,3,4,1,H+,1,3,3,0,1000,250.0,3,C26SL,378,test
560.589075088501,5,2,0,3,4,1,H+,1,0,2,0,1000,250.0,0,C26SL,379,test
752.2799968719482,5,2,0,3,4,1,H+,1,5,0,0,1000,250.0,5,C26SL,380,test
384.9771022796631,5,2,0,3,4,1,H+,1,3,3,0,1000,250.0,3,C26SL,381,test
496.80209159851074,5,2,0,3,4,1,H+,1,3,3,0,1000,250.0,3,C26SL,382,test
385.0700855255127,5,2,0,3,4,1,H+,1,3,3,0,1000,250.0,3,C26SL,383,test
560.9681606292725,5,2,0,3,4,1,H+,1,4,4,0,1000,250.0,4,C26SL,384,test
624.6778964996338,5,2,0,3,4,1,H+,1,1,5,0,1000,250.0,1,C26SL,385,test
592.4789905548096,5,2,0,3,4,1,H+,1,5,0,0,1000,250.0,5,C26SL,386,test
625.06103515625,5,2,0,3,4,1,H+,1,0,2,0,1000,250.0,0,C26SL,387,test
704.6730518341064,5,2,0,3,4,1,H+,1,3,3,0,1000,250.0,3,C26SL,388,test
592.559814453125,5,2,0,3,4,1,H+,1,4,4,0,1000,250.0,4,C26SL,389,test
512.9389762878418,5,2,0,3,4,1,H+,1,0,2,0,1000,250.0,0,C26SL,390,test
608.5150241851807,5,2,0,3,4,1,H+,1,5,0,0,1000,250.0,5,C26SL,391,test
512.5770568847656,5,2,0,3,4,1,H+,0,3,3,0,1000,250.0,1,C26SL,392,test
577.0089626312256,5,2,0,3,4,1,H+,1,5,0,0,1000,250.0,5,C26SL,393,test
576.409101486206,5,2,0,3,4,1,H+,1,4,4,0,1000,250.0,4,C26SL,394,test
448.9459991455078,5,2,0,3,4,1,H+,1,4,4,0,1000,250.0,4,C26SL,395,test
768.5959339141846,5,2,0,3,4,1,H+,1,3,3,0,1000,250.0,3,C26SL,396,test
769.0839767456055,5,2,0,3,4,1,H+,1,2,1,0,1000,250.0,2,C26SL,397,test
608.4930896759033,5,2,0,3,4,1,H+,1,3,3,0,1000,250.0,3,C26SL,398,test
576.9150257110596,5,2,0,3,4,1,H+,1,5,0,0,1000,250.0,5,C26SL,399,test
512.5300884246826,5,2,0,3,4,1,H+,1,4,4,0,1000,250.0,4,C26SL,400,test
544.4889068603516,5,2,0,3,4,1,H+,1,3,3,0,1000,250.0,3,C26SL,401,test
608.6399555206299,5,2,0,3,4,1,H+,1,2,1,0,1000,250.0,2,C26SL,402,test
561.1648559570312,5,2,0,3,4,1,H+,1,1,5,0,1000,250.0,1,C26SL,403,test
512.5079154968262,5,2,0,3,4,1,H+,1,0,2,0,1000,250.0,0,C26SL,404,test
496.62089347839355,5,2,0,3,4,1,H+,1,1,5,0,1000,250.0,1,C26SL,405,test
560.72998046875,5,2,0,3,4,1,H+,1,5,0,0,1000,250.0,5,C26SL,406,test
656.7010879516602,5,2,0,3,4,1,H+,0,4,4,0,1000,250.0,5,C26SL,407,test
560.7860088348389,5,2,0,3,4,1,H+,1,2,1,0,1000,250.0,2,C26SL,408,test
592.5238132476807,5,2,0,3,4,1,H+,1,0,2,0,1000,250.0,0,C26SL,409,test
543.4610843658447,5,2,0,3,4,1,H+,1,2,1,0,1000,250.0,2,C26SL,410,test
624.7029304504395,5,2,0,3,4,1,H+,1,4,4,0,1000,250.0,4,C26SL,411,test
512.9930973052979,5,2,0,3,4,1,H+,1,1,5,0,1000,250.0,1,C26SL,412,test
465.00205993652344,5,2,0,3,4,1,H+,1,4,4,0,1000,250.0,4,C26SL,413,test
704.7410011291504,5,2,0,3,4,1,H+,1,3,3,0,1000,250.0,3,C26SL,414,test
624.161958694458,5,2,0,3,4,1,H+,1,2,1,0,1000,250.0,2,C26SL,415,test
431.69713020324707,5,2,0,3,4,1,H+,1,3,3,0,1000,250.0,3,C26SL,416,test
560.6999397277832,5,2,0,3,4,1,H+,1,2,1,0,1000,250.0,2,C26SL,417,test
656.2650203704834,5,2,0,3,4,1,H+,1,3,3,0,1000,250.0,3,C26SL,418,test
545.2249050140381,5,2,0,3,4,1,H+,1,2,1,0,1000,250.0,2,C26SL,419,test
576.3309001922607,5,2,0,3,4,1,H+,1,5,0,0,1000,250.0,5,C26SL,420,test
527.1499156951904,5,2,0,3,4,1,H+,1,2,1,0,1000,250.0,2,C26SL,421,test
512.653112411499,5,2,0,3,4,1,H+,1,5,0,0,1000,250.0,5,C26SL,422,test
576.5960216522217,5,2,0,3,4,1,H+,1,5,0,0,1000,250.0,5,C26SL,423,test
592.9880142211914,5,2,0,3,4,1,H+,1,0,2,0,1000,250.0,0,C26SL,424,test
592.414140701294,5,2,0,3,4,1,H+,1,3,3,0,1000,250.0,3,C26SL,425,test
528.4581184387207,5,2,0,3,4,1,H+,1,4,4,0,1000,250.0,4,C26SL,426,test
545.029878616333,5,2,0,3,4,1,H+,1,0,2,0,1000,250.0,0,C26SL,427,test
768.1870460510254,5,2,0,3,4,1,H+,1,3,3,0,1000,250.0,3,C26SL,428,test
544.6810722351074,5,2,0,3,4,1,H+,1,0,2,0,1000,250.0,0,C26SL,429,test
608.7160110473633,5,2,0,3,4,1,H+,1,2,1,0,1000,250.0,2,C26SL,430,test
702.7111053466797,5,2,0,3,4,1,H+,1,2,1,0,1000,250.0,2,C26SL,431,test
528.3968448638916,5,2,0,3,4,1,H+,1,0,2,0,1000,250.0,0,C26SL,432,test
752.9621124267578,5,2,0,3,4,1,H+,1,3,3,0,1000,250.0,3,C26SL,433,test
592.487096786499,5,2,0,3,4,1,H+,1,4,4,0,1000,250.0,4,C26SL,434,test
528.5928249359131,5,2,0,3,4,1,H+,1,4,4,0,1000,250.0,4,C26SL,435,test
592.7491188049316,5,2,0,3,4,1,H+,1,1,5,0,1000,250.0,1,C26SL,436,test
544.9559688568115,5,2,0,3,4,1,H+,1,4,4,0,1000,250.0,4,C26SL,437,test
720.7479476928711,5,2,0,3,4,1,H+,1,5,0,0,1000,250.0,5,C26SL,438,test
624.4781017303467,5,2,0,3,4,1,H+,1,4,4,0,1000,250.0,4,C26SL,439,test
560.6889724731445,5,2,0,3,4,1,H+,1,1,5,0,1000,250.0,1,C26SL,440,test
465.04998207092285,5,2,0,3,4,1,H+,1,1,5,0,1000,250.0,1,C26SL,441,test
608.2110404968262,5,2,0,3,4,1,H+,1,2,1,0,1000,250.0,2,C26SL,442,test
640.826940536499,5,2,0,3,4,1,H+,1,4,4,0,1000,250.0,4,C26SL,443,test
560.8279705047607,5,2,0,3,4,1,H+,1,5,0,0,1000,250.0,5,C26SL,444,test
688.6749267578125,5,2,0,3,4,1,H+,1,3,3,0,1000,250.0,3,C26SL,445,test
881.0369968414307,5,2,0,3,4,1,H+,1,4,4,0,1000,250.0,4,C26SL,446,test
512.5150680541992,5,2,0,3,4,1,H+,1,4,4,0,1000,250.0,4,C26SL,447,test
560.7039928436279,5,2,0,3,4,1,H+,1,1,5,0,1000,250.0,1,C26SL,448,test
608.720064163208,5,2,0,3,4,1,H+,1,0,2,0,1000,250.0,0,C26SL,449,test
528.4988880157471,5,2,0,3,4,1,H+,1,3,3,0,1000,250.0,3,C26SL,450,test
558.5908889770508,5,2,0,3,4,1,H+,1,4,4,0,1000,250.0,4,C26SL,451,test
480.61609268188477,5,2,0,3,4,1,H+,1,1,5,0,1000,250.0,1,C26SL,452,test
608.989953994751,5,2,0,3,4,1,H+,1,3,3,0,1000,250.0,3,C26SL,453,test
560.7049465179443,5,2,0,3,4,1,H+,1,5,0,0,1000,250.0,5,C26SL,454,test
576.6158103942871,5,2,0,3,4,1,H+,1,0,2,0,1000,250.0,0,C26SL,455,test
560.5380535125732,5,2,0,3,4,1,H+,1,4,4,0,1000,250.0,4,C26SL,456,test
512.5319957733154,5,2,0,3,4,1,H+,1,4,4,0,1000,250.0,4,C26SL,457,test
559.2520236968994,5,2,0,3,4,1,H+,1,0,2,0,1000,250.0,0,C26SL,458,test
608.9959144592285,5,2,0,3,4,1,H+,1,2,1,0,1000,250.0,2,C26SL,459,test
529.0429592132568,5,2,0,3,4,1,H+,1,3,3,0,1000,250.0,3,C26SL,460,test
513.073205947876,5,2,0,3,4,1,H+,1,3,3,0,1000,250.0,3,C26SL,461,test
561.0241889953613,5,2,0,3,4,1,H+,1,3,3,0,1000,250.0,3,C26SL,462,test
510.7421875,5,2,0,3,4,1,H+,1,2,1,0,1000,250.0,2,C26SL,463,test
529.0439128875732,5,2,0,3,4,1,H+,1,3,3,0,1000,250.0,3,C26SL,464,test
800.4319667816162,5,2,0,3,4,1,H+,1,3,3,0,1000,250.0,3,C26SL,465,test
544.152021408081,5,2,0,3,4,1,H+,1,2,1,0,1000,250.0,2,C26SL,466,test
607.7070236206055,5,2,0,3,4,1,H+,1,5,0,0,1000,250.0,5,C26SL,467,test
561.0048770904541,5,2,0,3,4,1,H+,1,4,4,0,1000,250.0,4,C26SL,468,test
560.3580474853516,5,2,0,3,4,1,H+,1,3,3,0,1000,250.0,3,C26SL,469,test
545.0649261474609,5,2,0,3,4,1,H+,0,5,0,0,1000,250.0,4,C26SL,470,test
576.4648914337158,5,2,0,3,4,1,H+,1,4,4,0,1000,250.0,4,C26SL,471,test
1168.3590412139893,5,2,0,3,4,1,H+,1,1,5,0,1000,250.0,1,C26SL,472,test
672.633171081543,5,2,0,3,4,1,H+,1,5,0,0,1000,250.0,5,C26SL,473,test
513.0600929260254,5,2,0,3,4,1,H+,1,0,2,0,1000,250.0,0,C26SL,474,test
768.6648368835449,5,2,0,3,4,1,H+,1,5,0,0,1000,250.0,5,C26SL,475,test
480.34000396728516,5,2,0,3,4,1,H+,1,4,4,0,1000,250.0,4,C26SL,476,test
800.9181022644043,5,2,0,3,4,1,H+,1,3,3,0,1000,250.0,3,C26SL,477,test
544.6970462799072,5,2,0,3,4,1,H+,1,0,2,0,1000,250.0,0,C26SL,478,test
1009.0889930725098,5,2,0,3,4,1,H+,1,5,0,0,1000,250.0,5,C26SL,479,test
480.6339740753174,5,2,0,3,4,1,H+,1,0,2,0,1000,250.0,0,C26SL,480,test
480.47900199890137,5,2,0,3,4,1,H+,1,2,1,0,1000,250.0,2,C26SL,481,test
560.8329772949219,5,2,0,3,4,1,H+,1,3,3,0,1000,250.0,3,C26SL,482,test
608.7520122528076,5,2,0,3,4,1,H+,1,1,5,0,1000,250.0,1,C26SL,483,test
480.7901382446289,5,2,0,3,4,1,H+,1,1,5,0,1000,250.0,1,C26SL,484,test
448.66299629211426,5,2,0,3,4,1,H+,1,1,5,0,1000,250.0,1,C26SL,485,test
528.623104095459,5,2,0,3,4,1,H+,1,0,2,0,1000,250.0,0,C26SL,486,test
480.4692268371582,5,2,0,3,4,1,H+,1,0,2,0,1000,250.0,0,C26SL,487,test
528.7079811096191,5,2,0,3,4,1,H+,1,0,2,0,1000,250.0,0,C26SL,488,test
752.526044845581,5,2,0,3,4,1,H+,1,3,3,0,1000,250.0,3,C26SL,489,test
577.064037322998,5,2,0,3,4,1,H+,1,0,2,0,1000,250.0,0,C26SL,490,test
497.0660209655762,5,2,0,3,4,1,H+,1,1,5,0,1000,250.0,1,C26SL,491,test
640.8369541168213,5,2,0,3,4,1,H+,1,5,0,0,1000,250.0,5,C26SL,492,test
528.6459922790527,5,2,0,3,4,1,H+,0,2,1,0,1000,250.0,0,C26SL,493,test
576.9901275634766,5,2,0,3,4,1,H+,1,3,3,0,1000,250.0,3,C26SL,494,test
640.6049728393555,5,2,0,3,4,1,H+,1,1,5,0,1000,250.0,1,C26SL,495,test
624.4618892669678,5,2,0,3,4,1,H+,1,4,4,0,1000,250.0,4,C26SL,496,test
560.4078769683838,5,2,0,3,4,1,H+,1,2,1,0,1000,250.0,2,C26SL,497,test
544.5411205291748,5,2,0,3,4,1,H+,1,0,2,0,1000,250.0,0,C26SL,498,test
576.7390727996826,5,2,0,3,4,1,H+,1,3,3,0,1000,250.0,3,C26SL,499,test
