RT,SRmap_0,SRmap_1,SRmap_2,SRmap_3,SRmap_4,SRmap_5,condition,correct,correct_response,curstim,ms-precue,ms-prestimblank,ntrials,response,subject,trial,type
1919.5051193237305,4,0,3,1,5,2,E-,1,1,3,400,600,250.0,1,D26SH,0,train
2703.7038803100586,4,0,3,1,5,2,E-,1,1,3,400,600,250.0,1,D26SH,1,train
2607.7828407287598,4,0,3,1,5,2,E-,1,2,5,400,600,250.0,2,D26SH,2,train
1295.8009243011475,4,0,3,1,5,2,E-,0,4,0,400,600,250.0,2,D26SH,3,train
1423.724889755249,4,0,3,1,5,2,E-,1,2,5,400,600,250.0,2,D26SH,4,train
1809.244155883789,4,0,3,1,5,2,E-,1,4,0,400,600,250.0,4,D26SH,5,train
1008.82887840271,4,0,3,1,5,2,E-,1,2,5,400,600,250.0,2,D26SH,6,train
784.8129272460938,4,0,3,1,5,2,E-,1,2,5,400,600,250.0,2,D26SH,7,train
1825.3579139709473,4,0,3,1,5,2,E-,1,5,4,400,600,250.0,5,D26SH,8,train
944.633960723877,4,0,3,1,5,2,E-,1,2,5,400,600,250.0,2,D26SH,9,train
640.6691074371338,4,0,3,1,5,2,E-,1,2,5,400,600,250.0,2,D26SH,10,train
608.3478927612305,4,0,3,1,5,2,E-,1,2,5,400,600,250.0,2,D26SH,11,train
560.1911544799805,4,0,3,1,5,2,E-,1,2,5,400,600,250.0,2,D26SH,12,train
1296.5469360351562,4,0,3,1,5,2,E-,1,4,0,400,600,250.0,4,D26SH,13,train
784.3790054321289,4,0,3,1,5,2,E-,1,2,5,400,600,250.0,2,D26SH,14,train
976.4139652252197,4,0,3,1,5,2,E-,1,3,2,400,600,250.0,3,D26SH,15,train
864.0849590301514,4,0,3,1,5,2,E-,0,1,3,400,600,250.0,0,D26SH,16,train
1055.5620193481445,4,0,3,1,5,2,E-,0,1,3,400,600,250.0,0,D26SH,17,train
1423.3040809631348,4,0,3,1,5,2,E-,1,1,3,400,600,250.0,1,D26SH,18,train
1453.7079334259033,4,0,3,1,5,2,E-,1,2,5,400,600,250.0,2,D26SH,19,train
1104.0561199188232,4,0,3,1,5,2,E-,1,3,2,400,600,250.0,3,D26SH,20,train
1279.9320220947266,4,0,3,1,5,2,E-,1,4,0,400,600,250.0,4,D26SH,21,train
2032.0401191711426,4,0,3,1,5,2,E-,1,1,3,400,600,250.0,1,D26SH,22,train
815.4439926147461,4,0,3,1,5,2,E-,1,1,3,400,600,250.0,1,D26SH,23,train
1647.3438739776611,4,0,3,1,5,2,E-,1,5,4,400,600,250.0,5,D26SH,24,train
2319.516181945801,4,0,3,1,5,2,E-,1,4,0,400,600,250.0,4,D26SH,25,train
719.6481227874756,4,0,3,1,5,2,E-,0,2,5,400,600,250.0,1,D26SH,26,train
1919.5659160614014,4,0,3,1,5,2,E-,1,3,2,400,600,250.0,3,D26SH,27,train
1935.3148937225342,4,0,3,1,5,2,E-,1,1,3,400,600,250.0,1,D26SH,28,train
1471.4620113372803,4,0,3,1,5,2,E-,1,4,0,400,600,250.0,4,D26SH,29,train
735.6019020080566,4,0,3,1,5,2,E-,1,3,2,400,600,250.0,3,D26SH,30,train
927.6330471038818,4,0,3,1,5,2,E-,1,2,5,400,600,250.0,2,D26SH,31,train
1887.5679969787598,4,0,3,1,5,2,E-,1,0,1,400,600,250.0,0,D26SH,32,train
1775.5939960479736,4,0,3,1,5,2,E-,1,5,4,400,600,250.0,5,D26SH,33,train
943.6049461364746,4,0,3,1,5,2,E-,1,0,1,400,600,250.0,0,D26SH,34,train
2943.3491230010986,4,0,3,1,5,2,E-,1,3,2,400,600,250.0,3,D26SH,35,train
2047.5401878356934,4,0,3,1,5,2,E-,1,5,4,400,600,250.0,5,D26SH,36,train
655.4341316223145,4,0,3,1,5,2,E-,1,5,4,400,600,250.0,5,D26SH,37,train
1391.6280269622803,4,0,3,1,5,2,E-,1,3,2,400,600,250.0,3,D26SH,38,train
607.651948928833,4,0,3,1,5,2,E-,1,5,4,400,600,250.0,5,D26SH,39,train
1695.47700881958,4,0,3,1,5,2,E-,1,4,0,400,600,250.0,4,D26SH,40,train
783.696174621582,4,0,3,1,5,2,E-,1,5,4,400,600,250.0,5,D26SH,41,train
1071.6040134429932,4,0,3,1,5,2,E-,1,0,1,400,600,250.0,0,D26SH,42,train
1023.5528945922852,4,0,3,1,5,2,E-,1,2,5,400,600,250.0,2,D26SH,43,train
863.6150360107422,4,0,3,1,5,2,E-,1,2,5,400,600,250.0,2,D26SH,44,train
895.6108093261719,4,0,3,1,5,2,E-,1,1,3,400,600,250.0,1,D26SH,45,train
895.5450057983398,4,0,3,1,5,2,E-,1,5,4,400,600,250.0,5,D26SH,46,train
1423.5260486602783,4,0,3,1,5,2,E-,1,5,4,400,600,250.0,5,D26SH,47,train
1199.3651390075684,4,0,3,1,5,2,E-,1,0,1,400,600,250.0,0,D26SH,48,train
1567.5318241119385,4,0,3,1,5,2,E-,1,4,0,400,600,250.0,4,D26SH,49,train
751.5480518341064,4,0,3,1,5,2,E-,1,5,4,400,600,250.0,5,D26SH,50,train
847.581148147583,4,0,3,1,5,2,E-,1,2,5,400,600,250.0,2,D26SH,51,train
1119.5201873779297,4,0,3,1,5,2,E-,1,3,2,400,600,250.0,3,D26SH,52,train
2015.5749320983887,4,0,3,1,5,2,E-,1,4,0,400,600,250.0,4,D26SH,53,train
1231.5399646759033,4,0,3,1,5,2,E-,1,2,5,400,600,250.0,2,D26SH,54,train
1135.5581283569336,4,0,3,1,5,2,E-,1,0,1,400,600,250.0,0,D26SH,55,train
1343.4019088745117,4,0,3,1,5,2,E-,1,3,2,400,600,250.0,3,D26SH,56,train
1407.5229167938232,4,0,3,1,5,2,E-,1,0,1,400,600,250.0,0,D26SH,57,train
1759.4490051269531,4,0,3,1,5,2,E-,1,4,0,400,600,250.0,4,D26SH,58,train
1151.4780521392822,4,0,3,1,5,2,E-,1,1,3,400,600,250.0,1,D26SH,59,train
815.6318664550781,4,0,3,1,5,2,E-,1,5,4,400,600,250.0,5,D26SH,60,train
463.66286277770996,4,0,3,1,5,2,E-,1,5,4,400,600,250.0,5,D26SH,61,train
783.5187911987305,4,0,3,1,5,2,E-,1,2,5,400,600,250.0,2,D26SH,62,train
1071.566104888916,4,0,3,1,5,2,E-,1,4,0,400,600,250.0,4,D26SH,63,train
2287.1878147125244,4,0,3,1,5,2,E-,1,5,4,400,600,250.0,5,D26SH,64,train
1087.4590873718262,4,0,3,1,5,2,E-,1,5,4,400,600,250.0,5,D26SH,65,train
1119.616985321045,4,0,3,1,5,2,E-,1,1,3,400,600,250.0,1,D26SH,66,train
767.4529552459717,4,0,3,1,5,2,E-,1,2,5,400,600,250.0,2,D26SH,67,train
1023.4959125518799,4,0,3,1,5,2,E-,1,0,1,400,600,250.0,0,D26SH,68,train
879.4398307800293,4,0,3,1,5,2,E-,1,2,5,400,600,250.0,2,D26SH,69,train
1583.2178592681885,4,0,3,1,5,2,E-,1,4,0,400,600,250.0,4,D26SH,70,train
1007.5180530548096,4,0,3,1,5,2,E-,1,2,5,400,600,250.0,2,D26SH,71,train
735.4791164398193,4,0,3,1,5,2,E-,1,2,5,400,600,250.0,2,D26SH,72,train
943.4731006622314,4,0,3,1,5,2,E-,1,1,3,400,600,250.0,1,D26SH,73,train
751.5048980712891,4,0,3,1,5,2,E-,1,2,5,400,600,250.0,2,D26SH,74,train
847.5348949432373,4,0,3,1,5,2,E-,1,2,5,400,600,250.0,2,D26SH,75,train
1103.5959720611572,4,0,3,1,5,2,E-,1,1,3,400,600,250.0,1,D26SH,76,train
639.585018157959,4,0,3,1,5,2,E-,1,2,5,400,600,250.0,2,D26SH,77,train
1055.5851459503174,4,0,3,1,5,2,E-,1,0,1,400,600,250.0,0,D26SH,78,train
751.5828609466553,4,0,3,1,5,2,E-,1,2,5,400,600,250.0,2,D26SH,79,train
671.5259552001953,4,0,3,1,5,2,E-,1,2,5,400,600,250.0,2,D26SH,80,train
863.4378910064697,4,0,3,1,5,2,E-,1,2,5,400,600,250.0,2,D26SH,81,train
863.5051250457764,4,0,3,1,5,2,E-,1,2,5,400,600,250.0,2,D26SH,82,train
2831.4459323883057,4,0,3,1,5,2,E-,1,4,0,400,600,250.0,4,D26SH,83,train
1311.5119934082031,4,0,3,1,5,2,E-,1,3,2,400,600,250.0,3,D26SH,84,train
927.6220798492432,4,0,3,1,5,2,E-,1,0,1,400,600,250.0,0,D26SH,85,train
511.52682304382324,4,0,3,1,5,2,E-,1,0,1,400,600,250.0,0,D26SH,86,train
415.4939651489258,4,0,3,1,5,2,E-,1,0,1,400,600,250.0,0,D26SH,87,train
399.49512481689453,4,0,3,1,5,2,E-,1,0,1,400,600,250.0,0,D26SH,88,train
575.2930641174316,4,0,3,1,5,2,E-,1,0,1,400,600,250.0,0,D26SH,89,train
2015.6030654907227,4,0,3,1,5,2,E-,1,4,0,400,600,250.0,4,D26SH,90,train
1151.6342163085938,4,0,3,1,5,2,E-,1,3,2,400,600,250.0,3,D26SH,91,train
1055.6840896606445,4,0,3,1,5,2,E-,1,1,3,400,600,250.0,1,D26SH,92,train
1743.2899475097656,4,0,3,1,5,2,E-,1,4,0,400,600,250.0,4,D26SH,93,train
895.5481052398682,4,0,3,1,5,2,E-,1,3,2,400,600,250.0,3,D26SH,94,train
463.52505683898926,4,0,3,1,5,2,E-,1,3,2,400,600,250.0,3,D26SH,95,train
1391.3259506225586,4,0,3,1,5,2,E-,1,3,2,400,600,250.0,3,D26SH,96,train
1839.5040035247803,4,0,3,1,5,2,E-,1,5,4,400,600,250.0,5,D26SH,97,train
847.5921154022217,4,0,3,1,5,2,E-,1,0,1,400,600,250.0,0,D26SH,98,train
815.4768943786621,4,0,3,1,5,2,E-,1,0,1,400,600,250.0,0,D26SH,99,train
543.5371398925781,4,0,3,1,5,2,E-,1,0,1,400,600,250.0,0,D26SH,100,train
1055.5531978607178,4,0,3,1,5,2,E-,1,2,5,400,600,250.0,2,D26SH,101,train
1359.532117843628,4,0,3,1,5,2,E-,1,3,2,400,600,250.0,3,D26SH,102,train
1231.5499782562256,4,0,3,1,5,2,E-,1,3,2,400,600,250.0,3,D26SH,103,train
1215.580940246582,4,0,3,1,5,2,E-,1,3,2,400,600,250.0,3,D26SH,104,train
1087.4309539794922,4,0,3,1,5,2,E-,1,1,3,400,600,250.0,1,D26SH,105,train
1407.4909687042236,4,0,3,1,5,2,E-,1,1,3,400,600,250.0,1,D26SH,106,train
879.5959949493408,4,0,3,1,5,2,E-,1,3,2,400,600,250.0,3,D26SH,107,train
719.520092010498,4,0,3,1,5,2,E-,1,3,2,400,600,250.0,3,D26SH,108,train
639.552116394043,4,0,3,1,5,2,E-,1,3,2,400,600,250.0,3,D26SH,109,train
895.5678939819336,4,0,3,1,5,2,E-,1,2,5,400,600,250.0,2,D26SH,110,train
1727.5729179382324,4,0,3,1,5,2,E-,1,5,4,400,600,250.0,5,D26SH,111,train
1103.5759449005127,4,0,3,1,5,2,E-,1,1,3,400,600,250.0,1,D26SH,112,train
799.4420528411865,4,0,3,1,5,2,E-,1,2,5,400,600,250.0,2,D26SH,113,train
1199.5151042938232,4,0,3,1,5,2,E-,1,5,4,400,600,250.0,5,D26SH,114,train
1487.5109195709229,4,0,3,1,5,2,E-,1,4,0,400,600,250.0,4,D26SH,115,train
783.5559844970703,4,0,3,1,5,2,E-,1,3,2,400,600,250.0,3,D26SH,116,train
783.560037612915,4,0,3,1,5,2,E-,1,0,1,400,600,250.0,0,D26SH,117,train
847.5308418273926,4,0,3,1,5,2,E-,1,1,3,400,600,250.0,1,D26SH,118,train
1151.6189575195312,4,0,3,1,5,2,E-,1,3,2,400,600,250.0,3,D26SH,119,train
639.5227909088135,4,0,3,1,5,2,E-,1,0,1,400,600,250.0,0,D26SH,120,train
975.5809307098389,4,0,3,1,5,2,E-,1,5,4,400,600,250.0,5,D26SH,121,train
943.5880184173584,4,0,3,1,5,2,E-,1,3,2,400,600,250.0,3,D26SH,122,train
975.5449295043945,4,0,3,1,5,2,E-,1,2,5,400,600,250.0,2,D26SH,123,train
1103.6880016326904,4,0,3,1,5,2,E-,1,1,3,400,600,250.0,1,D26SH,124,train
1199.388027191162,4,0,3,1,5,2,E-,1,1,3,400,600,250.0,1,D26SH,125,train
735.4860305786133,4,0,3,1,5,2,E-,1,5,4,400,600,250.0,5,D26SH,126,train
735.6400489807129,4,0,3,1,5,2,E-,1,0,1,400,600,250.0,0,D26SH,127,train
863.5668754577637,4,0,3,1,5,2,E-,1,1,3,400,600,250.0,1,D26SH,128,train
768.1829929351807,4,0,3,1,5,2,E-,1,2,5,400,600,250.0,2,D26SH,129,train
991.5981292724609,4,0,3,1,5,2,E-,1,3,2,400,600,250.0,3,D26SH,130,train
1119.5521354675293,4,0,3,1,5,2,E-,1,1,3,400,600,250.0,1,D26SH,131,train
958.9309692382812,4,0,3,1,5,2,E-,1,1,3,400,600,250.0,1,D26SH,132,train
1855.7159900665283,4,0,3,1,5,2,E-,1,4,0,400,600,250.0,4,D26SH,133,train
1295.5470085144043,4,0,3,1,5,2,E-,1,2,5,400,600,250.0,2,D26SH,134,train
943.4390068054199,4,0,3,1,5,2,E-,1,2,5,400,600,250.0,2,D26SH,135,train
1103.6560535430908,4,0,3,1,5,2,E-,1,1,3,400,600,250.0,1,D26SH,136,train
2047.6179122924805,4,0,3,1,5,2,E-,1,5,4,400,600,250.0,5,D26SH,137,train
1552.0670413970947,4,0,3,1,5,2,E-,1,5,4,400,600,250.0,5,D26SH,138,train
1407.979965209961,4,0,3,1,5,2,E-,1,1,3,400,600,250.0,1,D26SH,139,train
1263.9529705047607,4,0,3,1,5,2,E-,1,5,4,400,600,250.0,5,D26SH,140,train
1423.8479137420654,4,0,3,1,5,2,E-,1,3,2,400,600,250.0,3,D26SH,141,train
1440.0839805603027,4,0,3,1,5,2,E-,1,4,0,400,600,250.0,4,D26SH,142,train
656.0239791870117,4,0,3,1,5,2,E-,1,0,1,400,600,250.0,0,D26SH,143,train
671.4861392974854,4,0,3,1,5,2,E-,1,0,1,400,600,250.0,0,D26SH,144,train
447.56412506103516,4,0,3,1,5,2,E-,1,0,1,400,600,250.0,0,D26SH,145,train
831.5999507904053,4,0,3,1,5,2,E-,1,1,3,400,600,250.0,1,D26SH,146,train
687.5240802764893,4,0,3,1,5,2,E-,1,0,1,400,600,250.0,0,D26SH,147,train
847.6288318634033,4,0,3,1,5,2,E-,1,2,5,400,600,250.0,2,D26SH,148,train
879.5950412750244,4,0,3,1,5,2,E-,1,1,3,400,600,250.0,1,D26SH,149,train
767.5490379333496,4,0,3,1,5,2,E-,1,2,5,400,600,250.0,2,D26SH,150,train
815.528154373169,4,0,3,1,5,2,E-,1,1,3,400,600,250.0,1,D26SH,151,train
1215.6031131744385,4,0,3,1,5,2,E-,1,3,2,400,600,250.0,3,D26SH,152,train
543.4391498565674,4,0,3,1,5,2,E-,1,3,2,400,600,250.0,3,D26SH,153,train
831.5000534057617,4,0,3,1,5,2,E-,1,2,5,400,600,250.0,2,D26SH,154,train
655.5008888244629,4,0,3,1,5,2,E-,1,0,1,400,600,250.0,0,D26SH,155,train
1423.482894897461,4,0,3,1,5,2,E-,1,4,0,400,600,250.0,4,D26SH,156,train
1535.5520248413086,4,0,3,1,5,2,E-,1,3,2,400,600,250.0,3,D26SH,157,train
2175.5130290985107,4,0,3,1,5,2,E-,1,4,0,400,600,250.0,4,D26SH,158,train
719.5780277252197,4,0,3,1,5,2,E-,1,3,2,400,600,250.0,3,D26SH,159,train
895.6170082092285,4,0,3,1,5,2,E-,1,1,3,400,600,250.0,1,D26SH,160,train
623.5458850860596,4,0,3,1,5,2,E-,1,0,1,400,600,250.0,0,D26SH,161,train
815.5100345611572,4,0,3,1,5,2,E-,0,1,3,400,600,250.0,2,D26SH,162,train
1919.7428226470947,4,0,3,1,5,2,E-,1,4,0,400,600,250.0,4,D26SH,163,train
991.5189743041992,4,0,3,1,5,2,E-,1,2,5,400,600,250.0,2,D26SH,164,train
1535.4070663452148,4,0,3,1,5,2,E-,1,3,2,400,600,250.0,3,D26SH,165,train
1007.6379776000977,4,0,3,1,5,2,E-,1,1,3,400,600,250.0,1,D26SH,166,train
1007.6420307159424,4,0,3,1,5,2,E-,1,3,2,400,600,250.0,3,D26SH,167,train
975.571870803833,4,0,3,1,5,2,E-,1,5,4,400,600,250.0,5,D26SH,168,train
1215.5201435089111,4,0,3,1,5,2,E-,1,4,0,400,600,250.0,4,D26SH,169,train
831.488847732544,4,0,3,1,5,2,E-,1,3,2,400,600,250.0,3,D26SH,170,train
783.6201190948486,4,0,3,1,5,2,E-,1,2,5,400,600,250.0,2,D26SH,171,train
1327.6770114898682,4,0,3,1,5,2,E-,1,4,0,400,600,250.0,4,D26SH,172,train
799.5331287384033,4,0,3,1,5,2,E-,1,3,2,400,600,250.0,3,D26SH,173,train
863.5151386260986,4,0,3,1,5,2,E-,1,2,5,400,600,250.0,2,D26SH,174,train
623.492956161499,4,0,3,1,5,2,E-,1,2,5,400,600,250.0,2,D26SH,175,train
991.610050201416,4,0,3,1,5,2,E-,1,1,3,400,600,250.0,1,D26SH,176,train
1567.5179958343506,4,0,3,1,5,2,E-,1,5,4,400,600,250.0,5,D26SH,177,train
1999.59397315979,4,0,3,1,5,2,E-,1,5,4,400,600,250.0,5,D26SH,178,train
1087.5141620635986,4,0,3,1,5,2,E-,1,3,2,400,600,250.0,3,D26SH,179,train
1263.5338306427002,4,0,3,1,5,2,E-,1,4,0,400,600,250.0,4,D26SH,180,train
591.51291847229,4,0,3,1,5,2,E-,1,0,1,400,600,250.0,0,D26SH,181,train
495.5179691314697,4,0,3,1,5,2,E-,1,0,1,400,600,250.0,0,D26SH,182,train
911.5910530090332,4,0,3,1,5,2,E-,1,3,2,400,600,250.0,3,D26SH,183,train
767.5461769104004,4,0,3,1,5,2,E-,1,5,4,400,600,250.0,5,D26SH,184,train
895.5750465393066,4,0,3,1,5,2,E-,1,3,2,400,600,250.0,3,D26SH,185,train
1023.6148834228516,4,0,3,1,5,2,E-,1,1,3,400,600,250.0,1,D26SH,186,train
623.4641075134277,4,0,3,1,5,2,E-,1,5,4,400,600,250.0,5,D26SH,187,train
671.5991497039795,4,0,3,1,5,2,E-,1,3,2,400,600,250.0,3,D26SH,188,train
767.5700187683105,4,0,3,1,5,2,E-,1,4,0,400,600,250.0,4,D26SH,189,train
975.5988121032715,4,0,3,1,5,2,E-,1,5,4,400,600,250.0,5,D26SH,190,train
1423.5191345214844,4,0,3,1,5,2,E-,1,4,0,400,600,250.0,4,D26SH,191,train
783.5421562194824,4,0,3,1,5,2,E-,1,3,2,400,600,250.0,3,D26SH,192,train
495.5270290374756,4,0,3,1,5,2,E-,1,3,2,400,600,250.0,3,D26SH,193,train
1215.5330181121826,4,0,3,1,5,2,E-,0,1,3,400,600,250.0,0,D26SH,194,train
1711.5309238433838,4,0,3,1,5,2,E-,1,4,0,400,600,250.0,4,D26SH,195,train
639.3928527832031,4,0,3,1,5,2,E-,1,3,2,400,600,250.0,3,D26SH,196,train
335.29019355773926,4,0,3,1,5,2,E-,1,3,2,400,600,250.0,3,D26SH,197,train
1407.538890838623,4,0,3,1,5,2,E-,1,1,3,400,600,250.0,1,D26SH,198,train
863.4898662567139,4,0,3,1,5,2,E-,1,3,2,400,600,250.0,3,D26SH,199,train
1007.5790882110596,4,0,3,1,5,2,E-,1,1,3,400,600,250.0,1,D26SH,200,train
783.6039066314697,4,0,3,1,5,2,E-,1,5,4,400,600,250.0,5,D26SH,201,train
703.5458087921143,4,0,3,1,5,2,E-,1,0,1,400,600,250.0,0,D26SH,202,train
767.5671577453613,4,0,3,1,5,2,E-,1,1,3,400,600,250.0,1,D26SH,203,train
863.5249137878418,4,0,3,1,5,2,E-,1,1,3,400,600,250.0,1,D26SH,204,train
959.5050811767578,4,0,3,1,5,2,E-,1,3,2,400,600,250.0,3,D26SH,205,train
1439.4910335540771,4,0,3,1,5,2,E-,1,4,0,400,600,250.0,4,D26SH,206,train
1199.573040008545,4,0,3,1,5,2,E-,1,5,4,400,600,250.0,5,D26SH,207,train
1855.6010723114014,4,0,3,1,5,2,E-,1,5,4,400,600,250.0,5,D26SH,208,train
1215.5399322509766,4,0,3,1,5,2,E-,1,5,4,400,600,250.0,5,D26SH,209,train
543.4308052062988,4,0,3,1,5,2,E-,1,5,4,400,600,250.0,5,D26SH,210,train
1151.505947113037,4,0,3,1,5,2,E-,1,1,3,400,600,250.0,1,D26SH,211,train
527.5278091430664,4,0,3,1,5,2,E-,1,1,3,400,600,250.0,1,D26SH,212,train
431.25414848327637,4,0,3,1,5,2,E-,1,1,3,400,600,250.0,1,D26SH,213,train
319.5641040802002,4,0,3,1,5,2,E-,1,1,3,400,600,250.0,1,D26SH,214,train
1071.563959121704,4,0,3,1,5,2,E-,1,5,4,400,600,250.0,5,D26SH,215,train
655.5709838867188,4,0,3,1,5,2,E-,1,0,1,400,600,250.0,0,D26SH,216,train
1135.6101036071777,4,0,3,1,5,2,E-,1,5,4,400,600,250.0,5,D26SH,217,train
815.1750564575195,4,0,3,1,5,2,E-,0,3,2,400,600,250.0,0,D26SH,218,train
510.76602935791016,4,0,3,1,5,2,E-,1,3,2,400,600,250.0,3,D26SH,219,train
351.3920307159424,4,0,3,1,5,2,E-,1,3,2,400,600,250.0,3,D26SH,220,train
1087.5279903411865,4,0,3,1,5,2,E-,1,4,0,400,600,250.0,4,D26SH,221,train
895.4389095306396,4,0,3,1,5,2,E-,1,0,1,400,600,250.0,0,D26SH,222,train
975.4621982574463,4,0,3,1,5,2,E-,1,3,2,400,600,250.0,3,D26SH,223,train
847.6550579071045,4,0,3,1,5,2,E-,1,0,1,400,600,250.0,0,D26SH,224,train
415.52281379699707,4,0,3,1,5,2,E-,1,0,1,400,600,250.0,0,D26SH,225,train
575.5200386047363,4,0,3,1,5,2,E-,1,3,2,400,600,250.0,3,D26SH,226,train
847.588062286377,4,0,3,1,5,2,E-,1,4,0,400,600,250.0,4,D26SH,227,train
767.4570083618164,4,0,3,1,5,2,E-,1,3,2,400,600,250.0,3,D26SH,228,train
1327.5389671325684,4,0,3,1,5,2,E-,1,4,0,400,600,250.0,4,D26SH,229,train
1007.4329376220703,4,0,3,1,5,2,E-,1,4,0,400,600,250.0,4,D26SH,230,train
1119.5988655090332,4,0,3,1,5,2,E-,1,5,4,400,600,250.0,5,D26SH,231,train
735.529899597168,4,0,3,1,5,2,E-,1,3,2,400,600,250.0,3,D26SH,232,train
527.5850296020508,4,0,3,1,5,2,E-,1,0,1,400,600,250.0,0,D26SH,233,train
719.6159362792969,4,0,3,1,5,2,E-,1,5,4,400,600,250.0,5,D26SH,234,train
879.5299530029297,4,0,3,1,5,2,E-,1,4,0,400,600,250.0,4,D26SH,235,train
975.5280017852783,4,0,3,1,5,2,E-,1,2,5,400,600,250.0,2,D26SH,236,train
703.5629749298096,4,0,3,1,5,2,E-,1,5,4,400,600,250.0,5,D26SH,237,train
975.5442142486572,4,0,3,1,5,2,E-,1,2,5,400,600,250.0,2,D26SH,238,train
991.2619590759277,4,0,3,1,5,2,E-,1,1,3,400,600,250.0,1,D26SH,239,train
767.5387859344482,4,0,3,1,5,2,E-,1,5,4,400,600,250.0,5,D26SH,240,train
1039.6459102630615,4,0,3,1,5,2,E-,1,3,2,400,600,250.0,3,D26SH,241,train
911.6840362548828,4,0,3,1,5,2,E-,1,1,3,400,600,250.0,1,D26SH,242,train
959.5310688018799,4,0,3,1,5,2,E-,1,3,2,400,600,250.0,3,D26SH,243,train
847.6269245147705,4,0,3,1,5,2,E-,1,1,3,400,600,250.0,1,D26SH,244,train
719.5699214935303,4,0,3,1,5,2,E-,1,3,2,400,600,250.0,3,D26SH,245,train
847.5511074066162,4,0,3,1,5,2,E-,1,2,5,400,600,250.0,2,D26SH,246,train
911.5660190582275,4,0,3,1,5,2,E-,1,2,5,400,600,250.0,2,D26SH,247,train
415.73405265808105,4,0,3,1,5,2,E-,1,2,5,400,600,250.0,2,D26SH,248,train
559.6070289611816,4,0,3,1,5,2,E-,1,0,1,400,600,250.0,0,D26SH,249,train
2080.613851547241,3,4,1,0,2,5,E-,1,5,5,0,1000,250.0,5,D26SH,250,test
1344.789981842041,3,4,1,0,2,5,E-,1,4,1,0,1000,250.0,4,D26SH,251,test
1392.6489353179932,3,4,1,0,2,5,E-,1,2,4,0,1000,250.0,2,D26SH,252,test
833.0039978027344,3,4,1,0,2,5,E-,1,2,4,0,1000,250.0,2,D26SH,253,test
1024.9829292297363,3,4,1,0,2,5,E-,1,4,1,0,1000,250.0,4,D26SH,254,test
1120.8181381225586,3,4,1,0,2,5,E-,1,3,0,0,1000,250.0,3,D26SH,255,test
1264.7700309753418,3,4,1,0,2,5,E-,1,0,3,0,1000,250.0,0,D26SH,256,test
976.8168926239014,3,4,1,0,2,5,E-,1,1,2,0,1000,250.0,1,D26SH,257,test
768.88108253479,3,4,1,0,2,5,E-,1,2,4,0,1000,250.0,2,D26SH,258,test
1008.8350772857666,3,4,1,0,2,5,E-,1,4,1,0,1000,250.0,4,D26SH,259,test
2320.847988128662,3,4,1,0,2,5,E-,0,2,4,0,1000,250.0,0,D26SH,260,test
1328.446865081787,3,4,1,0,2,5,E-,1,3,0,0,1000,250.0,3,D26SH,261,test
1520.6830501556396,3,4,1,0,2,5,E-,1,5,5,0,1000,250.0,5,D26SH,262,test
1168.9050197601318,3,4,1,0,2,5,E-,1,4,1,0,1000,250.0,4,D26SH,263,test
768.8791751861572,3,4,1,0,2,5,E-,1,4,1,0,1000,250.0,4,D26SH,264,test
1616.7688369750977,3,4,1,0,2,5,E-,1,1,2,0,1000,250.0,1,D26SH,265,test
784.8300933837891,3,4,1,0,2,5,E-,1,1,2,0,1000,250.0,1,D26SH,266,test
1392.714023590088,3,4,1,0,2,5,E-,1,0,3,0,1000,250.0,0,D26SH,267,test
960.8128070831299,3,4,1,0,2,5,E-,1,1,2,0,1000,250.0,1,D26SH,268,test
1136.8989944458008,3,4,1,0,2,5,E-,1,3,0,0,1000,250.0,3,D26SH,269,test
1104.8369407653809,3,4,1,0,2,5,E-,1,5,5,0,1000,250.0,5,D26SH,270,test
1440.7780170440674,3,4,1,0,2,5,E-,1,1,2,0,1000,250.0,1,D26SH,271,test
608.7448596954346,3,4,1,0,2,5,E-,1,1,2,0,1000,250.0,1,D26SH,272,test
480.76891899108887,3,4,1,0,2,5,E-,1,1,2,0,1000,250.0,1,D26SH,273,test
448.7590789794922,3,4,1,0,2,5,E-,1,1,2,0,1000,250.0,1,D26SH,274,test
992.8100109100342,3,4,1,0,2,5,E-,1,0,3,0,1000,250.0,0,D26SH,275,test
576.7850875854492,3,4,1,0,2,5,E-,1,1,2,0,1000,250.0,1,D26SH,276,test
1280.851125717163,3,4,1,0,2,5,E-,1,5,5,0,1000,250.0,5,D26SH,277,test
528.9640426635742,3,4,1,0,2,5,E-,0,0,3,0,1000,250.0,5,D26SH,278,test
1120.805025100708,3,4,1,0,2,5,E-,1,1,2,0,1000,250.0,1,D26SH,279,test
832.7970504760742,3,4,1,0,2,5,E-,1,0,3,0,1000,250.0,0,D26SH,280,test
736.8900775909424,3,4,1,0,2,5,E-,1,1,2,0,1000,250.0,1,D26SH,281,test
1168.7901020050049,3,4,1,0,2,5,E-,1,0,3,0,1000,250.0,0,D26SH,282,test
1040.7230854034424,3,4,1,0,2,5,E-,1,2,4,0,1000,250.0,2,D26SH,283,test
912.804126739502,3,4,1,0,2,5,E-,1,4,1,0,1000,250.0,4,D26SH,284,test
1296.7400550842285,3,4,1,0,2,5,E-,1,5,5,0,1000,250.0,5,D26SH,285,test
992.8929805755615,3,4,1,0,2,5,E-,1,4,1,0,1000,250.0,4,D26SH,286,test
1120.8140850067139,3,4,1,0,2,5,E-,1,2,4,0,1000,250.0,2,D26SH,287,test
800.8339405059814,3,4,1,0,2,5,E-,1,2,4,0,1000,250.0,2,D26SH,288,test
1760.840892791748,3,4,1,0,2,5,E-,1,3,0,0,1000,250.0,3,D26SH,289,test
1232.7351570129395,3,4,1,0,2,5,E-,1,2,4,0,1000,250.0,2,D26SH,290,test
720.7939624786377,3,4,1,0,2,5,E-,1,2,4,0,1000,250.0,2,D26SH,291,test
736.7777824401855,3,4,1,0,2,5,E-,1,2,4,0,1000,250.0,2,D26SH,292,test
992.7527904510498,3,4,1,0,2,5,E-,1,3,0,0,1000,250.0,3,D26SH,293,test
1504.7929286956787,3,4,1,0,2,5,E-,1,1,2,0,1000,250.0,1,D26SH,294,test
944.8080062866211,3,4,1,0,2,5,E-,1,0,3,0,1000,250.0,0,D26SH,295,test
1808.8500499725342,3,4,1,0,2,5,E-,1,5,5,0,1000,250.0,5,D26SH,296,test
1120.8219528198242,3,4,1,0,2,5,E-,1,1,2,0,1000,250.0,1,D26SH,297,test
992.8860664367676,3,4,1,0,2,5,E-,1,0,3,0,1000,250.0,0,D26SH,298,test
1040.860891342163,3,4,1,0,2,5,E-,1,0,3,0,1000,250.0,0,D26SH,299,test
1472.790002822876,3,4,1,0,2,5,E-,1,5,5,0,1000,250.0,5,D26SH,300,test
992.8798675537109,3,4,1,0,2,5,E-,1,3,0,0,1000,250.0,3,D26SH,301,test
1152.907133102417,3,4,1,0,2,5,E-,1,0,3,0,1000,250.0,0,D26SH,302,test
1328.7441730499268,3,4,1,0,2,5,E-,1,5,5,0,1000,250.0,5,D26SH,303,test
1840.6319618225098,3,4,1,0,2,5,E-,1,2,4,0,1000,250.0,2,D26SH,304,test
944.9009895324707,3,4,1,0,2,5,E-,1,0,3,0,1000,250.0,0,D26SH,305,test
1984.8639965057373,3,4,1,0,2,5,E-,1,5,5,0,1000,250.0,5,D26SH,306,test
944.835901260376,3,4,1,0,2,5,E-,1,0,3,0,1000,250.0,0,D26SH,307,test
1103.2419204711914,3,4,1,0,2,5,E-,1,2,4,0,1000,250.0,2,D26SH,308,test
960.8590602874756,3,4,1,0,2,5,E-,1,3,0,0,1000,250.0,3,D26SH,309,test
1568.7730312347412,3,4,1,0,2,5,E-,1,4,1,0,1000,250.0,4,D26SH,310,test
944.6120262145996,3,4,1,0,2,5,E-,0,5,5,0,1000,250.0,3,D26SH,311,test
1104.7489643096924,3,4,1,0,2,5,E-,1,0,3,0,1000,250.0,0,D26SH,312,test
1216.8450355529785,3,4,1,0,2,5,E-,1,0,3,0,1000,250.0,0,D26SH,313,test
848.7651348114014,3,4,1,0,2,5,E-,1,1,2,0,1000,250.0,1,D26SH,314,test
1056.800127029419,3,4,1,0,2,5,E-,1,4,1,0,1000,250.0,4,D26SH,315,test
976.7789840698242,3,4,1,0,2,5,E-,1,0,3,0,1000,250.0,0,D26SH,316,test
2000.75101852417,3,4,1,0,2,5,E-,1,1,2,0,1000,250.0,1,D26SH,317,test
848.7110137939453,3,4,1,0,2,5,E-,0,5,5,0,1000,250.0,3,D26SH,318,test
1024.7259140014648,3,4,1,0,2,5,E-,1,0,3,0,1000,250.0,0,D26SH,319,test
848.8359451293945,3,4,1,0,2,5,E-,1,1,2,0,1000,250.0,1,D26SH,320,test
880.5592060089111,3,4,1,0,2,5,E-,1,0,3,0,1000,250.0,0,D26SH,321,test
752.8262138366699,3,4,1,0,2,5,E-,1,1,2,0,1000,250.0,1,D26SH,322,test
1040.550947189331,3,4,1,0,2,5,E-,1,2,4,0,1000,250.0,2,D26SH,323,test
1296.750783920288,3,4,1,0,2,5,E-,1,5,5,0,1000,250.0,5,D26SH,324,test
1040.6081676483154,3,4,1,0,2,5,E-,1,1,2,0,1000,250.0,1,D26SH,325,test
1072.796106338501,3,4,1,0,2,5,E-,1,4,1,0,1000,250.0,4,D26SH,326,test
1152.9459953308105,3,4,1,0,2,5,E-,1,5,5,0,1000,250.0,5,D26SH,327,test
896.7390060424805,3,4,1,0,2,5,E-,1,4,1,0,1000,250.0,4,D26SH,328,test
1216.6709899902344,3,4,1,0,2,5,E-,1,2,4,0,1000,250.0,2,D26SH,329,test
896.9061374664307,3,4,1,0,2,5,E-,1,2,4,0,1000,250.0,2,D26SH,330,test
704.7500610351562,3,4,1,0,2,5,E-,1,2,4,0,1000,250.0,2,D26SH,331,test
1136.941909790039,3,4,1,0,2,5,E-,1,3,0,0,1000,250.0,3,D26SH,332,test
784.7509384155273,3,4,1,0,2,5,E-,1,2,4,0,1000,250.0,2,D26SH,333,test
640.84792137146,3,4,1,0,2,5,E-,1,2,4,0,1000,250.0,2,D26SH,334,test
992.8610324859619,3,4,1,0,2,5,E-,1,0,3,0,1000,250.0,0,D26SH,335,test
1264.8439407348633,3,4,1,0,2,5,E-,1,2,4,0,1000,250.0,2,D26SH,336,test
1152.8420448303223,3,4,1,0,2,5,E-,1,3,0,0,1000,250.0,3,D26SH,337,test
944.7691440582275,3,4,1,0,2,5,E-,1,2,4,0,1000,250.0,2,D26SH,338,test
1136.8989944458008,3,4,1,0,2,5,E-,1,3,0,0,1000,250.0,3,D26SH,339,test
1088.865041732788,3,4,1,0,2,5,E-,1,3,0,0,1000,250.0,3,D26SH,340,test
976.7899513244629,3,4,1,0,2,5,E-,1,3,0,0,1000,250.0,3,D26SH,341,test
1184.8199367523193,3,4,1,0,2,5,E-,1,5,5,0,1000,250.0,5,D26SH,342,test
960.8819484710693,3,4,1,0,2,5,E-,1,3,0,0,1000,250.0,3,D26SH,343,test
1677.6700019836426,3,4,1,0,2,5,E-,1,0,3,0,1000,250.0,0,D26SH,344,test
928.8508892059326,3,4,1,0,2,5,E-,1,0,3,0,1000,250.0,0,D26SH,345,test
1184.7920417785645,3,4,1,0,2,5,E-,1,2,4,0,1000,250.0,2,D26SH,346,test
688.4620189666748,3,4,1,0,2,5,E-,1,2,4,0,1000,250.0,2,D26SH,347,test
688.8368129730225,3,4,1,0,2,5,E-,1,0,3,0,1000,250.0,0,D26SH,348,test
800.8949756622314,3,4,1,0,2,5,E-,1,0,3,0,1000,250.0,0,D26SH,349,test
528.7530422210693,3,4,1,0,2,5,E-,1,0,3,0,1000,250.0,0,D26SH,350,test
1424.757957458496,3,4,1,0,2,5,E-,1,4,1,0,1000,250.0,4,D26SH,351,test
752.8228759765625,3,4,1,0,2,5,E-,1,3,0,0,1000,250.0,3,D26SH,352,test
1104.8991680145264,3,4,1,0,2,5,E-,1,5,5,0,1000,250.0,5,D26SH,353,test
1152.8599262237549,3,4,1,0,2,5,E-,1,1,2,0,1000,250.0,1,D26SH,354,test
1216.8400287628174,3,4,1,0,2,5,E-,1,3,0,0,1000,250.0,3,D26SH,355,test
1168.929100036621,3,4,1,0,2,5,E-,1,4,1,0,1000,250.0,4,D26SH,356,test
1088.7868404388428,3,4,1,0,2,5,E-,1,2,4,0,1000,250.0,2,D26SH,357,test
848.8609790802002,3,4,1,0,2,5,E-,1,3,0,0,1000,250.0,3,D26SH,358,test
992.8441047668457,3,4,1,0,2,5,E-,1,2,4,0,1000,250.0,2,D26SH,359,test
1504.8480033874512,3,4,1,0,2,5,E-,1,4,1,0,1000,250.0,4,D26SH,360,test
1552.9201030731201,3,4,1,0,2,5,E-,1,5,5,0,1000,250.0,5,D26SH,361,test
976.8738746643066,3,4,1,0,2,5,E-,1,0,3,0,1000,250.0,0,D26SH,362,test
976.780891418457,3,4,1,0,2,5,E-,1,2,4,0,1000,250.0,2,D26SH,363,test
1008.8291168212891,3,4,1,0,2,5,E-,1,4,1,0,1000,250.0,4,D26SH,364,test
1200.7808685302734,3,4,1,0,2,5,E-,1,4,1,0,1000,250.0,4,D26SH,365,test
768.7451839447021,3,4,1,0,2,5,E-,1,0,3,0,1000,250.0,0,D26SH,366,test
1648.7329006195068,3,4,1,0,2,5,E-,1,3,0,0,1000,250.0,3,D26SH,367,test
1120.9361553192139,3,4,1,0,2,5,E-,1,1,2,0,1000,250.0,1,D26SH,368,test
1184.8459243774414,3,4,1,0,2,5,E-,1,5,5,0,1000,250.0,5,D26SH,369,test
752.8297901153564,3,4,1,0,2,5,E-,0,5,5,0,1000,250.0,3,D26SH,370,test
1232.8758239746094,3,4,1,0,2,5,E-,1,2,4,0,1000,250.0,2,D26SH,371,test
496.7191219329834,3,4,1,0,2,5,E-,1,2,4,0,1000,250.0,2,D26SH,372,test
1152.7600288391113,3,4,1,0,2,5,E-,0,0,3,0,1000,250.0,3,D26SH,373,test
1296.81396484375,3,4,1,0,2,5,E-,1,4,1,0,1000,250.0,4,D26SH,374,test
880.8329105377197,3,4,1,0,2,5,E-,1,4,1,0,1000,250.0,4,D26SH,375,test
768.787145614624,3,4,1,0,2,5,E-,1,3,0,0,1000,250.0,3,D26SH,376,test
704.7579288482666,3,4,1,0,2,5,E-,1,0,3,0,1000,250.0,0,D26SH,377,test
1056.8361282348633,3,4,1,0,2,5,E-,1,2,4,0,1000,250.0,2,D26SH,378,test
496.74296379089355,3,4,1,0,2,5,E-,1,2,4,0,1000,250.0,2,D26SH,379,test
496.6249465942383,3,4,1,0,2,5,E-,1,0,3,0,1000,250.0,0,D26SH,380,test
992.8150177001953,3,4,1,0,2,5,E-,1,3,0,0,1000,250.0,3,D26SH,381,test
1168.769121170044,3,4,1,0,2,5,E-,1,5,5,0,1000,250.0,5,D26SH,382,test
1248.857021331787,3,4,1,0,2,5,E-,1,0,3,0,1000,250.0,0,D26SH,383,test
992.8350448608398,3,4,1,0,2,5,E-,1,2,4,0,1000,250.0,2,D26SH,384,test
1344.9320793151855,3,4,1,0,2,5,E-,1,5,5,0,1000,250.0,5,D26SH,385,test
1296.7560291290283,3,4,1,0,2,5,E-,1,3,0,0,1000,250.0,3,D26SH,386,test
1232.7790260314941,3,4,1,0,2,5,E-,1,1,2,0,1000,250.0,1,D26SH,387,test
1072.8631019592285,3,4,1,0,2,5,E-,1,5,5,0,1000,250.0,5,D26SH,388,test
1280.7221412658691,3,4,1,0,2,5,E-,1,5,5,0,1000,250.0,5,D26SH,389,test
752.9511451721191,3,4,1,0,2,5,E-,1,4,1,0,1000,250.0,4,D26SH,390,test
816.6441917419434,3,4,1,0,2,5,E-,1,0,3,0,1000,250.0,0,D26SH,391,test
1056.9469928741455,3,4,1,0,2,5,E-,1,2,4,0,1000,250.0,2,D26SH,392,test
832.7839374542236,3,4,1,0,2,5,E-,1,4,1,0,1000,250.0,4,D26SH,393,test
608.8018417358398,3,4,1,0,2,5,E-,1,0,3,0,1000,250.0,0,D26SH,394,test
864.9230003356934,3,4,1,0,2,5,E-,0,5,5,0,1000,250.0,3,D26SH,395,test
1312.7570152282715,3,4,1,0,2,5,E-,1,4,1,0,1000,250.0,4,D26SH,396,test
928.8449287414551,3,4,1,0,2,5,E-,1,3,0,0,1000,250.0,3,D26SH,397,test
528.7749767303467,3,4,1,0,2,5,E-,1,0,3,0,1000,250.0,0,D26SH,398,test
960.8731269836426,3,4,1,0,2,5,E-,0,5,5,0,1000,250.0,3,D26SH,399,test
1216.7611122131348,3,4,1,0,2,5,E-,1,4,1,0,1000,250.0,4,D26SH,400,test
1008.8510513305664,3,4,1,0,2,5,E-,1,4,1,0,1000,250.0,4,D26SH,401,test
640.8309936523438,3,4,1,0,2,5,E-,0,5,5,0,1000,250.0,3,D26SH,402,test
1424.849033355713,3,4,1,0,2,5,E-,1,1,2,0,1000,250.0,1,D26SH,403,test
2288.543939590454,3,4,1,0,2,5,E-,1,5,5,0,1000,250.0,5,D26SH,404,test
1024.7960090637207,3,4,1,0,2,5,E-,1,4,1,0,1000,250.0,4,D26SH,405,test
1056.8909645080566,3,4,1,0,2,5,E-,1,2,4,0,1000,250.0,2,D26SH,406,test
1616.8489456176758,3,4,1,0,2,5,E-,1,5,5,0,1000,250.0,5,D26SH,407,test
1040.9290790557861,3,4,1,0,2,5,E-,1,1,2,0,1000,250.0,1,D26SH,408,test
1792.8121089935303,3,4,1,0,2,5,E-,1,3,0,0,1000,250.0,3,D26SH,409,test
992.7780628204346,3,4,1,0,2,5,E-,1,5,5,0,1000,250.0,5,D26SH,410,test
1232.8078746795654,3,4,1,0,2,5,E-,1,1,2,0,1000,250.0,1,D26SH,411,test
1504.837989807129,3,4,1,0,2,5,E-,1,0,3,0,1000,250.0,0,D26SH,412,test
1120.905876159668,3,4,1,0,2,5,E-,1,4,1,0,1000,250.0,4,D26SH,413,test
1888.9667987823486,3,4,1,0,2,5,E-,1,5,5,0,1000,250.0,5,D26SH,414,test
3696.826934814453,3,4,1,0,2,5,E-,1,2,4,0,1000,250.0,2,D26SH,415,test
1520.7750797271729,3,4,1,0,2,5,E-,1,3,0,0,1000,250.0,3,D26SH,416,test
928.77197265625,3,4,1,0,2,5,E-,1,3,0,0,1000,250.0,3,D26SH,417,test
1968.876838684082,3,4,1,0,2,5,E-,1,0,3,0,1000,250.0,0,D26SH,418,test
1456.8641185760498,3,4,1,0,2,5,E-,1,5,5,0,1000,250.0,5,D26SH,419,test
880.964994430542,3,4,1,0,2,5,E-,1,1,2,0,1000,250.0,1,D26SH,420,test
896.6310024261475,3,4,1,0,2,5,E-,1,3,0,0,1000,250.0,3,D26SH,421,test
1120.8951473236084,3,4,1,0,2,5,E-,1,4,1,0,1000,250.0,4,D26SH,422,test
1184.7541332244873,3,4,1,0,2,5,E-,1,1,2,0,1000,250.0,1,D26SH,423,test
832.7770233154297,3,4,1,0,2,5,E-,1,3,0,0,1000,250.0,3,D26SH,424,test
1088.9458656311035,3,4,1,0,2,5,E-,1,4,1,0,1000,250.0,4,D26SH,425,test
864.8788928985596,3,4,1,0,2,5,E-,1,4,1,0,1000,250.0,4,D26SH,426,test
1120.9230422973633,3,4,1,0,2,5,E-,1,4,1,0,1000,250.0,4,D26SH,427,test
1136.7988586425781,3,4,1,0,2,5,E-,0,1,2,0,1000,250.0,4,D26SH,428,test
1424.8559474945068,3,4,1,0,2,5,E-,1,5,5,0,1000,250.0,5,D26SH,429,test
720.7090854644775,3,4,1,0,2,5,E-,1,5,5,0,1000,250.0,5,D26SH,430,test
1440.7880306243896,3,4,1,0,2,5,E-,1,2,4,0,1000,250.0,2,D26SH,431,test
528.8040637969971,3,4,1,0,2,5,E-,1,2,4,0,1000,250.0,2,D26SH,432,test
1200.7060050964355,3,4,1,0,2,5,E-,1,1,2,0,1000,250.0,1,D26SH,433,test
1008.6820125579834,3,4,1,0,2,5,E-,1,1,2,0,1000,250.0,1,D26SH,434,test
1232.8739166259766,3,4,1,0,2,5,E-,1,4,1,0,1000,250.0,4,D26SH,435,test
720.7181453704834,3,4,1,0,2,5,E-,0,1,2,0,1000,250.0,4,D26SH,436,test
928.5621643066406,3,4,1,0,2,5,E-,1,0,3,0,1000,250.0,0,D26SH,437,test
1713.0300998687744,3,4,1,0,2,5,E-,1,5,5,0,1000,250.0,5,D26SH,438,test
1136.946201324463,3,4,1,0,2,5,E-,1,0,3,0,1000,250.0,0,D26SH,439,test
1232.6698303222656,3,4,1,0,2,5,E-,1,2,4,0,1000,250.0,2,D26SH,440,test
1184.8289966583252,3,4,1,0,2,5,E-,1,5,5,0,1000,250.0,5,D26SH,441,test
768.8150405883789,3,4,1,0,2,5,E-,1,5,5,0,1000,250.0,5,D26SH,442,test
1152.803897857666,3,4,1,0,2,5,E-,1,4,1,0,1000,250.0,4,D26SH,443,test
2400.7649421691895,3,4,1,0,2,5,E-,1,2,4,0,1000,250.0,2,D26SH,444,test
1440.8340454101562,3,4,1,0,2,5,E-,1,3,0,0,1000,250.0,3,D26SH,445,test
1344.7890281677246,3,4,1,0,2,5,E-,1,1,2,0,1000,250.0,1,D26SH,446,test
1312.8840923309326,3,4,1,0,2,5,E-,1,3,0,0,1000,250.0,3,D26SH,447,test
1088.8299942016602,3,4,1,0,2,5,E-,1,0,3,0,1000,250.0,0,D26SH,448,test
944.735050201416,3,4,1,0,2,5,E-,1,2,4,0,1000,250.0,2,D26SH,449,test
2016.9520378112793,3,4,1,0,2,5,E-,1,3,0,0,1000,250.0,3,D26SH,450,test
960.806131362915,3,4,1,0,2,5,E-,1,4,1,0,1000,250.0,4,D26SH,451,test
992.7849769592285,3,4,1,0,2,5,E-,1,3,0,0,1000,250.0,3,D26SH,452,test
1168.9088344573975,3,4,1,0,2,5,E-,1,4,1,0,1000,250.0,4,D26SH,453,test
1040.822982788086,3,4,1,0,2,5,E-,1,4,1,0,1000,250.0,4,D26SH,454,test
656.8078994750977,3,4,1,0,2,5,E-,1,4,1,0,1000,250.0,4,D26SH,455,test
960.9057903289795,3,4,1,0,2,5,E-,1,0,3,0,1000,250.0,0,D26SH,456,test
688.9472007751465,3,4,1,0,2,5,E-,1,0,3,0,1000,250.0,0,D26SH,457,test
1280.785083770752,3,4,1,0,2,5,E-,1,3,0,0,1000,250.0,3,D26SH,458,test
1648.6568450927734,3,4,1,0,2,5,E-,1,5,5,0,1000,250.0,5,D26SH,459,test
1168.8108444213867,3,4,1,0,2,5,E-,1,5,5,0,1000,250.0,5,D26SH,460,test
816.8621063232422,3,4,1,0,2,5,E-,1,2,4,0,1000,250.0,2,D26SH,461,test
992.887020111084,3,4,1,0,2,5,E-,1,5,5,0,1000,250.0,5,D26SH,462,test
736.8350028991699,3,4,1,0,2,5,E-,1,4,1,0,1000,250.0,4,D26SH,463,test
1136.8579864501953,3,4,1,0,2,5,E-,1,2,4,0,1000,250.0,2,D26SH,464,test
992.9099082946777,3,4,1,0,2,5,E-,1,0,3,0,1000,250.0,0,D26SH,465,test
1344.7949886322021,3,4,1,0,2,5,E-,1,5,5,0,1000,250.0,5,D26SH,466,test
1360.7280254364014,3,4,1,0,2,5,E-,1,2,4,0,1000,250.0,2,D26SH,467,test
1168.914794921875,3,4,1,0,2,5,E-,1,4,1,0,1000,250.0,4,D26SH,468,test
784.8470211029053,3,4,1,0,2,5,E-,1,4,1,0,1000,250.0,4,D26SH,469,test
1120.4969882965088,3,4,1,0,2,5,E-,1,5,5,0,1000,250.0,5,D26SH,470,test
960.7951641082764,3,4,1,0,2,5,E-,1,1,2,0,1000,250.0,1,D26SH,471,test
848.8121032714844,3,4,1,0,2,5,E-,1,0,3,0,1000,250.0,0,D26SH,472,test
2016.840934753418,3,4,1,0,2,5,E-,1,5,5,0,1000,250.0,5,D26SH,473,test
2176.981210708618,3,4,1,0,2,5,E-,1,0,3,0,1000,250.0,0,D26SH,474,test
1424.7379302978516,3,4,1,0,2,5,E-,1,0,3,0,1000,250.0,0,D26SH,475,test
832.9310417175293,3,4,1,0,2,5,E-,1,1,2,0,1000,250.0,1,D26SH,476,test
896.956205368042,3,4,1,0,2,5,E-,1,3,0,0,1000,250.0,3,D26SH,477,test
1104.8450469970703,3,4,1,0,2,5,E-,1,5,5,0,1000,250.0,5,D26SH,478,test
1200.7009983062744,3,4,1,0,2,5,E-,1,5,5,0,1000,250.0,5,D26SH,479,test
480.90410232543945,3,4,1,0,2,5,E-,1,5,5,0,1000,250.0,5,D26SH,480,test
1008.8329315185547,3,4,1,0,2,5,E-,1,4,1,0,1000,250.0,4,D26SH,481,test
576.8768787384033,3,4,1,0,2,5,E-,0,5,5,0,1000,250.0,3,D26SH,482,test
1104.8550605773926,3,4,1,0,2,5,E-,1,2,4,0,1000,250.0,2,D26SH,483,test
848.9398956298828,3,4,1,0,2,5,E-,0,0,3,0,1000,250.0,5,D26SH,484,test
1616.8360710144043,3,4,1,0,2,5,E-,1,4,1,0,1000,250.0,4,D26SH,485,test
1008.0320835113525,3,4,1,0,2,5,E-,1,2,4,0,1000,250.0,2,D26SH,486,test
816.8470859527588,3,4,1,0,2,5,E-,1,3,0,0,1000,250.0,3,D26SH,487,test
1376.816987991333,3,4,1,0,2,5,E-,1,1,2,0,1000,250.0,1,D26SH,488,test
1136.9109153747559,3,4,1,0,2,5,E-,1,4,1,0,1000,250.0,4,D26SH,489,test
832.5400352478027,3,4,1,0,2,5,E-,1,1,2,0,1000,250.0,1,D26SH,490,test
816.8210983276367,3,4,1,0,2,5,E-,1,0,3,0,1000,250.0,0,D26SH,491,test
1296.7300415039062,3,4,1,0,2,5,E-,1,5,5,0,1000,250.0,5,D26SH,492,test
768.8698768615723,3,4,1,0,2,5,E-,1,5,5,0,1000,250.0,5,D26SH,493,test
1776.871919631958,3,4,1,0,2,5,E-,1,2,4,0,1000,250.0,2,D26SH,494,test
1168.7750816345215,3,4,1,0,2,5,E-,1,4,1,0,1000,250.0,4,D26SH,495,test
1312.511920928955,3,4,1,0,2,5,E-,1,0,3,0,1000,250.0,0,D26SH,496,test
976.7799377441406,3,4,1,0,2,5,E-,1,1,2,0,1000,250.0,1,D26SH,497,test
832.7040672302246,3,4,1,0,2,5,E-,0,2,4,0,1000,250.0,1,D26SH,498,test
880.8209896087646,3,4,1,0,2,5,E-,1,0,3,0,1000,250.0,0,D26SH,499,test
