RT,SRmap_0,SRmap_1,SRmap_2,SRmap_3,SRmap_4,SRmap_5,condition,correct,correct_response,curstim,ms-precue,ms-prestimblank,ntrials,response,subject,trial,type
9727.433919906616,2,4,5,3,1,0,E+,1,4,1,400,600,250.0,4,D06CS,0,train
703.7091255187988,2,4,5,3,1,0,E+,1,0,5,400,600,250.0,0,D06CS,1,train
639.8351192474365,2,4,5,3,1,0,E+,1,0,5,400,600,250.0,0,D06CS,2,train
335.921049118042,2,4,5,3,1,0,E+,1,0,5,400,600,250.0,0,D06CS,3,train
383.8660717010498,2,4,5,3,1,0,E+,1,1,4,400,600,250.0,1,D06CS,4,train
607.6099872589111,2,4,5,3,1,0,E+,0,5,2,400,600,250.0,4,D06CS,5,train
3231.843948364258,2,4,5,3,1,0,E+,1,3,3,400,600,250.0,3,D06CS,6,train
4255.303859710693,2,4,5,3,1,0,E+,1,2,0,400,600,250.0,2,D06CS,7,train
2383.4228515625,2,4,5,3,1,0,E+,1,4,1,400,600,250.0,4,D06CS,8,train
671.5409755706787,2,4,5,3,1,0,E+,1,1,4,400,600,250.0,1,D06CS,9,train
287.53018379211426,2,4,5,3,1,0,E+,1,2,0,400,600,250.0,2,D06CS,10,train
271.47388458251953,2,4,5,3,1,0,E+,1,2,0,400,600,250.0,2,D06CS,11,train
559.4120025634766,2,4,5,3,1,0,E+,1,3,3,400,600,250.0,3,D06CS,12,train
335.48688888549805,2,4,5,3,1,0,E+,1,0,5,400,600,250.0,0,D06CS,13,train
575.4380226135254,2,4,5,3,1,0,E+,1,5,2,400,600,250.0,5,D06CS,14,train
431.43701553344727,2,4,5,3,1,0,E+,1,3,3,400,600,250.0,3,D06CS,15,train
511.5010738372803,2,4,5,3,1,0,E+,1,5,2,400,600,250.0,5,D06CS,16,train
655.5271148681641,2,4,5,3,1,0,E+,1,4,1,400,600,250.0,4,D06CS,17,train
783.4558486938477,2,4,5,3,1,0,E+,1,1,4,400,600,250.0,1,D06CS,18,train
639.4460201263428,2,4,5,3,1,0,E+,1,2,0,400,600,250.0,2,D06CS,19,train
511.4448070526123,2,4,5,3,1,0,E+,1,2,0,400,600,250.0,2,D06CS,20,train
447.26109504699707,2,4,5,3,1,0,E+,1,2,0,400,600,250.0,2,D06CS,21,train
335.4921340942383,2,4,5,3,1,0,E+,1,3,3,400,600,250.0,3,D06CS,22,train
447.43895530700684,2,4,5,3,1,0,E+,1,3,3,400,600,250.0,3,D06CS,23,train
223.4189510345459,2,4,5,3,1,0,E+,1,1,4,400,600,250.0,1,D06CS,24,train
223.4210968017578,2,4,5,3,1,0,E+,1,1,4,400,600,250.0,1,D06CS,25,train
191.5740966796875,2,4,5,3,1,0,E+,1,0,5,400,600,250.0,0,D06CS,26,train
287.4720096588135,2,4,5,3,1,0,E+,1,5,2,400,600,250.0,5,D06CS,27,train
223.50716590881348,2,4,5,3,1,0,E+,1,0,5,400,600,250.0,0,D06CS,28,train
495.48816680908203,2,4,5,3,1,0,E+,1,4,1,400,600,250.0,4,D06CS,29,train
287.4000072479248,2,4,5,3,1,0,E+,1,4,1,400,600,250.0,4,D06CS,30,train
223.48809242248535,2,4,5,3,1,0,E+,1,0,5,400,600,250.0,0,D06CS,31,train
415.56811332702637,2,4,5,3,1,0,E+,1,3,3,400,600,250.0,3,D06CS,32,train
383.4409713745117,2,4,5,3,1,0,E+,1,0,5,400,600,250.0,0,D06CS,33,train
399.4879722595215,2,4,5,3,1,0,E+,1,1,4,400,600,250.0,1,D06CS,34,train
495.5129623413086,2,4,5,3,1,0,E+,1,1,4,400,600,250.0,1,D06CS,35,train
351.4559268951416,2,4,5,3,1,0,E+,1,5,2,400,600,250.0,5,D06CS,36,train
607.5401306152344,2,4,5,3,1,0,E+,1,5,2,400,600,250.0,5,D06CS,37,train
207.42487907409668,2,4,5,3,1,0,E+,1,0,5,400,600,250.0,0,D06CS,38,train
175.50921440124512,2,4,5,3,1,0,E+,1,5,2,400,600,250.0,5,D06CS,39,train
223.4959602355957,2,4,5,3,1,0,E+,1,1,4,400,600,250.0,1,D06CS,40,train
303.4961223602295,2,4,5,3,1,0,E+,0,3,3,400,600,250.0,2,D06CS,41,train
367.5370216369629,2,4,5,3,1,0,E+,1,4,1,400,600,250.0,4,D06CS,42,train
447.45612144470215,2,4,5,3,1,0,E+,1,2,0,400,600,250.0,2,D06CS,43,train
207.4878215789795,2,4,5,3,1,0,E+,1,1,4,400,600,250.0,1,D06CS,44,train
927.5250434875488,2,4,5,3,1,0,E+,1,4,1,400,600,250.0,4,D06CS,45,train
223.46091270446777,2,4,5,3,1,0,E+,1,0,5,400,600,250.0,0,D06CS,46,train
79.56886291503906,2,4,5,3,1,0,E+,1,1,4,400,600,250.0,1,D06CS,47,train
127.47502326965332,2,4,5,3,1,0,E+,1,2,0,400,600,250.0,2,D06CS,48,train
271.43287658691406,2,4,5,3,1,0,E+,1,2,0,400,600,250.0,2,D06CS,49,train
511.23595237731934,2,4,5,3,1,0,E+,1,2,0,400,600,250.0,2,D06CS,50,train
351.5009880065918,2,4,5,3,1,0,E+,1,5,2,400,600,250.0,5,D06CS,51,train
303.41506004333496,2,4,5,3,1,0,E+,1,5,2,400,600,250.0,5,D06CS,52,train
383.558988571167,2,4,5,3,1,0,E+,1,1,4,400,600,250.0,1,D06CS,53,train
303.48801612854004,2,4,5,3,1,0,E+,1,0,5,400,600,250.0,0,D06CS,54,train
719.6168899536133,2,4,5,3,1,0,E+,1,1,4,400,600,250.0,1,D06CS,55,train
591.4750099182129,2,4,5,3,1,0,E+,1,3,3,400,600,250.0,3,D06CS,56,train
751.4920234680176,2,4,5,3,1,0,E+,1,1,4,400,600,250.0,1,D06CS,57,train
463.4671211242676,2,4,5,3,1,0,E+,1,5,2,400,600,250.0,5,D06CS,58,train
815.2980804443359,2,4,5,3,1,0,E+,1,5,2,400,600,250.0,5,D06CS,59,train
559.4439506530762,2,4,5,3,1,0,E+,1,2,0,400,600,250.0,2,D06CS,60,train
463.4571075439453,2,4,5,3,1,0,E+,1,5,2,400,600,250.0,5,D06CS,61,train
527.4548530578613,2,4,5,3,1,0,E+,1,2,0,400,600,250.0,2,D06CS,62,train
351.46284103393555,2,4,5,3,1,0,E+,1,3,3,400,600,250.0,3,D06CS,63,train
495.60093879699707,2,4,5,3,1,0,E+,1,2,0,400,600,250.0,2,D06CS,64,train
895.5519199371338,2,4,5,3,1,0,E+,1,4,1,400,600,250.0,4,D06CS,65,train
319.55504417419434,2,4,5,3,1,0,E+,1,5,2,400,600,250.0,5,D06CS,66,train
175.61006546020508,2,4,5,3,1,0,E+,1,0,5,400,600,250.0,0,D06CS,67,train
127.65288352966309,2,4,5,3,1,0,E+,1,1,4,400,600,250.0,1,D06CS,68,train
479.525089263916,2,4,5,3,1,0,E+,1,3,3,400,600,250.0,3,D06CS,69,train
255.21397590637207,2,4,5,3,1,0,E+,1,4,1,400,600,250.0,4,D06CS,70,train
207.50808715820312,2,4,5,3,1,0,E+,1,0,5,400,600,250.0,0,D06CS,71,train
47.547101974487305,2,4,5,3,1,0,E+,1,1,4,400,600,250.0,1,D06CS,72,train
415.50207138061523,2,4,5,3,1,0,E+,1,4,1,400,600,250.0,4,D06CS,73,train
495.53990364074707,2,4,5,3,1,0,E+,0,3,3,400,600,250.0,2,D06CS,74,train
495.5248832702637,2,4,5,3,1,0,E+,1,3,3,400,600,250.0,3,D06CS,75,train
287.45198249816895,2,4,5,3,1,0,E+,1,5,2,400,600,250.0,5,D06CS,76,train
79.58793640136719,2,4,5,3,1,0,E+,1,5,2,400,600,250.0,5,D06CS,77,train
79.53095436096191,2,4,5,3,1,0,E+,1,5,2,400,600,250.0,5,D06CS,78,train
383.5301399230957,2,4,5,3,1,0,E+,1,3,3,400,600,250.0,3,D06CS,79,train
191.5609836578369,2,4,5,3,1,0,E+,1,0,5,400,600,250.0,0,D06CS,80,train
447.53098487854004,2,4,5,3,1,0,E+,1,4,1,400,600,250.0,4,D06CS,81,train
127.59113311767578,2,4,5,3,1,0,E+,1,0,5,400,600,250.0,0,D06CS,82,train
1519.1490650177002,2,4,5,3,1,0,E+,1,1,4,400,600,250.0,1,D06CS,83,train
367.59495735168457,2,4,5,3,1,0,E+,1,4,1,400,600,250.0,4,D06CS,84,train
271.4710235595703,2,4,5,3,1,0,E+,1,2,0,400,600,250.0,2,D06CS,85,train
271.2359428405762,2,4,5,3,1,0,E+,1,1,4,400,600,250.0,1,D06CS,86,train
271.5020179748535,2,4,5,3,1,0,E+,1,3,3,400,600,250.0,3,D06CS,87,train
159.51299667358398,2,4,5,3,1,0,E+,1,3,3,400,600,250.0,3,D06CS,88,train
575.4668712615967,2,4,5,3,1,0,E+,1,2,0,400,600,250.0,2,D06CS,89,train
111.53197288513184,2,4,5,3,1,0,E+,1,0,5,400,600,250.0,0,D06CS,90,train
95.4890251159668,2,4,5,3,1,0,E+,1,0,5,400,600,250.0,0,D06CS,91,train
127.56681442260742,2,4,5,3,1,0,E+,1,5,2,400,600,250.0,5,D06CS,92,train
127.56705284118652,2,4,5,3,1,0,E+,1,1,4,400,600,250.0,1,D06CS,93,train
207.57412910461426,2,4,5,3,1,0,E+,1,0,5,400,600,250.0,0,D06CS,94,train
15.578985214233398,2,4,5,3,1,0,E+,1,0,5,400,600,250.0,0,D06CS,95,train
175.14300346374512,2,4,5,3,1,0,E+,1,5,2,400,600,250.0,5,D06CS,96,train
95.40987014770508,2,4,5,3,1,0,E+,1,1,4,400,600,250.0,1,D06CS,97,train
127.50792503356934,2,4,5,3,1,0,E+,1,2,0,400,600,250.0,2,D06CS,98,train
239.56298828125,2,4,5,3,1,0,E+,1,4,1,400,600,250.0,4,D06CS,99,train
239.5029067993164,2,4,5,3,1,0,E+,1,0,5,400,600,250.0,0,D06CS,100,train
175.63199996948242,2,4,5,3,1,0,E+,1,5,2,400,600,250.0,5,D06CS,101,train
431.52904510498047,2,4,5,3,1,0,E+,1,4,1,400,600,250.0,4,D06CS,102,train
191.25604629516602,2,4,5,3,1,0,E+,1,1,4,400,600,250.0,1,D06CS,103,train
111.5419864654541,2,4,5,3,1,0,E+,1,1,4,400,600,250.0,1,D06CS,104,train
271.18515968322754,2,4,5,3,1,0,E+,1,3,3,400,600,250.0,3,D06CS,105,train
63.58909606933594,2,4,5,3,1,0,E+,1,3,3,400,600,250.0,3,D06CS,106,train
223.43707084655762,2,4,5,3,1,0,E+,1,0,5,400,600,250.0,0,D06CS,107,train
31.603097915649414,2,4,5,3,1,0,E+,1,3,3,400,600,250.0,3,D06CS,108,train
111.54699325561523,2,4,5,3,1,0,E+,1,1,4,400,600,250.0,1,D06CS,109,train
223.58202934265137,2,4,5,3,1,0,E+,0,4,1,400,600,250.0,5,D06CS,110,train
191.6639804840088,2,4,5,3,1,0,E+,1,3,3,400,600,250.0,3,D06CS,111,train
15.472173690795898,2,4,5,3,1,0,E+,1,4,1,400,600,250.0,4,D06CS,112,train
143.57590675354004,2,4,5,3,1,0,E+,1,5,2,400,600,250.0,5,D06CS,113,train
207.65089988708496,2,4,5,3,1,0,E+,0,2,0,400,600,250.0,1,D06CS,114,train
639.427900314331,2,4,5,3,1,0,E+,1,4,1,400,600,250.0,4,D06CS,115,train
319.61894035339355,2,4,5,3,1,0,E+,1,0,5,400,600,250.0,0,D06CS,116,train
271.4509963989258,2,4,5,3,1,0,E+,1,0,5,400,600,250.0,0,D06CS,117,train
239.454984664917,2,4,5,3,1,0,E+,1,5,2,400,600,250.0,5,D06CS,118,train
495.50890922546387,2,4,5,3,1,0,E+,1,4,1,400,600,250.0,4,D06CS,119,train
143.59498023986816,2,4,5,3,1,0,E+,1,1,4,400,600,250.0,1,D06CS,120,train
463.52410316467285,2,4,5,3,1,0,E+,1,3,3,400,600,250.0,3,D06CS,121,train
303.52306365966797,2,4,5,3,1,0,E+,1,5,2,400,600,250.0,5,D06CS,122,train
351.4840602874756,2,4,5,3,1,0,E+,1,3,3,400,600,250.0,3,D06CS,123,train
383.48984718322754,2,4,5,3,1,0,E+,1,4,1,400,600,250.0,4,D06CS,124,train
223.4950065612793,2,4,5,3,1,0,E+,1,3,3,400,600,250.0,3,D06CS,125,train
287.4910831451416,2,4,5,3,1,0,E+,1,1,4,400,600,250.0,1,D06CS,126,train
527.5349617004395,2,4,5,3,1,0,E+,1,4,1,400,600,250.0,4,D06CS,127,train
143.60618591308594,2,4,5,3,1,0,E+,1,0,5,400,600,250.0,0,D06CS,128,train
127.59995460510254,2,4,5,3,1,0,E+,1,0,5,400,600,250.0,0,D06CS,129,train
15.534162521362305,2,4,5,3,1,0,E+,1,1,4,400,600,250.0,1,D06CS,130,train
111.52005195617676,2,4,5,3,1,0,E+,1,0,5,400,600,250.0,0,D06CS,131,train
47.158002853393555,2,4,5,3,1,0,E+,1,1,4,400,600,250.0,1,D06CS,132,train
47.56593704223633,2,4,5,3,1,0,E+,1,0,5,400,600,250.0,0,D06CS,133,train
255.4950714111328,2,4,5,3,1,0,E+,1,5,2,400,600,250.0,5,D06CS,134,train
15.578985214233398,2,4,5,3,1,0,E+,1,5,2,400,600,250.0,5,D06CS,135,train
191.60699844360352,2,4,5,3,1,0,E+,1,0,5,400,600,250.0,0,D06CS,136,train
143.449068069458,2,4,5,3,1,0,E+,1,1,4,400,600,250.0,1,D06CS,137,train
79.60104942321777,2,4,5,3,1,0,E+,1,2,0,400,600,250.0,2,D06CS,138,train
127.53701210021973,2,4,5,3,1,0,E+,1,0,5,400,600,250.0,0,D06CS,139,train
287.51492500305176,2,4,5,3,1,0,E+,1,3,3,400,600,250.0,3,D06CS,140,train
223.60706329345703,2,4,5,3,1,0,E+,1,5,2,400,600,250.0,5,D06CS,141,train
127.63094902038574,2,4,5,3,1,0,E+,1,4,1,400,600,250.0,4,D06CS,142,train
399.45292472839355,2,4,5,3,1,0,E+,1,2,0,400,600,250.0,2,D06CS,143,train
255.45692443847656,2,4,5,3,1,0,E+,1,5,2,400,600,250.0,5,D06CS,144,train
287.3060703277588,2,4,5,3,1,0,E+,1,4,1,400,600,250.0,4,D06CS,145,train
303.5249710083008,2,4,5,3,1,0,E+,1,0,5,400,600,250.0,0,D06CS,146,train
479.5091152191162,2,4,5,3,1,0,E+,1,3,3,400,600,250.0,3,D06CS,147,train
319.5211887359619,2,4,5,3,1,0,E+,1,3,3,400,600,250.0,3,D06CS,148,train
687.5441074371338,2,4,5,3,1,0,E+,1,1,4,400,600,250.0,1,D06CS,149,train
319.4758892059326,2,4,5,3,1,0,E+,1,0,5,400,600,250.0,0,D06CS,150,train
559.5619678497314,2,4,5,3,1,0,E+,1,5,2,400,600,250.0,5,D06CS,151,train
351.517915725708,2,4,5,3,1,0,E+,1,0,5,400,600,250.0,0,D06CS,152,train
319.5338249206543,2,4,5,3,1,0,E+,1,5,2,400,600,250.0,5,D06CS,153,train
559.5200061798096,2,4,5,3,1,0,E+,1,3,3,400,600,250.0,3,D06CS,154,train
415.2398109436035,2,4,5,3,1,0,E+,1,1,4,400,600,250.0,1,D06CS,155,train
287.53185272216797,2,4,5,3,1,0,E+,1,1,4,400,600,250.0,1,D06CS,156,train
351.4869213104248,2,4,5,3,1,0,E+,1,1,4,400,600,250.0,1,D06CS,157,train
367.54298210144043,2,4,5,3,1,0,E+,1,5,2,400,600,250.0,5,D06CS,158,train
591.5219783782959,2,4,5,3,1,0,E+,1,4,1,400,600,250.0,4,D06CS,159,train
447.56197929382324,2,4,5,3,1,0,E+,1,5,2,400,600,250.0,5,D06CS,160,train
591.5360450744629,2,4,5,3,1,0,E+,1,1,4,400,600,250.0,1,D06CS,161,train
671.5500354766846,2,4,5,3,1,0,E+,1,4,1,400,600,250.0,4,D06CS,162,train
575.5538940429688,2,4,5,3,1,0,E+,1,3,3,400,600,250.0,3,D06CS,163,train
543.5731410980225,2,4,5,3,1,0,E+,1,2,0,400,600,250.0,2,D06CS,164,train
463.5460376739502,2,4,5,3,1,0,E+,1,3,3,400,600,250.0,3,D06CS,165,train
239.55321311950684,2,4,5,3,1,0,E+,1,1,4,400,600,250.0,1,D06CS,166,train
479.5699119567871,2,4,5,3,1,0,E+,1,3,3,400,600,250.0,3,D06CS,167,train
287.524938583374,2,4,5,3,1,0,E+,1,3,3,400,600,250.0,3,D06CS,168,train
255.53178787231445,2,4,5,3,1,0,E+,1,0,5,400,600,250.0,0,D06CS,169,train
271.5141773223877,2,4,5,3,1,0,E+,1,0,5,400,600,250.0,0,D06CS,170,train
463.46187591552734,2,4,5,3,1,0,E+,1,3,3,400,600,250.0,3,D06CS,171,train
255.50508499145508,2,4,5,3,1,0,E+,1,0,5,400,600,250.0,0,D06CS,172,train
975.6209850311279,2,4,5,3,1,0,E+,1,4,1,400,600,250.0,4,D06CS,173,train
351.53794288635254,2,4,5,3,1,0,E+,1,5,2,400,600,250.0,5,D06CS,174,train
463.58203887939453,2,4,5,3,1,0,E+,1,2,0,400,600,250.0,2,D06CS,175,train
143.5859203338623,2,4,5,3,1,0,E+,1,0,5,400,600,250.0,0,D06CS,176,train
671.6129779815674,2,4,5,3,1,0,E+,1,4,1,400,600,250.0,4,D06CS,177,train
127.12812423706055,2,4,5,3,1,0,E+,1,4,1,400,600,250.0,4,D06CS,178,train
351.54199600219727,2,4,5,3,1,0,E+,1,4,1,400,600,250.0,4,D06CS,179,train
159.62696075439453,2,4,5,3,1,0,E+,1,4,1,400,600,250.0,4,D06CS,180,train
463.58799934387207,2,4,5,3,1,0,E+,1,2,0,400,600,250.0,2,D06CS,181,train
223.62303733825684,2,4,5,3,1,0,E+,1,1,4,400,600,250.0,1,D06CS,182,train
1423.572063446045,2,4,5,3,1,0,E+,1,0,5,400,600,250.0,0,D06CS,183,train
703.5911083221436,2,4,5,3,1,0,E+,1,5,2,400,600,250.0,5,D06CS,184,train
95.40796279907227,2,4,5,3,1,0,E+,1,1,4,400,600,250.0,1,D06CS,185,train
79.58197593688965,2,4,5,3,1,0,E+,1,2,0,400,600,250.0,2,D06CS,186,train
271.55590057373047,2,4,5,3,1,0,E+,1,0,5,400,600,250.0,0,D06CS,187,train
95.63994407653809,2,4,5,3,1,0,E+,1,1,4,400,600,250.0,1,D06CS,188,train
239.5341396331787,2,4,5,3,1,0,E+,1,5,2,400,600,250.0,5,D06CS,189,train
79.59699630737305,2,4,5,3,1,0,E+,1,5,2,400,600,250.0,5,D06CS,190,train
463.5300636291504,2,4,5,3,1,0,E+,1,4,1,400,600,250.0,4,D06CS,191,train
351.6221046447754,2,4,5,3,1,0,E+,1,3,3,400,600,250.0,3,D06CS,192,train
63.62199783325195,2,4,5,3,1,0,E+,1,0,5,400,600,250.0,0,D06CS,193,train
1119.460105895996,2,4,5,3,1,0,E+,1,1,4,400,600,250.0,1,D06CS,194,train
207.54098892211914,2,4,5,3,1,0,E+,1,5,2,400,600,250.0,5,D06CS,195,train
143.6150074005127,2,4,5,3,1,0,E+,1,1,4,400,600,250.0,1,D06CS,196,train
142.7440643310547,2,4,5,3,1,0,E+,1,1,4,400,600,250.0,1,D06CS,197,train
63.651084899902344,2,4,5,3,1,0,E+,0,1,4,400,600,250.0,0,D06CS,198,train
287.7810001373291,2,4,5,3,1,0,E+,1,2,0,400,600,250.0,2,D06CS,199,train
207.89003372192383,2,4,5,3,1,0,E+,1,0,5,400,600,250.0,0,D06CS,200,train
255.82098960876465,2,4,5,3,1,0,E+,1,5,2,400,600,250.0,5,D06CS,201,train
479.84886169433594,2,4,5,3,1,0,E+,1,2,0,400,600,250.0,2,D06CS,202,train
575.8669376373291,2,4,5,3,1,0,E+,1,4,1,400,600,250.0,4,D06CS,203,train
255.62191009521484,2,4,5,3,1,0,E+,1,4,1,400,600,250.0,4,D06CS,204,train
271.8360424041748,2,4,5,3,1,0,E+,1,0,5,400,600,250.0,0,D06CS,205,train
479.85386848449707,2,4,5,3,1,0,E+,1,4,1,400,600,250.0,4,D06CS,206,train
895.9391117095947,2,4,5,3,1,0,E+,1,3,3,400,600,250.0,3,D06CS,207,train
623.9578723907471,2,4,5,3,1,0,E+,1,5,2,400,600,250.0,5,D06CS,208,train
975.8751392364502,2,4,5,3,1,0,E+,1,4,1,400,600,250.0,4,D06CS,209,train
111.95898056030273,2,4,5,3,1,0,E+,1,4,1,400,600,250.0,4,D06CS,210,train
367.86913871765137,2,4,5,3,1,0,E+,1,3,3,400,600,250.0,3,D06CS,211,train
127.96807289123535,2,4,5,3,1,0,E+,1,4,1,400,600,250.0,4,D06CS,212,train
159.44910049438477,2,4,5,3,1,0,E+,1,4,1,400,600,250.0,4,D06CS,213,train
0.05698204040527344,2,4,5,3,1,0,E+,1,3,3,400,600,250.0,3,D06CS,214,train
239.87293243408203,2,4,5,3,1,0,E+,1,0,5,400,600,250.0,0,D06CS,215,train
0.05602836608886719,2,4,5,3,1,0,E+,1,1,4,400,600,250.0,1,D06CS,216,train
143.94903182983398,2,4,5,3,1,0,E+,1,3,3,400,600,250.0,3,D06CS,217,train
255.91206550598145,2,4,5,3,1,0,E+,1,2,0,400,600,250.0,2,D06CS,218,train
31.985998153686523,2,4,5,3,1,0,E+,0,5,2,400,600,250.0,4,D06CS,219,train
79.99801635742188,2,4,5,3,1,0,E+,1,4,1,400,600,250.0,4,D06CS,220,train
207.4739933013916,2,4,5,3,1,0,E+,1,4,1,400,600,250.0,4,D06CS,221,train
239.96400833129883,2,4,5,3,1,0,E+,1,0,5,400,600,250.0,0,D06CS,222,train
479.8729419708252,2,4,5,3,1,0,E+,1,4,1,400,600,250.0,4,D06CS,223,train
304.0139675140381,2,4,5,3,1,0,E+,1,2,0,400,600,250.0,2,D06CS,224,train
111.96708679199219,2,4,5,3,1,0,E+,1,2,0,400,600,250.0,2,D06CS,225,train
62.90912628173828,2,4,5,3,1,0,E+,1,2,0,400,600,250.0,2,D06CS,226,train
224.00307655334473,2,4,5,3,1,0,E+,1,0,5,400,600,250.0,0,D06CS,227,train
95.68405151367188,2,4,5,3,1,0,E+,1,1,4,400,600,250.0,1,D06CS,228,train
95.62110900878906,2,4,5,3,1,0,E+,1,0,5,400,600,250.0,0,D06CS,229,train
255.82504272460938,2,4,5,3,1,0,E+,1,2,0,400,600,250.0,2,D06CS,230,train
383.9418888092041,2,4,5,3,1,0,E+,1,3,3,400,600,250.0,3,D06CS,231,train
207.7939510345459,2,4,5,3,1,0,E+,1,5,2,400,600,250.0,5,D06CS,232,train
383.9528560638428,2,4,5,3,1,0,E+,1,0,5,400,600,250.0,0,D06CS,233,train
47.67298698425293,2,4,5,3,1,0,E+,1,1,4,400,600,250.0,1,D06CS,234,train
15.61594009399414,2,4,5,3,1,0,E+,1,2,0,400,600,250.0,2,D06CS,235,train
303.5469055175781,2,4,5,3,1,0,E+,1,5,2,400,600,250.0,5,D06CS,236,train
111.60802841186523,2,4,5,3,1,0,E+,1,1,4,400,600,250.0,1,D06CS,237,train
255.53488731384277,2,4,5,3,1,0,E+,1,4,1,400,600,250.0,4,D06CS,238,train
287.48512268066406,2,4,5,3,1,0,E+,1,1,4,400,600,250.0,1,D06CS,239,train
191.60795211791992,2,4,5,3,1,0,E+,1,5,2,400,600,250.0,5,D06CS,240,train
591.5420055389404,2,4,5,3,1,0,E+,1,3,3,400,600,250.0,3,D06CS,241,train
271.30985260009766,2,4,5,3,1,0,E+,1,5,2,400,600,250.0,5,D06CS,242,train
415.54808616638184,2,4,5,3,1,0,E+,1,2,0,400,600,250.0,2,D06CS,243,train
175.63199996948242,2,4,5,3,1,0,E+,1,1,4,400,600,250.0,1,D06CS,244,train
287.62292861938477,2,4,5,3,1,0,E+,1,4,1,400,600,250.0,4,D06CS,245,train
191.61391258239746,2,4,5,3,1,0,E+,1,5,2,400,600,250.0,5,D06CS,246,train
143.61000061035156,2,4,5,3,1,0,E+,1,5,2,400,600,250.0,5,D06CS,247,train
911.5819931030273,2,4,5,3,1,0,E+,1,3,3,400,600,250.0,3,D06CS,248,train
255.49602508544922,2,4,5,3,1,0,E+,1,1,4,400,600,250.0,1,D06CS,249,train
864.7291660308838,2,4,5,3,1,0,E+,1,1,4,0,1000,250.0,1,D06CS,250,test
880.7640075683594,2,4,5,3,1,0,E+,1,4,1,0,1000,250.0,4,D06CS,251,test
784.8498821258545,2,4,5,3,1,0,E+,1,1,4,0,1000,250.0,1,D06CS,252,test
720.7210063934326,2,4,5,3,1,0,E+,1,4,1,0,1000,250.0,4,D06CS,253,test
560.8410835266113,2,4,5,3,1,0,E+,1,1,4,0,1000,250.0,1,D06CS,254,test
640.7980918884277,2,4,5,3,1,0,E+,1,4,1,0,1000,250.0,4,D06CS,255,test
672.8060245513916,2,4,5,3,1,0,E+,1,3,3,0,1000,250.0,3,D06CS,256,test
688.805103302002,2,4,5,3,1,0,E+,1,4,1,0,1000,250.0,4,D06CS,257,test
512.8180980682373,2,4,5,3,1,0,E+,1,4,1,0,1000,250.0,4,D06CS,258,test
656.8429470062256,2,4,5,3,1,0,E+,1,3,3,0,1000,250.0,3,D06CS,259,test
480.75008392333984,2,4,5,3,1,0,E+,1,3,3,0,1000,250.0,3,D06CS,260,test
528.8388729095459,2,4,5,3,1,0,E+,1,1,4,0,1000,250.0,1,D06CS,261,test
576.833963394165,2,4,5,3,1,0,E+,1,4,1,0,1000,250.0,4,D06CS,262,test
928.8041591644287,2,4,5,3,1,0,E+,1,2,0,0,1000,250.0,2,D06CS,263,test
608.8411808013916,2,4,5,3,1,0,E+,1,5,2,0,1000,250.0,5,D06CS,264,test
592.742919921875,2,4,5,3,1,0,E+,1,3,3,0,1000,250.0,3,D06CS,265,test
576.8070220947266,2,4,5,3,1,0,E+,1,5,2,0,1000,250.0,5,D06CS,266,test
1008.8629722595215,2,4,5,3,1,0,E+,1,0,5,0,1000,250.0,0,D06CS,267,test
640.8169269561768,2,4,5,3,1,0,E+,1,3,3,0,1000,250.0,3,D06CS,268,test
1328.7179470062256,2,4,5,3,1,0,E+,1,1,4,0,1000,250.0,1,D06CS,269,test
768.834114074707,2,4,5,3,1,0,E+,1,3,3,0,1000,250.0,3,D06CS,270,test
656.8021774291992,2,4,5,3,1,0,E+,1,0,5,0,1000,250.0,0,D06CS,271,test
608.8390350341797,2,4,5,3,1,0,E+,1,3,3,0,1000,250.0,3,D06CS,272,test
496.83594703674316,2,4,5,3,1,0,E+,1,4,1,0,1000,250.0,4,D06CS,273,test
528.709888458252,2,4,5,3,1,0,E+,1,4,1,0,1000,250.0,4,D06CS,274,test
528.843879699707,2,4,5,3,1,0,E+,1,0,5,0,1000,250.0,0,D06CS,275,test
736.8760108947754,2,4,5,3,1,0,E+,1,2,0,0,1000,250.0,2,D06CS,276,test
752.8328895568848,2,4,5,3,1,0,E+,1,2,0,0,1000,250.0,2,D06CS,277,test
576.8280029296875,2,4,5,3,1,0,E+,1,0,5,0,1000,250.0,0,D06CS,278,test
592.8390026092529,2,4,5,3,1,0,E+,1,1,4,0,1000,250.0,1,D06CS,279,test
1232.7110767364502,2,4,5,3,1,0,E+,1,2,0,0,1000,250.0,2,D06CS,280,test
736.7990016937256,2,4,5,3,1,0,E+,1,4,1,0,1000,250.0,4,D06CS,281,test
640.8021450042725,2,4,5,3,1,0,E+,1,1,4,0,1000,250.0,1,D06CS,282,test
624.7920989990234,2,4,5,3,1,0,E+,1,1,4,0,1000,250.0,1,D06CS,283,test
592.7581787109375,2,4,5,3,1,0,E+,1,4,1,0,1000,250.0,4,D06CS,284,test
976.8729209899902,2,4,5,3,1,0,E+,1,2,0,0,1000,250.0,2,D06CS,285,test
560.8639717102051,2,4,5,3,1,0,E+,1,0,5,0,1000,250.0,0,D06CS,286,test
672.7149486541748,2,4,5,3,1,0,E+,1,5,2,0,1000,250.0,5,D06CS,287,test
608.4580421447754,2,4,5,3,1,0,E+,1,5,2,0,1000,250.0,5,D06CS,288,test
608.7570190429688,2,4,5,3,1,0,E+,1,1,4,0,1000,250.0,1,D06CS,289,test
720.8468914031982,2,4,5,3,1,0,E+,1,5,2,0,1000,250.0,5,D06CS,290,test
656.8739414215088,2,4,5,3,1,0,E+,1,4,1,0,1000,250.0,4,D06CS,291,test
832.8588008880615,2,4,5,3,1,0,E+,1,2,0,0,1000,250.0,2,D06CS,292,test
672.8098392486572,2,4,5,3,1,0,E+,1,3,3,0,1000,250.0,3,D06CS,293,test
576.8499374389648,2,4,5,3,1,0,E+,1,3,3,0,1000,250.0,3,D06CS,294,test
592.8411483764648,2,4,5,3,1,0,E+,1,4,1,0,1000,250.0,4,D06CS,295,test
960.8428478240967,2,4,5,3,1,0,E+,0,1,4,0,1000,250.0,2,D06CS,296,test
544.8558330535889,2,4,5,3,1,0,E+,1,1,4,0,1000,250.0,1,D06CS,297,test
576.6849517822266,2,4,5,3,1,0,E+,1,2,0,0,1000,250.0,2,D06CS,298,test
656.8331718444824,2,4,5,3,1,0,E+,1,1,4,0,1000,250.0,1,D06CS,299,test
528.8369655609131,2,4,5,3,1,0,E+,1,2,0,0,1000,250.0,2,D06CS,300,test
432.82198905944824,2,4,5,3,1,0,E+,1,2,0,0,1000,250.0,2,D06CS,301,test
608.7329387664795,2,4,5,3,1,0,E+,1,4,1,0,1000,250.0,4,D06CS,302,test
624.8781681060791,2,4,5,3,1,0,E+,1,3,3,0,1000,250.0,3,D06CS,303,test
416.84603691101074,2,4,5,3,1,0,E+,1,3,3,0,1000,250.0,3,D06CS,304,test
576.8318176269531,2,4,5,3,1,0,E+,1,4,1,0,1000,250.0,4,D06CS,305,test
608.767032623291,2,4,5,3,1,0,E+,1,5,2,0,1000,250.0,5,D06CS,306,test
768.8639163970947,2,4,5,3,1,0,E+,1,0,5,0,1000,250.0,0,D06CS,307,test
576.8628120422363,2,4,5,3,1,0,E+,1,1,4,0,1000,250.0,1,D06CS,308,test
608.8261604309082,2,4,5,3,1,0,E+,1,3,3,0,1000,250.0,3,D06CS,309,test
576.866865158081,2,4,5,3,1,0,E+,1,4,1,0,1000,250.0,4,D06CS,310,test
416.84484481811523,2,4,5,3,1,0,E+,0,5,2,0,1000,250.0,4,D06CS,311,test
576.725959777832,2,4,5,3,1,0,E+,1,0,5,0,1000,250.0,0,D06CS,312,test
624.7949600219727,2,4,5,3,1,0,E+,1,4,1,0,1000,250.0,4,D06CS,313,test
656.8799018859863,2,4,5,3,1,0,E+,1,0,5,0,1000,250.0,0,D06CS,314,test
624.6790885925293,2,4,5,3,1,0,E+,1,5,2,0,1000,250.0,5,D06CS,315,test
624.8300075531006,2,4,5,3,1,0,E+,1,4,1,0,1000,250.0,4,D06CS,316,test
864.8810386657715,2,4,5,3,1,0,E+,0,1,4,0,1000,250.0,2,D06CS,317,test
672.6617813110352,2,4,5,3,1,0,E+,1,4,1,0,1000,250.0,4,D06CS,318,test
848.8428592681885,2,4,5,3,1,0,E+,1,5,2,0,1000,250.0,5,D06CS,319,test
816.7290687561035,2,4,5,3,1,0,E+,1,0,5,0,1000,250.0,0,D06CS,320,test
688.8320446014404,2,4,5,3,1,0,E+,1,3,3,0,1000,250.0,3,D06CS,321,test
688.8558864593506,2,4,5,3,1,0,E+,1,3,3,0,1000,250.0,3,D06CS,322,test
656.8360328674316,2,4,5,3,1,0,E+,1,1,4,0,1000,250.0,1,D06CS,323,test
624.5589256286621,2,4,5,3,1,0,E+,1,4,1,0,1000,250.0,4,D06CS,324,test
480.82995414733887,2,4,5,3,1,0,E+,1,4,1,0,1000,250.0,4,D06CS,325,test
640.6681537628174,2,4,5,3,1,0,E+,1,5,2,0,1000,250.0,5,D06CS,326,test
576.8461227416992,2,4,5,3,1,0,E+,1,3,3,0,1000,250.0,3,D06CS,327,test
1152.7152061462402,2,4,5,3,1,0,E+,1,2,0,0,1000,250.0,2,D06CS,328,test
560.7478618621826,2,4,5,3,1,0,E+,1,4,1,0,1000,250.0,4,D06CS,329,test
448.8348960876465,2,4,5,3,1,0,E+,1,5,2,0,1000,250.0,5,D06CS,330,test
576.8001079559326,2,4,5,3,1,0,E+,1,3,3,0,1000,250.0,3,D06CS,331,test
480.8499813079834,2,4,5,3,1,0,E+,1,3,3,0,1000,250.0,3,D06CS,332,test
640.8450603485107,2,4,5,3,1,0,E+,1,2,0,0,1000,250.0,2,D06CS,333,test
608.8380813598633,2,4,5,3,1,0,E+,1,3,3,0,1000,250.0,3,D06CS,334,test
544.8348522186279,2,4,5,3,1,0,E+,1,4,1,0,1000,250.0,4,D06CS,335,test
592.8840637207031,2,4,5,3,1,0,E+,1,0,5,0,1000,250.0,0,D06CS,336,test
592.8909778594971,2,4,5,3,1,0,E+,1,5,2,0,1000,250.0,5,D06CS,337,test
416.76878929138184,2,4,5,3,1,0,E+,1,5,2,0,1000,250.0,5,D06CS,338,test
624.8269081115723,2,4,5,3,1,0,E+,1,4,1,0,1000,250.0,4,D06CS,339,test
656.6400527954102,2,4,5,3,1,0,E+,1,5,2,0,1000,250.0,5,D06CS,340,test
496.80280685424805,2,4,5,3,1,0,E+,1,0,5,0,1000,250.0,0,D06CS,341,test
624.7639656066895,2,4,5,3,1,0,E+,1,0,5,0,1000,250.0,0,D06CS,342,test
848.8340377807617,2,4,5,3,1,0,E+,1,3,3,0,1000,250.0,3,D06CS,343,test
752.8030872344971,2,4,5,3,1,0,E+,1,2,0,0,1000,250.0,2,D06CS,344,test
656.7850112915039,2,4,5,3,1,0,E+,1,2,0,0,1000,250.0,2,D06CS,345,test
512.8068923950195,2,4,5,3,1,0,E+,0,0,5,0,1000,250.0,2,D06CS,346,test
1200.782060623169,2,4,5,3,1,0,E+,1,1,4,0,1000,250.0,1,D06CS,347,test
624.7870922088623,2,4,5,3,1,0,E+,1,5,2,0,1000,250.0,5,D06CS,348,test
848.8190174102783,2,4,5,3,1,0,E+,1,1,4,0,1000,250.0,1,D06CS,349,test
704.6902179718018,2,4,5,3,1,0,E+,1,4,1,0,1000,250.0,4,D06CS,350,test
832.8421115875244,2,4,5,3,1,0,E+,1,4,1,0,1000,250.0,4,D06CS,351,test
848.7730026245117,2,4,5,3,1,0,E+,1,3,3,0,1000,250.0,3,D06CS,352,test
832.7200412750244,2,4,5,3,1,0,E+,1,0,5,0,1000,250.0,0,D06CS,353,test
640.7558917999268,2,4,5,3,1,0,E+,1,1,4,0,1000,250.0,1,D06CS,354,test
1296.679973602295,2,4,5,3,1,0,E+,1,2,0,0,1000,250.0,2,D06CS,355,test
672.8708744049072,2,4,5,3,1,0,E+,1,2,0,0,1000,250.0,2,D06CS,356,test
752.8829574584961,2,4,5,3,1,0,E+,1,3,3,0,1000,250.0,3,D06CS,357,test
976.8900871276855,2,4,5,3,1,0,E+,1,2,0,0,1000,250.0,2,D06CS,358,test
672.7039813995361,2,4,5,3,1,0,E+,1,5,2,0,1000,250.0,5,D06CS,359,test
704.827070236206,2,4,5,3,1,0,E+,1,4,1,0,1000,250.0,4,D06CS,360,test
656.8009853363037,2,4,5,3,1,0,E+,1,1,4,0,1000,250.0,1,D06CS,361,test
784.804105758667,2,4,5,3,1,0,E+,1,0,5,0,1000,250.0,0,D06CS,362,test
960.8991146087646,2,4,5,3,1,0,E+,1,0,5,0,1000,250.0,0,D06CS,363,test
1184.8750114440918,2,4,5,3,1,0,E+,1,1,4,0,1000,250.0,1,D06CS,364,test
720.8540439605713,2,4,5,3,1,0,E+,1,2,0,0,1000,250.0,2,D06CS,365,test
785.2368354797363,2,4,5,3,1,0,E+,1,3,3,0,1000,250.0,3,D06CS,366,test
737.105131149292,2,4,5,3,1,0,E+,1,1,4,0,1000,250.0,1,D06CS,367,test
705.1820755004883,2,4,5,3,1,0,E+,1,0,5,0,1000,250.0,0,D06CS,368,test
785.167932510376,2,4,5,3,1,0,E+,1,5,2,0,1000,250.0,5,D06CS,369,test
1041.2859916687012,2,4,5,3,1,0,E+,1,2,0,0,1000,250.0,2,D06CS,370,test
641.2250995635986,2,4,5,3,1,0,E+,1,1,4,0,1000,250.0,1,D06CS,371,test
721.0819721221924,2,4,5,3,1,0,E+,1,5,2,0,1000,250.0,5,D06CS,372,test
801.2130260467529,2,4,5,3,1,0,E+,1,3,3,0,1000,250.0,3,D06CS,373,test
577.2030353546143,2,4,5,3,1,0,E+,1,1,4,0,1000,250.0,1,D06CS,374,test
769.071102142334,2,4,5,3,1,0,E+,1,1,4,0,1000,250.0,1,D06CS,375,test
625.2131462097168,2,4,5,3,1,0,E+,1,1,4,0,1000,250.0,1,D06CS,376,test
577.131986618042,2,4,5,3,1,0,E+,1,5,2,0,1000,250.0,5,D06CS,377,test
545.2258586883545,2,4,5,3,1,0,E+,1,5,2,0,1000,250.0,5,D06CS,378,test
817.2459602355957,2,4,5,3,1,0,E+,1,2,0,0,1000,250.0,2,D06CS,379,test
592.9160118103027,2,4,5,3,1,0,E+,1,0,5,0,1000,250.0,0,D06CS,380,test
577.146053314209,2,4,5,3,1,0,E+,1,5,2,0,1000,250.0,5,D06CS,381,test
657.2458744049072,2,4,5,3,1,0,E+,1,0,5,0,1000,250.0,0,D06CS,382,test
769.1550254821777,2,4,5,3,1,0,E+,1,2,0,0,1000,250.0,2,D06CS,383,test
657.203197479248,2,4,5,3,1,0,E+,1,1,4,0,1000,250.0,1,D06CS,384,test
817.1968460083008,2,4,5,3,1,0,E+,1,2,0,0,1000,250.0,2,D06CS,385,test
657.1760177612305,2,4,5,3,1,0,E+,1,4,1,0,1000,250.0,4,D06CS,386,test
641.1991119384766,2,4,5,3,1,0,E+,1,0,5,0,1000,250.0,0,D06CS,387,test
769.0529823303223,2,4,5,3,1,0,E+,1,1,4,0,1000,250.0,1,D06CS,388,test
721.0850715637207,2,4,5,3,1,0,E+,1,2,0,0,1000,250.0,2,D06CS,389,test
625.2219676971436,2,4,5,3,1,0,E+,1,4,1,0,1000,250.0,4,D06CS,390,test
817.2030448913574,2,4,5,3,1,0,E+,1,1,4,0,1000,250.0,1,D06CS,391,test
593.0149555206299,2,4,5,3,1,0,E+,1,5,2,0,1000,250.0,5,D06CS,392,test
593.040943145752,2,4,5,3,1,0,E+,1,0,5,0,1000,250.0,0,D06CS,393,test
609.0569496154785,2,4,5,3,1,0,E+,1,5,2,0,1000,250.0,5,D06CS,394,test
689.0840530395508,2,4,5,3,1,0,E+,1,4,1,0,1000,250.0,4,D06CS,395,test
561.0308647155762,2,4,5,3,1,0,E+,1,5,2,0,1000,250.0,5,D06CS,396,test
737.1900081634521,2,4,5,3,1,0,E+,1,3,3,0,1000,250.0,3,D06CS,397,test
865.0970458984375,2,4,5,3,1,0,E+,1,2,0,0,1000,250.0,2,D06CS,398,test
609.03000831604,2,4,5,3,1,0,E+,1,5,2,0,1000,250.0,5,D06CS,399,test
609.1210842132568,2,4,5,3,1,0,E+,1,5,2,0,1000,250.0,5,D06CS,400,test
721.2200164794922,2,4,5,3,1,0,E+,1,3,3,0,1000,250.0,3,D06CS,401,test
689.2127990722656,2,4,5,3,1,0,E+,1,0,5,0,1000,250.0,0,D06CS,402,test
593.1739807128906,2,4,5,3,1,0,E+,1,1,4,0,1000,250.0,1,D06CS,403,test
657.2740077972412,2,4,5,3,1,0,E+,1,5,2,0,1000,250.0,5,D06CS,404,test
689.1889572143555,2,4,5,3,1,0,E+,1,1,4,0,1000,250.0,1,D06CS,405,test
641.0269737243652,2,4,5,3,1,0,E+,1,0,5,0,1000,250.0,0,D06CS,406,test
593.1329727172852,2,4,5,3,1,0,E+,1,5,2,0,1000,250.0,5,D06CS,407,test
577.1591663360596,2,4,5,3,1,0,E+,1,5,2,0,1000,250.0,5,D06CS,408,test
673.1469631195068,2,4,5,3,1,0,E+,0,2,0,0,1000,250.0,1,D06CS,409,test
753.1070709228516,2,4,5,3,1,0,E+,1,0,5,0,1000,250.0,0,D06CS,410,test
689.0239715576172,2,4,5,3,1,0,E+,1,4,1,0,1000,250.0,4,D06CS,411,test
897.2878456115723,2,4,5,3,1,0,E+,1,4,1,0,1000,250.0,4,D06CS,412,test
769.1020965576172,2,4,5,3,1,0,E+,1,0,5,0,1000,250.0,0,D06CS,413,test
672.996997833252,2,4,5,3,1,0,E+,1,4,1,0,1000,250.0,4,D06CS,414,test
673.2079982757568,2,4,5,3,1,0,E+,1,0,5,0,1000,250.0,0,D06CS,415,test
1777.1120071411133,2,4,5,3,1,0,E+,1,1,4,0,1000,250.0,1,D06CS,416,test
609.2178821563721,2,4,5,3,1,0,E+,1,4,1,0,1000,250.0,4,D06CS,417,test
897.2079753875732,2,4,5,3,1,0,E+,0,3,3,0,1000,250.0,4,D06CS,418,test
561.1090660095215,2,4,5,3,1,0,E+,1,5,2,0,1000,250.0,5,D06CS,419,test
561.1450672149658,2,4,5,3,1,0,E+,1,5,2,0,1000,250.0,5,D06CS,420,test
673.037052154541,2,4,5,3,1,0,E+,1,1,4,0,1000,250.0,1,D06CS,421,test
545.1722145080566,2,4,5,3,1,0,E+,1,1,4,0,1000,250.0,1,D06CS,422,test
673.2101440429688,2,4,5,3,1,0,E+,1,3,3,0,1000,250.0,3,D06CS,423,test
737.1699810028076,2,4,5,3,1,0,E+,1,5,2,0,1000,250.0,5,D06CS,424,test
673.1500625610352,2,4,5,3,1,0,E+,1,4,1,0,1000,250.0,4,D06CS,425,test
1057.2001934051514,2,4,5,3,1,0,E+,1,2,0,0,1000,250.0,2,D06CS,426,test
753.2570362091064,2,4,5,3,1,0,E+,1,4,1,0,1000,250.0,4,D06CS,427,test
657.1910381317139,2,4,5,3,1,0,E+,1,3,3,0,1000,250.0,3,D06CS,428,test
769.1998481750488,2,4,5,3,1,0,E+,1,2,0,0,1000,250.0,2,D06CS,429,test
737.2169494628906,2,4,5,3,1,0,E+,1,2,0,0,1000,250.0,2,D06CS,430,test
993.1859970092773,2,4,5,3,1,0,E+,1,1,4,0,1000,250.0,1,D06CS,431,test
753.2258033752441,2,4,5,3,1,0,E+,1,1,4,0,1000,250.0,1,D06CS,432,test
689.2380714416504,2,4,5,3,1,0,E+,1,5,2,0,1000,250.0,5,D06CS,433,test
881.2499046325684,2,4,5,3,1,0,E+,1,1,4,0,1000,250.0,1,D06CS,434,test
545.0930595397949,2,4,5,3,1,0,E+,1,5,2,0,1000,250.0,5,D06CS,435,test
897.2549438476562,2,4,5,3,1,0,E+,1,0,5,0,1000,250.0,0,D06CS,436,test
641.1721706390381,2,4,5,3,1,0,E+,1,5,2,0,1000,250.0,5,D06CS,437,test
801.1620044708252,2,4,5,3,1,0,E+,1,3,3,0,1000,250.0,3,D06CS,438,test
625.2012252807617,2,4,5,3,1,0,E+,1,5,2,0,1000,250.0,5,D06CS,439,test
593.2109355926514,2,4,5,3,1,0,E+,1,4,1,0,1000,250.0,4,D06CS,440,test
705.2068710327148,2,4,5,3,1,0,E+,1,1,4,0,1000,250.0,1,D06CS,441,test
721.2250232696533,2,4,5,3,1,0,E+,1,3,3,0,1000,250.0,3,D06CS,442,test
1041.2180423736572,2,4,5,3,1,0,E+,1,1,4,0,1000,250.0,1,D06CS,443,test
608.9849472045898,2,4,5,3,1,0,E+,1,5,2,0,1000,250.0,5,D06CS,444,test
593.1029319763184,2,4,5,3,1,0,E+,1,5,2,0,1000,250.0,5,D06CS,445,test
593.2109355926514,2,4,5,3,1,0,E+,1,4,1,0,1000,250.0,4,D06CS,446,test
769.2148685455322,2,4,5,3,1,0,E+,1,2,0,0,1000,250.0,2,D06CS,447,test
561.2070560455322,2,4,5,3,1,0,E+,1,5,2,0,1000,250.0,5,D06CS,448,test
560.9848499298096,2,4,5,3,1,0,E+,1,0,5,0,1000,250.0,0,D06CS,449,test
689.021110534668,2,4,5,3,1,0,E+,1,2,0,0,1000,250.0,2,D06CS,450,test
577.2171020507812,2,4,5,3,1,0,E+,1,5,2,0,1000,250.0,5,D06CS,451,test
481.2431335449219,2,4,5,3,1,0,E+,1,5,2,0,1000,250.0,5,D06CS,452,test
449.25808906555176,2,4,5,3,1,0,E+,1,5,2,0,1000,250.0,5,D06CS,453,test
657.2189331054688,2,4,5,3,1,0,E+,1,2,0,0,1000,250.0,2,D06CS,454,test
545.1691150665283,2,4,5,3,1,0,E+,1,5,2,0,1000,250.0,5,D06CS,455,test
529.249906539917,2,4,5,3,1,0,E+,1,5,2,0,1000,250.0,5,D06CS,456,test
926.2030124664307,2,4,5,3,1,0,E+,1,1,4,0,1000,250.0,1,D06CS,457,test
945.2500343322754,2,4,5,3,1,0,E+,1,2,0,0,1000,250.0,2,D06CS,458,test
689.202070236206,2,4,5,3,1,0,E+,1,3,3,0,1000,250.0,3,D06CS,459,test
1777.1198749542236,2,4,5,3,1,0,E+,1,5,2,0,1000,250.0,5,D06CS,460,test
593.1499004364014,2,4,5,3,1,0,E+,1,0,5,0,1000,250.0,0,D06CS,461,test
577.1129131317139,2,4,5,3,1,0,E+,1,0,5,0,1000,250.0,0,D06CS,462,test
609.1940402984619,2,4,5,3,1,0,E+,1,3,3,0,1000,250.0,3,D06CS,463,test
545.1958179473877,2,4,5,3,1,0,E+,1,3,3,0,1000,250.0,3,D06CS,464,test
561.1832141876221,2,4,5,3,1,0,E+,1,5,2,0,1000,250.0,5,D06CS,465,test
561.1798763275146,2,4,5,3,1,0,E+,1,4,1,0,1000,250.0,4,D06CS,466,test
721.2169170379639,2,4,5,3,1,0,E+,1,3,3,0,1000,250.0,3,D06CS,467,test
1025.1538753509521,2,4,5,3,1,0,E+,1,1,4,0,1000,250.0,1,D06CS,468,test
769.2289352416992,2,4,5,3,1,0,E+,1,1,4,0,1000,250.0,1,D06CS,469,test
849.2171764373779,2,4,5,3,1,0,E+,1,0,5,0,1000,250.0,0,D06CS,470,test
673.1469631195068,2,4,5,3,1,0,E+,1,4,1,0,1000,250.0,4,D06CS,471,test
497.23100662231445,2,4,5,3,1,0,E+,1,4,1,0,1000,250.0,4,D06CS,472,test
657.1688652038574,2,4,5,3,1,0,E+,1,1,4,0,1000,250.0,1,D06CS,473,test
673.2161045074463,2,4,5,3,1,0,E+,1,3,3,0,1000,250.0,3,D06CS,474,test
545.172929763794,2,4,5,3,1,0,E+,1,5,2,0,1000,250.0,5,D06CS,475,test
529.2181968688965,2,4,5,3,1,0,E+,1,4,1,0,1000,250.0,4,D06CS,476,test
593.2350158691406,2,4,5,3,1,0,E+,1,3,3,0,1000,250.0,3,D06CS,477,test
689.1870498657227,2,4,5,3,1,0,E+,1,4,1,0,1000,250.0,4,D06CS,478,test
641.1352157592773,2,4,5,3,1,0,E+,1,1,4,0,1000,250.0,1,D06CS,479,test
561.244010925293,2,4,5,3,1,0,E+,1,0,5,0,1000,250.0,0,D06CS,480,test
689.1648769378662,2,4,5,3,1,0,E+,1,1,4,0,1000,250.0,1,D06CS,481,test
497.20191955566406,2,4,5,3,1,0,E+,1,1,4,0,1000,250.0,1,D06CS,482,test
545.2370643615723,2,4,5,3,1,0,E+,1,4,1,0,1000,250.0,4,D06CS,483,test
625.277042388916,2,4,5,3,1,0,E+,1,3,3,0,1000,250.0,3,D06CS,484,test
496.95396423339844,2,4,5,3,1,0,E+,1,4,1,0,1000,250.0,4,D06CS,485,test
625.236988067627,2,4,5,3,1,0,E+,1,3,3,0,1000,250.0,3,D06CS,486,test
561.1588954925537,2,4,5,3,1,0,E+,1,1,4,0,1000,250.0,1,D06CS,487,test
817.2521591186523,2,4,5,3,1,0,E+,1,2,0,0,1000,250.0,2,D06CS,488,test
673.0799674987793,2,4,5,3,1,0,E+,1,5,2,0,1000,250.0,5,D06CS,489,test
592.9319858551025,2,4,5,3,1,0,E+,1,2,0,0,1000,250.0,2,D06CS,490,test
689.2149448394775,2,4,5,3,1,0,E+,1,0,5,0,1000,250.0,0,D06CS,491,test
673.0949878692627,2,4,5,3,1,0,E+,1,0,5,0,1000,250.0,0,D06CS,492,test
593.1870937347412,2,4,5,3,1,0,E+,1,5,2,0,1000,250.0,5,D06CS,493,test
593.055009841919,2,4,5,3,1,0,E+,1,2,0,0,1000,250.0,2,D06CS,494,test
737.0200157165527,2,4,5,3,1,0,E+,1,1,4,0,1000,250.0,1,D06CS,495,test
673.2580661773682,2,4,5,3,1,0,E+,1,0,5,0,1000,250.0,0,D06CS,496,test
657.102108001709,2,4,5,3,1,0,E+,1,1,4,0,1000,250.0,1,D06CS,497,test
609.1959476470947,2,4,5,3,1,0,E+,1,0,5,0,1000,250.0,0,D06CS,498,test
2113.0261421203613,2,4,5,3,1,0,E+,1,5,2,0,1000,250.0,5,D06CS,499,test
