RT,SRmap_0,SRmap_1,SRmap_2,SRmap_3,SRmap_4,SRmap_5,condition,correct,correct_response,curstim,ms-precue,ms-prestimblank,ntrials,response,subject,trial,type
9296.335935592651,2,0,5,3,1,4,H-,1,2,0,0,1000,250.0,2,D02EL,0,train
3920.4580783843994,2,0,5,3,1,4,H-,1,3,3,0,1000,250.0,3,D02EL,1,train
1600.525140762329,2,0,5,3,1,4,H-,1,0,1,0,1000,250.0,0,D02EL,2,train
1760.502815246582,2,0,5,3,1,4,H-,1,3,3,0,1000,250.0,3,D02EL,3,train
1664.5469665527344,2,0,5,3,1,4,H-,1,1,4,0,1000,250.0,1,D02EL,4,train
1520.6379890441895,2,0,5,3,1,4,H-,1,1,4,0,1000,250.0,1,D02EL,5,train
800.6398677825928,2,0,5,3,1,4,H-,1,1,4,0,1000,250.0,1,D02EL,6,train
1328.629970550537,2,0,5,3,1,4,H-,1,4,5,0,1000,250.0,4,D02EL,7,train
976.5591621398926,2,0,5,3,1,4,H-,1,0,1,0,1000,250.0,0,D02EL,8,train
1376.716136932373,2,0,5,3,1,4,H-,1,4,5,0,1000,250.0,4,D02EL,9,train
1120.7859516143799,2,0,5,3,1,4,H-,1,2,0,0,1000,250.0,2,D02EL,10,train
1200.706958770752,2,0,5,3,1,4,H-,1,2,0,0,1000,250.0,2,D02EL,11,train
768.730878829956,2,0,5,3,1,4,H-,1,0,1,0,1000,250.0,0,D02EL,12,train
1120.751142501831,2,0,5,3,1,4,H-,1,3,3,0,1000,250.0,3,D02EL,13,train
720.7839488983154,2,0,5,3,1,4,H-,1,0,1,0,1000,250.0,0,D02EL,14,train
464.6952152252197,2,0,5,3,1,4,H-,1,0,1,0,1000,250.0,0,D02EL,15,train
1152.6319980621338,2,0,5,3,1,4,H-,1,2,0,0,1000,250.0,2,D02EL,16,train
1120.959997177124,2,0,5,3,1,4,H-,1,4,5,0,1000,250.0,4,D02EL,17,train
768.7039375305176,2,0,5,3,1,4,H-,1,2,0,0,1000,250.0,2,D02EL,18,train
800.9021282196045,2,0,5,3,1,4,H-,1,5,2,0,1000,250.0,5,D02EL,19,train
736.9279861450195,2,0,5,3,1,4,H-,1,2,0,0,1000,250.0,2,D02EL,20,train
576.8709182739258,2,0,5,3,1,4,H-,1,0,1,0,1000,250.0,0,D02EL,21,train
560.8510971069336,2,0,5,3,1,4,H-,1,0,1,0,1000,250.0,0,D02EL,22,train
448.8708972930908,2,0,5,3,1,4,H-,1,2,0,0,1000,250.0,2,D02EL,23,train
608.9951992034912,2,0,5,3,1,4,H-,1,1,4,0,1000,250.0,1,D02EL,24,train
512.9110813140869,2,0,5,3,1,4,H-,1,0,1,0,1000,250.0,0,D02EL,25,train
384.65118408203125,2,0,5,3,1,4,H-,0,3,3,0,1000,250.0,0,D02EL,26,train
1104.87699508667,2,0,5,3,1,4,H-,1,4,5,0,1000,250.0,4,D02EL,27,train
768.5542106628418,2,0,5,3,1,4,H-,1,5,2,0,1000,250.0,5,D02EL,28,train
1024.857997894287,2,0,5,3,1,4,H-,1,1,4,0,1000,250.0,1,D02EL,29,train
512.5041007995605,2,0,5,3,1,4,H-,1,1,4,0,1000,250.0,1,D02EL,30,train
800.7478713989258,2,0,5,3,1,4,H-,1,5,2,0,1000,250.0,5,D02EL,31,train
656.5401554107666,2,0,5,3,1,4,H-,1,2,0,0,1000,250.0,2,D02EL,32,train
736.6089820861816,2,0,5,3,1,4,H-,1,5,2,0,1000,250.0,5,D02EL,33,train
752.7399063110352,2,0,5,3,1,4,H-,1,0,1,0,1000,250.0,0,D02EL,34,train
608.7241172790527,2,0,5,3,1,4,H-,1,2,0,0,1000,250.0,2,D02EL,35,train
624.7329711914062,2,0,5,3,1,4,H-,1,5,2,0,1000,250.0,5,D02EL,36,train
1328.5679817199707,2,0,5,3,1,4,H-,1,3,3,0,1000,250.0,3,D02EL,37,train
463.74011039733887,2,0,5,3,1,4,H-,1,3,3,0,1000,250.0,3,D02EL,38,train
640.5479907989502,2,0,5,3,1,4,H-,1,2,0,0,1000,250.0,2,D02EL,39,train
560.5909824371338,2,0,5,3,1,4,H-,0,0,1,0,1000,250.0,2,D02EL,40,train
544.625997543335,2,0,5,3,1,4,H-,1,5,2,0,1000,250.0,5,D02EL,41,train
1296.5240478515625,2,0,5,3,1,4,H-,1,2,0,0,1000,250.0,2,D02EL,42,train
560.5919361114502,2,0,5,3,1,4,H-,1,2,0,0,1000,250.0,2,D02EL,43,train
944.645881652832,2,0,5,3,1,4,H-,1,4,5,0,1000,250.0,4,D02EL,44,train
960.7441425323486,2,0,5,3,1,4,H-,1,0,1,0,1000,250.0,0,D02EL,45,train
608.720064163208,2,0,5,3,1,4,H-,1,2,0,0,1000,250.0,2,D02EL,46,train
1008.6479187011719,2,0,5,3,1,4,H-,1,3,3,0,1000,250.0,3,D02EL,47,train
496.5550899505615,2,0,5,3,1,4,H-,1,0,1,0,1000,250.0,0,D02EL,48,train
800.5931377410889,2,0,5,3,1,4,H-,1,5,2,0,1000,250.0,5,D02EL,49,train
1024.6458053588867,2,0,5,3,1,4,H-,1,4,5,0,1000,250.0,4,D02EL,50,train
624.5059967041016,2,0,5,3,1,4,H-,1,0,1,0,1000,250.0,0,D02EL,51,train
688.5499954223633,2,0,5,3,1,4,H-,1,5,2,0,1000,250.0,5,D02EL,52,train
592.7629470825195,2,0,5,3,1,4,H-,1,2,0,0,1000,250.0,2,D02EL,53,train
752.6469230651855,2,0,5,3,1,4,H-,0,3,3,0,1000,250.0,4,D02EL,54,train
880.5739879608154,2,0,5,3,1,4,H-,1,0,1,0,1000,250.0,0,D02EL,55,train
864.5908832550049,2,0,5,3,1,4,H-,1,4,5,0,1000,250.0,4,D02EL,56,train
656.5630435943604,2,0,5,3,1,4,H-,1,3,3,0,1000,250.0,3,D02EL,57,train
752.8951168060303,2,0,5,3,1,4,H-,1,2,0,0,1000,250.0,2,D02EL,58,train
752.6059150695801,2,0,5,3,1,4,H-,1,2,0,0,1000,250.0,2,D02EL,59,train
1088.7479782104492,2,0,5,3,1,4,H-,1,3,3,0,1000,250.0,3,D02EL,60,train
848.6309051513672,2,0,5,3,1,4,H-,1,3,3,0,1000,250.0,3,D02EL,61,train
640.610933303833,2,0,5,3,1,4,H-,1,0,1,0,1000,250.0,0,D02EL,62,train
496.7060089111328,2,0,5,3,1,4,H-,1,0,1,0,1000,250.0,0,D02EL,63,train
640.7239437103271,2,0,5,3,1,4,H-,1,2,0,0,1000,250.0,2,D02EL,64,train
864.7370338439941,2,0,5,3,1,4,H-,1,3,3,0,1000,250.0,3,D02EL,65,train
544.7108745574951,2,0,5,3,1,4,H-,1,3,3,0,1000,250.0,3,D02EL,66,train
720.7009792327881,2,0,5,3,1,4,H-,1,1,4,0,1000,250.0,1,D02EL,67,train
560.6288909912109,2,0,5,3,1,4,H-,1,0,1,0,1000,250.0,0,D02EL,68,train
752.5990009307861,2,0,5,3,1,4,H-,1,1,4,0,1000,250.0,1,D02EL,69,train
512.5219821929932,2,0,5,3,1,4,H-,1,0,1,0,1000,250.0,0,D02EL,70,train
1040.6010150909424,2,0,5,3,1,4,H-,0,3,3,0,1000,250.0,4,D02EL,71,train
688.6100769042969,2,0,5,3,1,4,H-,1,1,4,0,1000,250.0,1,D02EL,72,train
656.743049621582,2,0,5,3,1,4,H-,1,1,4,0,1000,250.0,1,D02EL,73,train
1264.5211219787598,2,0,5,3,1,4,H-,1,3,3,0,1000,250.0,3,D02EL,74,train
512.6640796661377,2,0,5,3,1,4,H-,1,3,3,0,1000,250.0,3,D02EL,75,train
640.4621601104736,2,0,5,3,1,4,H-,1,1,4,0,1000,250.0,1,D02EL,76,train
800.7500171661377,2,0,5,3,1,4,H-,1,3,3,0,1000,250.0,3,D02EL,77,train
1152.595043182373,2,0,5,3,1,4,H-,1,2,0,0,1000,250.0,2,D02EL,78,train
1167.7758693695068,2,0,5,3,1,4,H-,1,4,5,0,1000,250.0,4,D02EL,79,train
1312.5457763671875,2,0,5,3,1,4,H-,1,5,2,0,1000,250.0,5,D02EL,80,train
1008.5420608520508,2,0,5,3,1,4,H-,1,2,0,0,1000,250.0,2,D02EL,81,train
784.5089435577393,2,0,5,3,1,4,H-,1,4,5,0,1000,250.0,4,D02EL,82,train
480.65900802612305,2,0,5,3,1,4,H-,1,4,5,0,1000,250.0,4,D02EL,83,train
464.5800590515137,2,0,5,3,1,4,H-,1,4,5,0,1000,250.0,4,D02EL,84,train
560.6667995452881,2,0,5,3,1,4,H-,1,3,3,0,1000,250.0,3,D02EL,85,train
800.6360530853271,2,0,5,3,1,4,H-,0,2,0,0,1000,250.0,1,D02EL,86,train
624.6011257171631,2,0,5,3,1,4,H-,1,0,1,0,1000,250.0,0,D02EL,87,train
496.9329833984375,2,0,5,3,1,4,H-,1,0,1,0,1000,250.0,0,D02EL,88,train
1280.5368900299072,2,0,5,3,1,4,H-,1,3,3,0,1000,250.0,3,D02EL,89,train
512.5899314880371,2,0,5,3,1,4,H-,1,0,1,0,1000,250.0,0,D02EL,90,train
640.5730247497559,2,0,5,3,1,4,H-,1,3,3,0,1000,250.0,3,D02EL,91,train
1152.6501178741455,2,0,5,3,1,4,H-,1,1,4,0,1000,250.0,1,D02EL,92,train
704.9720287322998,2,0,5,3,1,4,H-,1,3,3,0,1000,250.0,3,D02EL,93,train
1376.7998218536377,2,0,5,3,1,4,H-,1,4,5,0,1000,250.0,4,D02EL,94,train
928.9689064025879,2,0,5,3,1,4,H-,1,5,2,0,1000,250.0,5,D02EL,95,train
1118.6227798461914,2,0,5,3,1,4,H-,1,2,0,0,1000,250.0,2,D02EL,96,train
608.954906463623,2,0,5,3,1,4,H-,1,0,1,0,1000,250.0,0,D02EL,97,train
720.9038734436035,2,0,5,3,1,4,H-,1,4,5,0,1000,250.0,4,D02EL,98,train
448.8677978515625,2,0,5,3,1,4,H-,1,3,3,0,1000,250.0,3,D02EL,99,train
928.8969039916992,2,0,5,3,1,4,H-,1,1,4,0,1000,250.0,1,D02EL,100,train
1168.7290668487549,2,0,5,3,1,4,H-,1,2,0,0,1000,250.0,2,D02EL,101,train
800.5731105804443,2,0,5,3,1,4,H-,1,4,5,0,1000,250.0,4,D02EL,102,train
656.6879749298096,2,0,5,3,1,4,H-,1,0,1,0,1000,250.0,0,D02EL,103,train
912.5640392303467,2,0,5,3,1,4,H-,1,5,2,0,1000,250.0,5,D02EL,104,train
672.6868152618408,2,0,5,3,1,4,H-,1,4,5,0,1000,250.0,4,D02EL,105,train
832.7019214630127,2,0,5,3,1,4,H-,1,1,4,0,1000,250.0,1,D02EL,106,train
928.7002086639404,2,0,5,3,1,4,H-,1,4,5,0,1000,250.0,4,D02EL,107,train
752.5711059570312,2,0,5,3,1,4,H-,1,5,2,0,1000,250.0,5,D02EL,108,train
640.5649185180664,2,0,5,3,1,4,H-,1,0,1,0,1000,250.0,0,D02EL,109,train
1040.6410694122314,2,0,5,3,1,4,H-,1,1,4,0,1000,250.0,1,D02EL,110,train
672.6598739624023,2,0,5,3,1,4,H-,1,5,2,0,1000,250.0,5,D02EL,111,train
1088.7019634246826,2,0,5,3,1,4,H-,1,4,5,0,1000,250.0,4,D02EL,112,train
560.7080459594727,2,0,5,3,1,4,H-,1,5,2,0,1000,250.0,5,D02EL,113,train
784.5909595489502,2,0,5,3,1,4,H-,1,4,5,0,1000,250.0,4,D02EL,114,train
480.6339740753174,2,0,5,3,1,4,H-,1,4,5,0,1000,250.0,4,D02EL,115,train
384.57298278808594,2,0,5,3,1,4,H-,1,4,5,0,1000,250.0,4,D02EL,116,train
736.6290092468262,2,0,5,3,1,4,H-,1,0,1,0,1000,250.0,0,D02EL,117,train
1008.6610317230225,2,0,5,3,1,4,H-,1,2,0,0,1000,250.0,2,D02EL,118,train
944.6690082550049,2,0,5,3,1,4,H-,1,2,0,0,1000,250.0,2,D02EL,119,train
768.4919834136963,2,0,5,3,1,4,H-,1,4,5,0,1000,250.0,4,D02EL,120,train
512.5949382781982,2,0,5,3,1,4,H-,1,4,5,0,1000,250.0,4,D02EL,121,train
720.6161022186279,2,0,5,3,1,4,H-,1,3,3,0,1000,250.0,3,D02EL,122,train
1088.6449813842773,2,0,5,3,1,4,H-,1,1,4,0,1000,250.0,1,D02EL,123,train
1056.6020011901855,2,0,5,3,1,4,H-,1,3,3,0,1000,250.0,3,D02EL,124,train
832.5769901275635,2,0,5,3,1,4,H-,1,2,0,0,1000,250.0,2,D02EL,125,train
1104.6559810638428,2,0,5,3,1,4,H-,1,1,4,0,1000,250.0,1,D02EL,126,train
704.5631408691406,2,0,5,3,1,4,H-,1,0,1,0,1000,250.0,0,D02EL,127,train
1056.5950870513916,2,0,5,3,1,4,H-,1,4,5,0,1000,250.0,4,D02EL,128,train
1168.5302257537842,2,0,5,3,1,4,H-,1,2,0,0,1000,250.0,2,D02EL,129,train
1040.701150894165,2,0,5,3,1,4,H-,1,3,3,0,1000,250.0,3,D02EL,130,train
944.5879459381104,2,0,5,3,1,4,H-,1,5,2,0,1000,250.0,5,D02EL,131,train
992.6490783691406,2,0,5,3,1,4,H-,1,1,4,0,1000,250.0,1,D02EL,132,train
1024.2888927459717,2,0,5,3,1,4,H-,1,3,3,0,1000,250.0,3,D02EL,133,train
1040.4729843139648,2,0,5,3,1,4,H-,1,4,5,0,1000,250.0,4,D02EL,134,train
1152.6331901550293,2,0,5,3,1,4,H-,1,1,4,0,1000,250.0,1,D02EL,135,train
896.6081142425537,2,0,5,3,1,4,H-,1,2,0,0,1000,250.0,2,D02EL,136,train
592.3349857330322,2,0,5,3,1,4,H-,1,5,2,0,1000,250.0,5,D02EL,137,train
912.5630855560303,2,0,5,3,1,4,H-,1,4,5,0,1000,250.0,4,D02EL,138,train
1024.5749950408936,2,0,5,3,1,4,H-,1,2,0,0,1000,250.0,2,D02EL,139,train
928.5309314727783,2,0,5,3,1,4,H-,1,3,3,0,1000,250.0,3,D02EL,140,train
1424.6549606323242,2,0,5,3,1,4,H-,1,1,4,0,1000,250.0,1,D02EL,141,train
864.6020889282227,2,0,5,3,1,4,H-,1,2,0,0,1000,250.0,2,D02EL,142,train
816.6389465332031,2,0,5,3,1,4,H-,1,0,1,0,1000,250.0,0,D02EL,143,train
864.5689487457275,2,0,5,3,1,4,H-,1,1,4,0,1000,250.0,1,D02EL,144,train
1168.67995262146,2,0,5,3,1,4,H-,1,3,3,0,1000,250.0,3,D02EL,145,train
1296.5970039367676,2,0,5,3,1,4,H-,1,5,2,0,1000,250.0,5,D02EL,146,train
816.6289329528809,2,0,5,3,1,4,H-,1,3,3,0,1000,250.0,3,D02EL,147,train
672.7080345153809,2,0,5,3,1,4,H-,1,3,3,0,1000,250.0,3,D02EL,148,train
640.5839920043945,2,0,5,3,1,4,H-,1,3,3,0,1000,250.0,3,D02EL,149,train
784.4109535217285,2,0,5,3,1,4,H-,1,0,1,0,1000,250.0,0,D02EL,150,train
1232.2628498077393,2,0,5,3,1,4,H-,1,5,2,0,1000,250.0,5,D02EL,151,train
848.6630916595459,2,0,5,3,1,4,H-,1,2,0,0,1000,250.0,2,D02EL,152,train
896.6379165649414,2,0,5,3,1,4,H-,1,1,4,0,1000,250.0,1,D02EL,153,train
1056.5900802612305,2,0,5,3,1,4,H-,1,3,3,0,1000,250.0,3,D02EL,154,train
1024.590015411377,2,0,5,3,1,4,H-,1,1,4,0,1000,250.0,1,D02EL,155,train
816.7500495910645,2,0,5,3,1,4,H-,1,0,1,0,1000,250.0,0,D02EL,156,train
1024.672031402588,2,0,5,3,1,4,H-,1,3,3,0,1000,250.0,3,D02EL,157,train
1376.7058849334717,2,0,5,3,1,4,H-,1,2,0,0,1000,250.0,2,D02EL,158,train
1040.6339168548584,2,0,5,3,1,4,H-,1,0,1,0,1000,250.0,0,D02EL,159,train
1056.7560195922852,2,0,5,3,1,4,H-,1,1,4,0,1000,250.0,1,D02EL,160,train
800.5940914154053,2,0,5,3,1,4,H-,1,2,0,0,1000,250.0,2,D02EL,161,train
1296.6291904449463,2,0,5,3,1,4,H-,1,5,2,0,1000,250.0,5,D02EL,162,train
1328.5448551177979,2,0,5,3,1,4,H-,1,3,3,0,1000,250.0,3,D02EL,163,train
1136.625051498413,2,0,5,3,1,4,H-,1,5,2,0,1000,250.0,5,D02EL,164,train
912.5840663909912,2,0,5,3,1,4,H-,1,0,1,0,1000,250.0,0,D02EL,165,train
1008.4531307220459,2,0,5,3,1,4,H-,1,3,3,0,1000,250.0,3,D02EL,166,train
1536.5540981292725,2,0,5,3,1,4,H-,1,5,2,0,1000,250.0,5,D02EL,167,train
784.5931053161621,2,0,5,3,1,4,H-,1,5,2,0,1000,250.0,5,D02EL,168,train
880.6540966033936,2,0,5,3,1,4,H-,1,3,3,0,1000,250.0,3,D02EL,169,train
1008.6050033569336,2,0,5,3,1,4,H-,1,2,0,0,1000,250.0,2,D02EL,170,train
688.5740756988525,2,0,5,3,1,4,H-,1,0,1,0,1000,250.0,0,D02EL,171,train
1616.7068481445312,2,0,5,3,1,4,H-,1,5,2,0,1000,250.0,5,D02EL,172,train
624.5169639587402,2,0,5,3,1,4,H-,1,0,1,0,1000,250.0,0,D02EL,173,train
848.2141494750977,2,0,5,3,1,4,H-,1,0,1,0,1000,250.0,0,D02EL,174,train
864.9740219116211,2,0,5,3,1,4,H-,1,3,3,0,1000,250.0,3,D02EL,175,train
1120.7799911499023,2,0,5,3,1,4,H-,1,2,0,0,1000,250.0,2,D02EL,176,train
1008.5728168487549,2,0,5,3,1,4,H-,1,5,2,0,1000,250.0,5,D02EL,177,train
896.9430923461914,2,0,5,3,1,4,H-,1,1,4,0,1000,250.0,1,D02EL,178,train
929.0640354156494,2,0,5,3,1,4,H-,1,1,4,0,1000,250.0,1,D02EL,179,train
1153.1360149383545,2,0,5,3,1,4,H-,1,3,3,0,1000,250.0,3,D02EL,180,train
1280.771017074585,2,0,5,3,1,4,H-,1,5,2,0,1000,250.0,5,D02EL,181,train
1153.0821323394775,2,0,5,3,1,4,H-,1,3,3,0,1000,250.0,3,D02EL,182,train
1121.0551261901855,2,0,5,3,1,4,H-,1,4,5,0,1000,250.0,4,D02EL,183,train
512.8898620605469,2,0,5,3,1,4,H-,1,0,1,0,1000,250.0,0,D02EL,184,train
560.9951019287109,2,0,5,3,1,4,H-,1,0,1,0,1000,250.0,0,D02EL,185,train
737.058162689209,2,0,5,3,1,4,H-,0,3,3,0,1000,250.0,2,D02EL,186,train
577.0869255065918,2,0,5,3,1,4,H-,1,3,3,0,1000,250.0,3,D02EL,187,train
1009.0069770812988,2,0,5,3,1,4,H-,1,4,5,0,1000,250.0,4,D02EL,188,train
913.2139682769775,2,0,5,3,1,4,H-,1,0,1,0,1000,250.0,0,D02EL,189,train
592.9279327392578,2,0,5,3,1,4,H-,1,2,0,0,1000,250.0,2,D02EL,190,train
801.0029792785645,2,0,5,3,1,4,H-,1,1,4,0,1000,250.0,1,D02EL,191,train
513.0858421325684,2,0,5,3,1,4,H-,1,2,0,0,1000,250.0,2,D02EL,192,train
561.0430240631104,2,0,5,3,1,4,H-,0,3,3,0,1000,250.0,4,D02EL,193,train
337.1248245239258,2,0,5,3,1,4,H-,1,3,3,0,1000,250.0,3,D02EL,194,train
416.7342185974121,2,0,5,3,1,4,H-,1,4,5,0,1000,250.0,4,D02EL,195,train
912.9860401153564,2,0,5,3,1,4,H-,1,2,0,0,1000,250.0,2,D02EL,196,train
561.0630512237549,2,0,5,3,1,4,H-,1,0,1,0,1000,250.0,0,D02EL,197,train
609.0149879455566,2,0,5,3,1,4,H-,1,2,0,0,1000,250.0,2,D02EL,198,train
449.0649700164795,2,0,5,3,1,4,H-,1,2,0,0,1000,250.0,2,D02EL,199,train
481.05907440185547,2,0,5,3,1,4,H-,1,5,2,0,1000,250.0,5,D02EL,200,train
577.0750045776367,2,0,5,3,1,4,H-,1,3,3,0,1000,250.0,3,D02EL,201,train
625.0760555267334,2,0,5,3,1,4,H-,1,1,4,0,1000,250.0,1,D02EL,202,train
721.0290431976318,2,0,5,3,1,4,H-,0,4,5,0,1000,250.0,3,D02EL,203,train
561.0899925231934,2,0,5,3,1,4,H-,1,5,2,0,1000,250.0,5,D02EL,204,train
545.0539588928223,2,0,5,3,1,4,H-,1,0,1,0,1000,250.0,0,D02EL,205,train
513.0419731140137,2,0,5,3,1,4,H-,1,4,5,0,1000,250.0,4,D02EL,206,train
497.0829486846924,2,0,5,3,1,4,H-,1,0,1,0,1000,250.0,0,D02EL,207,train
592.9949283599854,2,0,5,3,1,4,H-,1,3,3,0,1000,250.0,3,D02EL,208,train
1265.075922012329,2,0,5,3,1,4,H-,1,3,3,0,1000,250.0,3,D02EL,209,train
481.06980323791504,2,0,5,3,1,4,H-,1,4,5,0,1000,250.0,4,D02EL,210,train
529.0699005126953,2,0,5,3,1,4,H-,1,0,1,0,1000,250.0,0,D02EL,211,train
529.1671752929688,2,0,5,3,1,4,H-,1,0,1,0,1000,250.0,0,D02EL,212,train
576.9891738891602,2,0,5,3,1,4,H-,1,1,4,0,1000,250.0,1,D02EL,213,train
673.0890274047852,2,0,5,3,1,4,H-,1,4,5,0,1000,250.0,4,D02EL,214,train
705.0700187683105,2,0,5,3,1,4,H-,1,3,3,0,1000,250.0,3,D02EL,215,train
705.0960063934326,2,0,5,3,1,4,H-,1,4,5,0,1000,250.0,4,D02EL,216,train
673.1441020965576,2,0,5,3,1,4,H-,1,5,2,0,1000,250.0,5,D02EL,217,train
577.0490169525146,2,0,5,3,1,4,H-,1,1,4,0,1000,250.0,1,D02EL,218,train
465.03305435180664,2,0,5,3,1,4,H-,1,1,4,0,1000,250.0,1,D02EL,219,train
785.1200103759766,2,0,5,3,1,4,H-,0,4,5,0,1000,250.0,3,D02EL,220,train
657.1369171142578,2,0,5,3,1,4,H-,1,1,4,0,1000,250.0,1,D02EL,221,train
913.0759239196777,2,0,5,3,1,4,H-,1,2,0,0,1000,250.0,2,D02EL,222,train
945.1220035552979,2,0,5,3,1,4,H-,1,3,3,0,1000,250.0,3,D02EL,223,train
801.0799884796143,2,0,5,3,1,4,H-,1,3,3,0,1000,250.0,3,D02EL,224,train
369.0462112426758,2,0,5,3,1,4,H-,1,3,3,0,1000,250.0,3,D02EL,225,train
560.9028339385986,2,0,5,3,1,4,H-,1,0,1,0,1000,250.0,0,D02EL,226,train
784.7340106964111,2,0,5,3,1,4,H-,1,4,5,0,1000,250.0,4,D02EL,227,train
624.3679523468018,2,0,5,3,1,4,H-,1,1,4,0,1000,250.0,1,D02EL,228,train
480.53598403930664,2,0,5,3,1,4,H-,1,4,5,0,1000,250.0,4,D02EL,229,train
672.5599765777588,2,0,5,3,1,4,H-,1,2,0,0,1000,250.0,2,D02EL,230,train
576.7240524291992,2,0,5,3,1,4,H-,1,1,4,0,1000,250.0,1,D02EL,231,train
576.7130851745605,2,0,5,3,1,4,H-,0,3,3,0,1000,250.0,4,D02EL,232,train
528.6428928375244,2,0,5,3,1,4,H-,1,0,1,0,1000,250.0,0,D02EL,233,train
576.5519142150879,2,0,5,3,1,4,H-,1,2,0,0,1000,250.0,2,D02EL,234,train
576.5860080718994,2,0,5,3,1,4,H-,1,5,2,0,1000,250.0,5,D02EL,235,train
544.5568561553955,2,0,5,3,1,4,H-,1,0,1,0,1000,250.0,0,D02EL,236,train
976.6747951507568,2,0,5,3,1,4,H-,1,4,5,0,1000,250.0,4,D02EL,237,train
1296.5848445892334,2,0,5,3,1,4,H-,1,4,5,0,1000,250.0,4,D02EL,238,train
960.6218338012695,2,0,5,3,1,4,H-,1,1,4,0,1000,250.0,1,D02EL,239,train
720.5758094787598,2,0,5,3,1,4,H-,1,1,4,0,1000,250.0,1,D02EL,240,train
656.6040515899658,2,0,5,3,1,4,H-,1,5,2,0,1000,250.0,5,D02EL,241,train
608.5669994354248,2,0,5,3,1,4,H-,1,0,1,0,1000,250.0,0,D02EL,242,train
704.6651840209961,2,0,5,3,1,4,H-,1,5,2,0,1000,250.0,5,D02EL,243,train
912.6818180084229,2,0,5,3,1,4,H-,1,2,0,0,1000,250.0,2,D02EL,244,train
864.6230697631836,2,0,5,3,1,4,H-,1,3,3,0,1000,250.0,3,D02EL,245,train
848.6261367797852,2,0,5,3,1,4,H-,1,1,4,0,1000,250.0,1,D02EL,246,train
720.5920219421387,2,0,5,3,1,4,H-,1,3,3,0,1000,250.0,3,D02EL,247,train
512.531042098999,2,0,5,3,1,4,H-,1,0,1,0,1000,250.0,0,D02EL,248,train
896.5890407562256,2,0,5,3,1,4,H-,1,3,3,0,1000,250.0,3,D02EL,249,train
2128.6239624023438,1,4,5,3,0,2,H-,1,4,1,0,1000,250.0,4,D02EL,250,test
640.5792236328125,1,4,5,3,0,2,H-,1,3,3,0,1000,250.0,3,D02EL,251,test
496.6099262237549,1,4,5,3,0,2,H-,1,3,3,0,1000,250.0,3,D02EL,252,test
640.6240463256836,1,4,5,3,0,2,H-,1,4,1,0,1000,250.0,4,D02EL,253,test
1232.5439453125,1,4,5,3,0,2,H-,1,2,5,0,1000,250.0,2,D02EL,254,test
496.52791023254395,1,4,5,3,0,2,H-,1,3,3,0,1000,250.0,3,D02EL,255,test
864.6199703216553,1,4,5,3,0,2,H-,1,5,2,0,1000,250.0,5,D02EL,256,test
480.58104515075684,1,4,5,3,0,2,H-,0,4,1,0,1000,250.0,5,D02EL,257,test
384.6118450164795,1,4,5,3,0,2,H-,1,4,1,0,1000,250.0,4,D02EL,258,test
1184.6799850463867,1,4,5,3,0,2,H-,1,2,5,0,1000,250.0,2,D02EL,259,test
1584.623098373413,1,4,5,3,0,2,H-,1,4,1,0,1000,250.0,4,D02EL,260,test
432.56306648254395,1,4,5,3,0,2,H-,1,0,4,0,1000,250.0,0,D02EL,261,test
496.5929985046387,1,4,5,3,0,2,H-,1,0,4,0,1000,250.0,0,D02EL,262,test
512.5839710235596,1,4,5,3,0,2,H-,1,0,4,0,1000,250.0,0,D02EL,263,test
464.5860195159912,1,4,5,3,0,2,H-,1,1,0,0,1000,250.0,1,D02EL,264,test
384.54294204711914,1,4,5,3,0,2,H-,1,2,5,0,1000,250.0,2,D02EL,265,test
752.5730133056641,1,4,5,3,0,2,H-,1,2,5,0,1000,250.0,2,D02EL,266,test
1232.6760292053223,1,4,5,3,0,2,H-,1,1,0,0,1000,250.0,1,D02EL,267,test
480.55410385131836,1,4,5,3,0,2,H-,1,4,1,0,1000,250.0,4,D02EL,268,test
896.5671062469482,1,4,5,3,0,2,H-,1,0,4,0,1000,250.0,0,D02EL,269,test
496.5391159057617,1,4,5,3,0,2,H-,1,0,4,0,1000,250.0,0,D02EL,270,test
656.7788124084473,1,4,5,3,0,2,H-,1,4,1,0,1000,250.0,4,D02EL,271,test
464.6461009979248,1,4,5,3,0,2,H-,1,5,2,0,1000,250.0,5,D02EL,272,test
992.5839900970459,1,4,5,3,0,2,H-,1,3,3,0,1000,250.0,3,D02EL,273,test
448.5130310058594,1,4,5,3,0,2,H-,1,5,2,0,1000,250.0,5,D02EL,274,test
448.7450122833252,1,4,5,3,0,2,H-,1,5,2,0,1000,250.0,5,D02EL,275,test
993.3090209960938,1,4,5,3,0,2,H-,1,2,5,0,1000,250.0,2,D02EL,276,test
352.7350425720215,1,4,5,3,0,2,H-,1,3,3,0,1000,250.0,3,D02EL,277,test
544.558048248291,1,4,5,3,0,2,H-,1,5,2,0,1000,250.0,5,D02EL,278,test
512.624979019165,1,4,5,3,0,2,H-,1,5,2,0,1000,250.0,5,D02EL,279,test
528.7079811096191,1,4,5,3,0,2,H-,1,4,1,0,1000,250.0,4,D02EL,280,test
1024.6269702911377,1,4,5,3,0,2,H-,1,0,4,0,1000,250.0,0,D02EL,281,test
736.9709014892578,1,4,5,3,0,2,H-,1,1,0,0,1000,250.0,1,D02EL,282,test
880.918025970459,1,4,5,3,0,2,H-,1,3,3,0,1000,250.0,3,D02EL,283,test
960.9520435333252,1,4,5,3,0,2,H-,1,0,4,0,1000,250.0,0,D02EL,284,test
1073.0979442596436,1,4,5,3,0,2,H-,1,2,5,0,1000,250.0,2,D02EL,285,test
1040.970802307129,1,4,5,3,0,2,H-,1,1,0,0,1000,250.0,1,D02EL,286,test
1072.7620124816895,1,4,5,3,0,2,H-,1,3,3,0,1000,250.0,3,D02EL,287,test
977.003812789917,1,4,5,3,0,2,H-,1,4,1,0,1000,250.0,4,D02EL,288,test
960.7870578765869,1,4,5,3,0,2,H-,1,4,1,0,1000,250.0,4,D02EL,289,test
576.7209529876709,1,4,5,3,0,2,H-,1,4,1,0,1000,250.0,4,D02EL,290,test
592.7457809448242,1,4,5,3,0,2,H-,1,4,1,0,1000,250.0,4,D02EL,291,test
432.6040744781494,1,4,5,3,0,2,H-,1,4,1,0,1000,250.0,4,D02EL,292,test
368.70694160461426,1,4,5,3,0,2,H-,1,4,1,0,1000,250.0,4,D02EL,293,test
576.7698287963867,1,4,5,3,0,2,H-,1,5,2,0,1000,250.0,5,D02EL,294,test
1744.7960376739502,1,4,5,3,0,2,H-,1,1,0,0,1000,250.0,1,D02EL,295,test
1024.8520374298096,1,4,5,3,0,2,H-,1,0,4,0,1000,250.0,0,D02EL,296,test
768.8510417938232,1,4,5,3,0,2,H-,1,1,0,0,1000,250.0,1,D02EL,297,test
688.892126083374,1,4,5,3,0,2,H-,1,5,2,0,1000,250.0,5,D02EL,298,test
1024.6329307556152,1,4,5,3,0,2,H-,1,3,3,0,1000,250.0,3,D02EL,299,test
480.55505752563477,1,4,5,3,0,2,H-,1,5,2,0,1000,250.0,5,D02EL,300,test
784.5699787139893,1,4,5,3,0,2,H-,1,0,4,0,1000,250.0,0,D02EL,301,test
848.5939502716064,1,4,5,3,0,2,H-,1,3,3,0,1000,250.0,3,D02EL,302,test
880.6629180908203,1,4,5,3,0,2,H-,1,2,5,0,1000,250.0,2,D02EL,303,test
1520.5349922180176,1,4,5,3,0,2,H-,1,0,4,0,1000,250.0,0,D02EL,304,test
736.6650104522705,1,4,5,3,0,2,H-,0,4,1,0,1000,250.0,5,D02EL,305,test
704.6799659729004,1,4,5,3,0,2,H-,1,0,4,0,1000,250.0,0,D02EL,306,test
848.6230373382568,1,4,5,3,0,2,H-,1,3,3,0,1000,250.0,3,D02EL,307,test
656.5370559692383,1,4,5,3,0,2,H-,1,3,3,0,1000,250.0,3,D02EL,308,test
608.6199283599854,1,4,5,3,0,2,H-,1,5,2,0,1000,250.0,5,D02EL,309,test
768.6030864715576,1,4,5,3,0,2,H-,1,0,4,0,1000,250.0,0,D02EL,310,test
544.605016708374,1,4,5,3,0,2,H-,1,0,4,0,1000,250.0,0,D02EL,311,test
704.6079635620117,1,4,5,3,0,2,H-,1,4,1,0,1000,250.0,4,D02EL,312,test
1360.5890274047852,1,4,5,3,0,2,H-,1,2,5,0,1000,250.0,2,D02EL,313,test
624.5980262756348,1,4,5,3,0,2,H-,1,5,2,0,1000,250.0,5,D02EL,314,test
1456.5541744232178,1,4,5,3,0,2,H-,1,3,3,0,1000,250.0,3,D02EL,315,test
1088.6151790618896,1,4,5,3,0,2,H-,1,1,0,0,1000,250.0,1,D02EL,316,test
1104.6769618988037,1,4,5,3,0,2,H-,1,2,5,0,1000,250.0,2,D02EL,317,test
688.5640621185303,1,4,5,3,0,2,H-,1,3,3,0,1000,250.0,3,D02EL,318,test
640.5980587005615,1,4,5,3,0,2,H-,1,3,3,0,1000,250.0,3,D02EL,319,test
784.6400737762451,1,4,5,3,0,2,H-,1,5,2,0,1000,250.0,5,D02EL,320,test
576.6181945800781,1,4,5,3,0,2,H-,1,4,1,0,1000,250.0,4,D02EL,321,test
704.5879364013672,1,4,5,3,0,2,H-,1,5,2,0,1000,250.0,5,D02EL,322,test
1152.6060104370117,1,4,5,3,0,2,H-,0,0,4,0,1000,250.0,1,D02EL,323,test
768.7358856201172,1,4,5,3,0,2,H-,1,4,1,0,1000,250.0,4,D02EL,324,test
848.6950397491455,1,4,5,3,0,2,H-,1,0,4,0,1000,250.0,0,D02EL,325,test
672.6272106170654,1,4,5,3,0,2,H-,1,4,1,0,1000,250.0,4,D02EL,326,test
720.6628322601318,1,4,5,3,0,2,H-,0,3,3,0,1000,250.0,2,D02EL,327,test
592.7460193634033,1,4,5,3,0,2,H-,1,0,4,0,1000,250.0,0,D02EL,328,test
624.6161460876465,1,4,5,3,0,2,H-,1,0,4,0,1000,250.0,0,D02EL,329,test
624.5641708374023,1,4,5,3,0,2,H-,1,5,2,0,1000,250.0,5,D02EL,330,test
944.5769786834717,1,4,5,3,0,2,H-,1,2,5,0,1000,250.0,2,D02EL,331,test
672.5828647613525,1,4,5,3,0,2,H-,1,5,2,0,1000,250.0,5,D02EL,332,test
992.5968647003174,1,4,5,3,0,2,H-,1,1,0,0,1000,250.0,1,D02EL,333,test
1056.4639568328857,1,4,5,3,0,2,H-,1,1,0,0,1000,250.0,1,D02EL,334,test
976.6769409179688,1,4,5,3,0,2,H-,1,3,3,0,1000,250.0,3,D02EL,335,test
848.6549854278564,1,4,5,3,0,2,H-,1,4,1,0,1000,250.0,4,D02EL,336,test
704.7579288482666,1,4,5,3,0,2,H-,1,5,2,0,1000,250.0,5,D02EL,337,test
640.5529975891113,1,4,5,3,0,2,H-,1,0,4,0,1000,250.0,0,D02EL,338,test
1008.8000297546387,1,4,5,3,0,2,H-,1,2,5,0,1000,250.0,2,D02EL,339,test
688.6518001556396,1,4,5,3,0,2,H-,1,0,4,0,1000,250.0,0,D02EL,340,test
624.6728897094727,1,4,5,3,0,2,H-,1,5,2,0,1000,250.0,5,D02EL,341,test
976.7661094665527,1,4,5,3,0,2,H-,0,1,0,0,1000,250.0,0,D02EL,342,test
976.7160415649414,1,4,5,3,0,2,H-,1,0,4,0,1000,250.0,0,D02EL,343,test
592.7009582519531,1,4,5,3,0,2,H-,1,0,4,0,1000,250.0,0,D02EL,344,test
816.6930675506592,1,4,5,3,0,2,H-,1,1,0,0,1000,250.0,1,D02EL,345,test
848.6638069152832,1,4,5,3,0,2,H-,1,2,5,0,1000,250.0,2,D02EL,346,test
624.6311664581299,1,4,5,3,0,2,H-,1,3,3,0,1000,250.0,3,D02EL,347,test
752.7320384979248,1,4,5,3,0,2,H-,1,0,4,0,1000,250.0,0,D02EL,348,test
896.759033203125,1,4,5,3,0,2,H-,1,1,0,0,1000,250.0,1,D02EL,349,test
768.7089443206787,1,4,5,3,0,2,H-,1,5,2,0,1000,250.0,5,D02EL,350,test
1136.645793914795,1,4,5,3,0,2,H-,1,4,1,0,1000,250.0,4,D02EL,351,test
752.6161670684814,1,4,5,3,0,2,H-,1,0,4,0,1000,250.0,0,D02EL,352,test
816.7409896850586,1,4,5,3,0,2,H-,1,4,1,0,1000,250.0,4,D02EL,353,test
736.7188930511475,1,4,5,3,0,2,H-,0,1,0,0,1000,250.0,0,D02EL,354,test
880.8290958404541,1,4,5,3,0,2,H-,1,5,2,0,1000,250.0,5,D02EL,355,test
864.7358417510986,1,4,5,3,0,2,H-,1,3,3,0,1000,250.0,3,D02EL,356,test
944.7720050811768,1,4,5,3,0,2,H-,1,1,0,0,1000,250.0,1,D02EL,357,test
768.7869071960449,1,4,5,3,0,2,H-,1,4,1,0,1000,250.0,4,D02EL,358,test
768.5098648071289,1,4,5,3,0,2,H-,1,0,4,0,1000,250.0,0,D02EL,359,test
976.6089916229248,1,4,5,3,0,2,H-,1,3,3,0,1000,250.0,3,D02EL,360,test
1024.6422290802002,1,4,5,3,0,2,H-,1,0,4,0,1000,250.0,0,D02EL,361,test
1824.6400356292725,1,4,5,3,0,2,H-,1,3,3,0,1000,250.0,3,D02EL,362,test
992.5971031188965,1,4,5,3,0,2,H-,1,5,2,0,1000,250.0,5,D02EL,363,test
1808.5699081420898,1,4,5,3,0,2,H-,1,1,0,0,1000,250.0,1,D02EL,364,test
1280.3847789764404,1,4,5,3,0,2,H-,1,2,5,0,1000,250.0,2,D02EL,365,test
1168.3380603790283,1,4,5,3,0,2,H-,1,3,3,0,1000,250.0,3,D02EL,366,test
624.5660781860352,1,4,5,3,0,2,H-,1,4,1,0,1000,250.0,4,D02EL,367,test
1040.6279563903809,1,4,5,3,0,2,H-,1,2,5,0,1000,250.0,2,D02EL,368,test
1248.533010482788,1,4,5,3,0,2,H-,1,1,0,0,1000,250.0,1,D02EL,369,test
784.6379280090332,1,4,5,3,0,2,H-,1,2,5,0,1000,250.0,2,D02EL,370,test
703.794002532959,1,4,5,3,0,2,H-,1,4,1,0,1000,250.0,4,D02EL,371,test
592.5931930541992,1,4,5,3,0,2,H-,1,4,1,0,1000,250.0,4,D02EL,372,test
864.5401000976562,1,4,5,3,0,2,H-,1,2,5,0,1000,250.0,2,D02EL,373,test
992.5999641418457,1,4,5,3,0,2,H-,1,4,1,0,1000,250.0,4,D02EL,374,test
1440.5760765075684,1,4,5,3,0,2,H-,1,0,4,0,1000,250.0,0,D02EL,375,test
1008.5811614990234,1,4,5,3,0,2,H-,1,3,3,0,1000,250.0,3,D02EL,376,test
704.6000957489014,1,4,5,3,0,2,H-,1,4,1,0,1000,250.0,4,D02EL,377,test
592.6299095153809,1,4,5,3,0,2,H-,1,4,1,0,1000,250.0,4,D02EL,378,test
1152.6391506195068,1,4,5,3,0,2,H-,1,0,4,0,1000,250.0,0,D02EL,379,test
992.6371574401855,1,4,5,3,0,2,H-,1,3,3,0,1000,250.0,3,D02EL,380,test
688.5819435119629,1,4,5,3,0,2,H-,1,3,3,0,1000,250.0,3,D02EL,381,test
752.5849342346191,1,4,5,3,0,2,H-,1,4,1,0,1000,250.0,4,D02EL,382,test
1248.5179901123047,1,4,5,3,0,2,H-,1,1,0,0,1000,250.0,1,D02EL,383,test
1088.357925415039,1,4,5,3,0,2,H-,1,1,0,0,1000,250.0,1,D02EL,384,test
1040.5240058898926,1,4,5,3,0,2,H-,1,4,1,0,1000,250.0,4,D02EL,385,test
704.6089172363281,1,4,5,3,0,2,H-,1,5,2,0,1000,250.0,5,D02EL,386,test
560.5590343475342,1,4,5,3,0,2,H-,1,5,2,0,1000,250.0,5,D02EL,387,test
1056.5800666809082,1,4,5,3,0,2,H-,1,1,0,0,1000,250.0,1,D02EL,388,test
560.6000423431396,1,4,5,3,0,2,H-,1,5,2,0,1000,250.0,5,D02EL,389,test
1088.630199432373,1,4,5,3,0,2,H-,1,0,4,0,1000,250.0,0,D02EL,390,test
544.4378852844238,1,4,5,3,0,2,H-,1,5,2,0,1000,250.0,5,D02EL,391,test
832.6270580291748,1,4,5,3,0,2,H-,1,1,0,0,1000,250.0,1,D02EL,392,test
800.7149696350098,1,4,5,3,0,2,H-,1,4,1,0,1000,250.0,4,D02EL,393,test
528.623104095459,1,4,5,3,0,2,H-,1,3,3,0,1000,250.0,3,D02EL,394,test
576.6499042510986,1,4,5,3,0,2,H-,1,4,1,0,1000,250.0,4,D02EL,395,test
432.5251579284668,1,4,5,3,0,2,H-,1,4,1,0,1000,250.0,4,D02EL,396,test
688.5809898376465,1,4,5,3,0,2,H-,1,1,0,0,1000,250.0,1,D02EL,397,test
544.7161197662354,1,4,5,3,0,2,H-,1,1,0,0,1000,250.0,1,D02EL,398,test
720.7109928131104,1,4,5,3,0,2,H-,1,2,5,0,1000,250.0,2,D02EL,399,test
720.674991607666,1,4,5,3,0,2,H-,0,2,5,0,1000,250.0,3,D02EL,400,test
624.683141708374,1,4,5,3,0,2,H-,1,4,1,0,1000,250.0,4,D02EL,401,test
720.7231521606445,1,4,5,3,0,2,H-,0,0,4,0,1000,250.0,1,D02EL,402,test
784.6148014068604,1,4,5,3,0,2,H-,1,3,3,0,1000,250.0,3,D02EL,403,test
944.5619583129883,1,4,5,3,0,2,H-,1,2,5,0,1000,250.0,2,D02EL,404,test
768.4710025787354,1,4,5,3,0,2,H-,1,2,5,0,1000,250.0,2,D02EL,405,test
864.5570278167725,1,4,5,3,0,2,H-,1,0,4,0,1000,250.0,0,D02EL,406,test
832.517147064209,1,4,5,3,0,2,H-,1,2,5,0,1000,250.0,2,D02EL,407,test
704.6680450439453,1,4,5,3,0,2,H-,1,3,3,0,1000,250.0,3,D02EL,408,test
801.3560771942139,1,4,5,3,0,2,H-,1,3,3,0,1000,250.0,3,D02EL,409,test
592.5600528717041,1,4,5,3,0,2,H-,1,2,5,0,1000,250.0,2,D02EL,410,test
512.7460956573486,1,4,5,3,0,2,H-,0,3,3,0,1000,250.0,2,D02EL,411,test
704.6759128570557,1,4,5,3,0,2,H-,1,3,3,0,1000,250.0,3,D02EL,412,test
528.6169052124023,1,4,5,3,0,2,H-,1,3,3,0,1000,250.0,3,D02EL,413,test
800.7287979125977,1,4,5,3,0,2,H-,1,4,1,0,1000,250.0,4,D02EL,414,test
912.6319885253906,1,4,5,3,0,2,H-,1,3,3,0,1000,250.0,3,D02EL,415,test
784.5427989959717,1,4,5,3,0,2,H-,1,5,2,0,1000,250.0,5,D02EL,416,test
1072.666883468628,1,4,5,3,0,2,H-,1,2,5,0,1000,250.0,2,D02EL,417,test
1344.6202278137207,1,4,5,3,0,2,H-,1,1,0,0,1000,250.0,1,D02EL,418,test
1616.6760921478271,1,4,5,3,0,2,H-,1,1,0,0,1000,250.0,1,D02EL,419,test
960.5879783630371,1,4,5,3,0,2,H-,1,0,4,0,1000,250.0,0,D02EL,420,test
1088.6471271514893,1,4,5,3,0,2,H-,1,3,3,0,1000,250.0,3,D02EL,421,test
992.7120208740234,1,4,5,3,0,2,H-,1,1,0,0,1000,250.0,1,D02EL,422,test
720.6418514251709,1,4,5,3,0,2,H-,1,4,1,0,1000,250.0,4,D02EL,423,test
1264.7008895874023,1,4,5,3,0,2,H-,1,1,0,0,1000,250.0,1,D02EL,424,test
880.6788921356201,1,4,5,3,0,2,H-,1,1,0,0,1000,250.0,1,D02EL,425,test
656.5940380096436,1,4,5,3,0,2,H-,1,2,5,0,1000,250.0,2,D02EL,426,test
800.3299236297607,1,4,5,3,0,2,H-,1,4,1,0,1000,250.0,4,D02EL,427,test
1232.6269149780273,1,4,5,3,0,2,H-,1,0,4,0,1000,250.0,0,D02EL,428,test
2064.643144607544,1,4,5,3,0,2,H-,1,0,4,0,1000,250.0,0,D02EL,429,test
736.5927696228027,1,4,5,3,0,2,H-,1,4,1,0,1000,250.0,4,D02EL,430,test
608.6978912353516,1,4,5,3,0,2,H-,1,5,2,0,1000,250.0,5,D02EL,431,test
912.5900268554688,1,4,5,3,0,2,H-,1,2,5,0,1000,250.0,2,D02EL,432,test
1040.6570434570312,1,4,5,3,0,2,H-,1,0,4,0,1000,250.0,0,D02EL,433,test
656.6338539123535,1,4,5,3,0,2,H-,1,0,4,0,1000,250.0,0,D02EL,434,test
560.3268146514893,1,4,5,3,0,2,H-,1,5,2,0,1000,250.0,5,D02EL,435,test
912.6381874084473,1,4,5,3,0,2,H-,1,2,5,0,1000,250.0,2,D02EL,436,test
928.9021492004395,1,4,5,3,0,2,H-,1,0,4,0,1000,250.0,0,D02EL,437,test
1520.3769207000732,1,4,5,3,0,2,H-,1,5,2,0,1000,250.0,5,D02EL,438,test
1008.6638927459717,1,4,5,3,0,2,H-,1,1,0,0,1000,250.0,1,D02EL,439,test
848.6318588256836,1,4,5,3,0,2,H-,1,0,4,0,1000,250.0,0,D02EL,440,test
1184.5309734344482,1,4,5,3,0,2,H-,1,3,3,0,1000,250.0,3,D02EL,441,test
704.6191692352295,1,4,5,3,0,2,H-,1,4,1,0,1000,250.0,4,D02EL,442,test
785.3710651397705,1,4,5,3,0,2,H-,1,5,2,0,1000,250.0,5,D02EL,443,test
1072.6649761199951,1,4,5,3,0,2,H-,1,1,0,0,1000,250.0,1,D02EL,444,test
1024.5709419250488,1,4,5,3,0,2,H-,1,2,5,0,1000,250.0,2,D02EL,445,test
864.4859790802002,1,4,5,3,0,2,H-,1,1,0,0,1000,250.0,1,D02EL,446,test
928.5550117492676,1,4,5,3,0,2,H-,1,1,0,0,1000,250.0,1,D02EL,447,test
912.4279022216797,1,4,5,3,0,2,H-,1,4,1,0,1000,250.0,4,D02EL,448,test
1985.0950241088867,1,4,5,3,0,2,H-,1,0,4,0,1000,250.0,0,D02EL,449,test
705.0049304962158,1,4,5,3,0,2,H-,1,2,5,0,1000,250.0,2,D02EL,450,test
529.149055480957,1,4,5,3,0,2,H-,1,3,3,0,1000,250.0,3,D02EL,451,test
849.066972732544,1,4,5,3,0,2,H-,1,4,1,0,1000,250.0,4,D02EL,452,test
577.0211219787598,1,4,5,3,0,2,H-,1,3,3,0,1000,250.0,3,D02EL,453,test
769.0458297729492,1,4,5,3,0,2,H-,1,2,5,0,1000,250.0,2,D02EL,454,test
1057.054042816162,1,4,5,3,0,2,H-,1,0,4,0,1000,250.0,0,D02EL,455,test
705.0409317016602,1,4,5,3,0,2,H-,1,3,3,0,1000,250.0,3,D02EL,456,test
545.0301170349121,1,4,5,3,0,2,H-,1,2,5,0,1000,250.0,2,D02EL,457,test
641.1058902740479,1,4,5,3,0,2,H-,1,0,4,0,1000,250.0,0,D02EL,458,test
641.1869525909424,1,4,5,3,0,2,H-,1,1,0,0,1000,250.0,1,D02EL,459,test
961.0059261322021,1,4,5,3,0,2,H-,0,4,1,0,1000,250.0,5,D02EL,460,test
737.2188568115234,1,4,5,3,0,2,H-,1,2,5,0,1000,250.0,2,D02EL,461,test
897.2189426422119,1,4,5,3,0,2,H-,1,3,3,0,1000,250.0,3,D02EL,462,test
977.154016494751,1,4,5,3,0,2,H-,1,0,4,0,1000,250.0,0,D02EL,463,test
753.1449794769287,1,4,5,3,0,2,H-,1,2,5,0,1000,250.0,2,D02EL,464,test
641.1588191986084,1,4,5,3,0,2,H-,1,1,0,0,1000,250.0,1,D02EL,465,test
817.1041011810303,1,4,5,3,0,2,H-,1,5,2,0,1000,250.0,5,D02EL,466,test
512.9880905151367,1,4,5,3,0,2,H-,1,5,2,0,1000,250.0,5,D02EL,467,test
945.2579021453857,1,4,5,3,0,2,H-,1,0,4,0,1000,250.0,0,D02EL,468,test
577.1439075469971,1,4,5,3,0,2,H-,1,0,4,0,1000,250.0,0,D02EL,469,test
369.1859245300293,1,4,5,3,0,2,H-,1,4,1,0,1000,250.0,4,D02EL,470,test
625.1518726348877,1,4,5,3,0,2,H-,1,3,3,0,1000,250.0,3,D02EL,471,test
577.171802520752,1,4,5,3,0,2,H-,1,3,3,0,1000,250.0,3,D02EL,472,test
672.8270053863525,1,4,5,3,0,2,H-,1,2,5,0,1000,250.0,2,D02EL,473,test
545.0689792633057,1,4,5,3,0,2,H-,1,2,5,0,1000,250.0,2,D02EL,474,test
641.1178112030029,1,4,5,3,0,2,H-,1,5,2,0,1000,250.0,5,D02EL,475,test
593.1839942932129,1,4,5,3,0,2,H-,1,5,2,0,1000,250.0,5,D02EL,476,test
929.0690422058105,1,4,5,3,0,2,H-,1,0,4,0,1000,250.0,0,D02EL,477,test
1137.2809410095215,1,4,5,3,0,2,H-,1,3,3,0,1000,250.0,3,D02EL,478,test
1057.1398735046387,1,4,5,3,0,2,H-,1,2,5,0,1000,250.0,2,D02EL,479,test
769.1700458526611,1,4,5,3,0,2,H-,1,1,0,0,1000,250.0,1,D02EL,480,test
705.0199508666992,1,4,5,3,0,2,H-,1,4,1,0,1000,250.0,4,D02EL,481,test
865.2379512786865,1,4,5,3,0,2,H-,1,3,3,0,1000,250.0,3,D02EL,482,test
897.042989730835,1,4,5,3,0,2,H-,1,1,0,0,1000,250.0,1,D02EL,483,test
433.1328868865967,1,4,5,3,0,2,H-,1,0,4,0,1000,250.0,0,D02EL,484,test
753.1290054321289,1,4,5,3,0,2,H-,1,4,1,0,1000,250.0,4,D02EL,485,test
1264.930009841919,1,4,5,3,0,2,H-,1,0,4,0,1000,250.0,0,D02EL,486,test
705.2130699157715,1,4,5,3,0,2,H-,1,4,1,0,1000,250.0,4,D02EL,487,test
689.0981197357178,1,4,5,3,0,2,H-,1,4,1,0,1000,250.0,4,D02EL,488,test
833.2219123840332,1,4,5,3,0,2,H-,1,2,5,0,1000,250.0,2,D02EL,489,test
721.1208343505859,1,4,5,3,0,2,H-,1,5,2,0,1000,250.0,5,D02EL,490,test
817.0511722564697,1,4,5,3,0,2,H-,1,2,5,0,1000,250.0,2,D02EL,491,test
593.0309295654297,1,4,5,3,0,2,H-,1,4,1,0,1000,250.0,4,D02EL,492,test
432.9369068145752,1,4,5,3,0,2,H-,0,3,3,0,1000,250.0,4,D02EL,493,test
641.1700248718262,1,4,5,3,0,2,H-,1,2,5,0,1000,250.0,2,D02EL,494,test
497.204065322876,1,4,5,3,0,2,H-,1,2,5,0,1000,250.0,2,D02EL,495,test
641.0419940948486,1,4,5,3,0,2,H-,1,3,3,0,1000,250.0,3,D02EL,496,test
561.0179901123047,1,4,5,3,0,2,H-,1,5,2,0,1000,250.0,5,D02EL,497,test
593.16086769104,1,4,5,3,0,2,H-,1,5,2,0,1000,250.0,5,D02EL,498,test
385.21289825439453,1,4,5,3,0,2,H-,1,4,1,0,1000,250.0,4,D02EL,499,test
