RT,SRmap_0,SRmap_1,SRmap_2,SRmap_3,SRmap_4,SRmap_5,condition,correct,correct_response,curstim,ms-precue,ms-prestimblank,ntrials,response,subject,trial,type
1098.2329845428467,4,0,5,3,2,1,E-,1,2,4,400,600,250.0,2,C12CW,0,train
811.011791229248,4,0,5,3,2,1,E-,1,5,2,400,600,250.0,5,C12CW,1,train
315.08898735046387,4,0,5,3,2,1,E-,1,0,1,400,600,250.0,0,C12CW,2,train
266.6468620300293,4,0,5,3,2,1,E-,1,5,2,400,600,250.0,5,C12CW,3,train
554.6629428863525,4,0,5,3,2,1,E-,1,1,5,400,600,250.0,1,C12CW,4,train
315.13404846191406,4,0,5,3,2,1,E-,1,1,5,400,600,250.0,1,C12CW,5,train
234.75003242492676,4,0,5,3,2,1,E-,1,5,2,400,600,250.0,5,C12CW,6,train
1018.6710357666016,4,0,5,3,2,1,E-,1,3,3,400,600,250.0,3,C12CW,7,train
266.6919231414795,4,0,5,3,2,1,E-,1,5,2,400,600,250.0,5,C12CW,8,train
153.18799018859863,4,0,5,3,2,1,E-,1,1,5,400,600,250.0,1,C12CW,9,train
122.7121353149414,4,0,5,3,2,1,E-,1,5,2,400,600,250.0,5,C12CW,10,train
186.66601181030273,4,0,5,3,2,1,E-,0,3,3,400,600,250.0,4,C12CW,11,train
346.70495986938477,4,0,5,3,2,1,E-,1,3,3,400,600,250.0,3,C12CW,12,train
154.68096733093262,4,0,5,3,2,1,E-,1,1,5,400,600,250.0,1,C12CW,13,train
235.0780963897705,4,0,5,3,2,1,E-,0,2,4,400,600,250.0,3,C12CW,14,train
139.75191116333008,4,0,5,3,2,1,E-,1,3,3,400,600,250.0,3,C12CW,15,train
186.88607215881348,4,0,5,3,2,1,E-,1,5,2,400,600,250.0,5,C12CW,16,train
42.60897636413574,4,0,5,3,2,1,E-,1,5,2,400,600,250.0,5,C12CW,17,train
235.09597778320312,4,0,5,3,2,1,E-,0,2,4,400,600,250.0,3,C12CW,18,train
74.49603080749512,4,0,5,3,2,1,E-,1,2,4,400,600,250.0,2,C12CW,19,train
10.671854019165039,4,0,5,3,2,1,E-,1,1,5,400,600,250.0,1,C12CW,20,train
234.2700958251953,4,0,5,3,2,1,E-,0,4,0,400,600,250.0,5,C12CW,21,train
90.91997146606445,4,0,5,3,2,1,E-,1,0,1,400,600,250.0,0,C12CW,22,train
0.11491775512695312,4,0,5,3,2,1,E-,1,1,5,400,600,250.0,1,C12CW,23,train
26.51500701904297,4,0,5,3,2,1,E-,1,4,0,400,600,250.0,4,C12CW,24,train
299.12805557250977,4,0,5,3,2,1,E-,0,3,3,400,600,250.0,4,C12CW,25,train
90.68799018859863,4,0,5,3,2,1,E-,1,1,5,400,600,250.0,1,C12CW,26,train
122.64704704284668,4,0,5,3,2,1,E-,0,3,3,400,600,250.0,4,C12CW,27,train
138.72981071472168,4,0,5,3,2,1,E-,1,1,5,400,600,250.0,1,C12CW,28,train
282.9430103302002,4,0,5,3,2,1,E-,1,3,3,400,600,250.0,3,C12CW,29,train
139.22905921936035,4,0,5,3,2,1,E-,1,4,0,400,600,250.0,4,C12CW,30,train
42.3431396484375,4,0,5,3,2,1,E-,1,1,5,400,600,250.0,1,C12CW,31,train
56.98204040527344,4,0,5,3,2,1,E-,1,1,5,400,600,250.0,1,C12CW,32,train
42.65189170837402,4,0,5,3,2,1,E-,0,0,1,400,600,250.0,1,C12CW,33,train
58.85791778564453,4,0,5,3,2,1,E-,1,5,2,400,600,250.0,5,C12CW,34,train
42.946815490722656,4,0,5,3,2,1,E-,1,4,0,400,600,250.0,4,C12CW,35,train
379.13990020751953,4,0,5,3,2,1,E-,1,2,4,400,600,250.0,2,C12CW,36,train
90.6820297241211,4,0,5,3,2,1,E-,1,3,3,400,600,250.0,3,C12CW,37,train
57.73496627807617,4,0,5,3,2,1,E-,1,3,3,400,600,250.0,3,C12CW,38,train
0.17595291137695312,4,0,5,3,2,1,E-,1,1,5,400,600,250.0,1,C12CW,39,train
42.671918869018555,4,0,5,3,2,1,E-,1,0,1,400,600,250.0,0,C12CW,40,train
202.6350498199463,4,0,5,3,2,1,E-,0,2,4,400,600,250.0,3,C12CW,41,train
26.831865310668945,4,0,5,3,2,1,E-,1,0,1,400,600,250.0,0,C12CW,42,train
88.19699287414551,4,0,5,3,2,1,E-,1,0,1,400,600,250.0,0,C12CW,43,train
10.957002639770508,4,0,5,3,2,1,E-,1,0,1,400,600,250.0,0,C12CW,44,train
154.65092658996582,4,0,5,3,2,1,E-,1,5,2,400,600,250.0,5,C12CW,45,train
90.91901779174805,4,0,5,3,2,1,E-,1,3,3,400,600,250.0,3,C12CW,46,train
58.63213539123535,4,0,5,3,2,1,E-,1,3,3,400,600,250.0,3,C12CW,47,train
42.94395446777344,4,0,5,3,2,1,E-,1,5,2,400,600,250.0,5,C12CW,48,train
954.8821449279785,4,0,5,3,2,1,E-,1,3,3,400,600,250.0,3,C12CW,49,train
74.86486434936523,4,0,5,3,2,1,E-,0,4,0,400,600,250.0,5,C12CW,50,train
250.99778175354004,4,0,5,3,2,1,E-,0,1,5,400,600,250.0,3,C12CW,51,train
682.1999549865723,4,0,5,3,2,1,E-,1,3,3,400,600,250.0,3,C12CW,52,train
58.50791931152344,4,0,5,3,2,1,E-,1,1,5,400,600,250.0,1,C12CW,53,train
266.6139602661133,4,0,5,3,2,1,E-,1,3,3,400,600,250.0,3,C12CW,54,train
154.3889045715332,4,0,5,3,2,1,E-,0,2,4,400,600,250.0,1,C12CW,55,train
682.945966720581,4,0,5,3,2,1,E-,1,2,4,400,600,250.0,2,C12CW,56,train
218.42694282531738,4,0,5,3,2,1,E-,0,0,1,400,600,250.0,1,C12CW,57,train
170.93992233276367,4,0,5,3,2,1,E-,1,2,4,400,600,250.0,2,C12CW,58,train
730.9329509735107,4,0,5,3,2,1,E-,1,4,0,400,600,250.0,4,C12CW,59,train
234.77792739868164,4,0,5,3,2,1,E-,1,3,3,400,600,250.0,3,C12CW,60,train
729.1679382324219,4,0,5,3,2,1,E-,1,5,2,400,600,250.0,5,C12CW,61,train
410.6600284576416,4,0,5,3,2,1,E-,0,3,3,400,600,250.0,4,C12CW,62,train
186.61808967590332,4,0,5,3,2,1,E-,1,1,5,400,600,250.0,1,C12CW,63,train
138.67592811584473,4,0,5,3,2,1,E-,1,0,1,400,600,250.0,0,C12CW,64,train
218.4598445892334,4,0,5,3,2,1,E-,1,3,3,400,600,250.0,3,C12CW,65,train
186.8729591369629,4,0,5,3,2,1,E-,1,5,2,400,600,250.0,5,C12CW,66,train
74.68295097351074,4,0,5,3,2,1,E-,1,0,1,400,600,250.0,0,C12CW,67,train
282.4709415435791,4,0,5,3,2,1,E-,0,4,0,400,600,250.0,3,C12CW,68,train
171.16880416870117,4,0,5,3,2,1,E-,1,5,2,400,600,250.0,5,C12CW,69,train
184.77892875671387,4,0,5,3,2,1,E-,1,2,4,400,600,250.0,2,C12CW,70,train
107.13315010070801,4,0,5,3,2,1,E-,1,3,3,400,600,250.0,3,C12CW,71,train
91.4311408996582,4,0,5,3,2,1,E-,1,4,0,400,600,250.0,4,C12CW,72,train
234.60793495178223,4,0,5,3,2,1,E-,1,2,4,400,600,250.0,2,C12CW,73,train
155.0118923187256,4,0,5,3,2,1,E-,1,3,3,400,600,250.0,3,C12CW,74,train
200.89387893676758,4,0,5,3,2,1,E-,1,4,0,400,600,250.0,4,C12CW,75,train
138.962984085083,4,0,5,3,2,1,E-,0,1,5,400,600,250.0,2,C12CW,76,train
58.6240291595459,4,0,5,3,2,1,E-,1,1,5,400,600,250.0,1,C12CW,77,train
26.67379379272461,4,0,5,3,2,1,E-,0,4,0,400,600,250.0,1,C12CW,78,train
42.63901710510254,4,0,5,3,2,1,E-,1,0,1,400,600,250.0,0,C12CW,79,train
378.73101234436035,4,0,5,3,2,1,E-,1,1,5,400,600,250.0,1,C12CW,80,train
186.96880340576172,4,0,5,3,2,1,E-,1,2,4,400,600,250.0,2,C12CW,81,train
138.7181282043457,4,0,5,3,2,1,E-,0,4,0,400,600,250.0,3,C12CW,82,train
266.8931484222412,4,0,5,3,2,1,E-,1,3,3,400,600,250.0,3,C12CW,83,train
345.84808349609375,4,0,5,3,2,1,E-,1,2,4,400,600,250.0,2,C12CW,84,train
298.56419563293457,4,0,5,3,2,1,E-,1,0,1,400,600,250.0,0,C12CW,85,train
122.96700477600098,4,0,5,3,2,1,E-,1,2,4,400,600,250.0,2,C12CW,86,train
106.38117790222168,4,0,5,3,2,1,E-,1,0,1,400,600,250.0,0,C12CW,87,train
266.7429447174072,4,0,5,3,2,1,E-,1,4,0,400,600,250.0,4,C12CW,88,train
1674.4811534881592,4,0,5,3,2,1,E-,0,5,2,400,600,250.0,4,C12CW,89,train
424.78299140930176,4,0,5,3,2,1,E-,1,3,3,400,600,250.0,3,C12CW,90,train
202.78382301330566,4,0,5,3,2,1,E-,1,1,5,400,600,250.0,1,C12CW,91,train
154.36506271362305,4,0,5,3,2,1,E-,1,2,4,400,600,250.0,2,C12CW,92,train
74.80788230895996,4,0,5,3,2,1,E-,1,0,1,400,600,250.0,0,C12CW,93,train
106.72903060913086,4,0,5,3,2,1,E-,1,1,5,400,600,250.0,1,C12CW,94,train
10.612964630126953,4,0,5,3,2,1,E-,0,1,5,400,600,250.0,2,C12CW,95,train
634.6580982208252,4,0,5,3,2,1,E-,1,3,3,400,600,250.0,3,C12CW,96,train
106.75501823425293,4,0,5,3,2,1,E-,1,2,4,400,600,250.0,2,C12CW,97,train
218.36400032043457,4,0,5,3,2,1,E-,1,2,4,400,600,250.0,2,C12CW,98,train
74.22900199890137,4,0,5,3,2,1,E-,1,2,4,400,600,250.0,2,C12CW,99,train
203.2167911529541,4,0,5,3,2,1,E-,1,0,1,400,600,250.0,0,C12CW,100,train
42.626142501831055,4,0,5,3,2,1,E-,1,1,5,400,600,250.0,1,C12CW,101,train
346.7538356781006,4,0,5,3,2,1,E-,1,0,1,400,600,250.0,0,C12CW,102,train
330.97100257873535,4,0,5,3,2,1,E-,0,4,0,400,600,250.0,3,C12CW,103,train
234.6351146697998,4,0,5,3,2,1,E-,1,4,0,400,600,250.0,4,C12CW,104,train
347.10693359375,4,0,5,3,2,1,E-,1,3,3,400,600,250.0,3,C12CW,105,train
138.9479637145996,4,0,5,3,2,1,E-,0,4,0,400,600,250.0,3,C12CW,106,train
234.61604118347168,4,0,5,3,2,1,E-,1,4,0,400,600,250.0,4,C12CW,107,train
154.57487106323242,4,0,5,3,2,1,E-,1,0,1,400,600,250.0,0,C12CW,108,train
138.58699798583984,4,0,5,3,2,1,E-,1,4,0,400,600,250.0,4,C12CW,109,train
106.49490356445312,4,0,5,3,2,1,E-,1,4,0,400,600,250.0,4,C12CW,110,train
90.42501449584961,4,0,5,3,2,1,E-,0,1,5,400,600,250.0,0,C12CW,111,train
459.08093452453613,4,0,5,3,2,1,E-,1,3,3,400,600,250.0,3,C12CW,112,train
283.2460403442383,4,0,5,3,2,1,E-,1,4,0,400,600,250.0,4,C12CW,113,train
155.13920783996582,4,0,5,3,2,1,E-,1,1,5,400,600,250.0,1,C12CW,114,train
266.6141986846924,4,0,5,3,2,1,E-,1,4,0,400,600,250.0,4,C12CW,115,train
42.48404502868652,4,0,5,3,2,1,E-,1,4,0,400,600,250.0,4,C12CW,116,train
122.68805503845215,4,0,5,3,2,1,E-,1,3,3,400,600,250.0,3,C12CW,117,train
458.6019515991211,4,0,5,3,2,1,E-,1,5,2,400,600,250.0,5,C12CW,118,train
378.58104705810547,4,0,5,3,2,1,E-,1,2,4,400,600,250.0,2,C12CW,119,train
154.69098091125488,4,0,5,3,2,1,E-,1,4,0,400,600,250.0,4,C12CW,120,train
219.0229892730713,4,0,5,3,2,1,E-,0,2,4,400,600,250.0,3,C12CW,121,train
634.660005569458,4,0,5,3,2,1,E-,1,5,2,400,600,250.0,5,C12CW,122,train
267.20309257507324,4,0,5,3,2,1,E-,0,3,3,400,600,250.0,4,C12CW,123,train
122.79415130615234,4,0,5,3,2,1,E-,1,0,1,400,600,250.0,0,C12CW,124,train
426.53799057006836,4,0,5,3,2,1,E-,1,4,0,400,600,250.0,4,C12CW,125,train
154.8299789428711,4,0,5,3,2,1,E-,1,1,5,400,600,250.0,1,C12CW,126,train
107.05804824829102,4,0,5,3,2,1,E-,0,3,3,400,600,250.0,4,C12CW,127,train
152.90188789367676,4,0,5,3,2,1,E-,1,3,3,400,600,250.0,3,C12CW,128,train
202.61383056640625,4,0,5,3,2,1,E-,1,3,3,400,600,250.0,3,C12CW,129,train
106.98294639587402,4,0,5,3,2,1,E-,0,1,5,400,600,250.0,3,C12CW,130,train
282.3960781097412,4,0,5,3,2,1,E-,1,3,3,400,600,250.0,3,C12CW,131,train
362.8270626068115,4,0,5,3,2,1,E-,1,4,0,400,600,250.0,4,C12CW,132,train
330.95693588256836,4,0,5,3,2,1,E-,1,3,3,400,600,250.0,3,C12CW,133,train
298.6629009246826,4,0,5,3,2,1,E-,1,2,4,400,600,250.0,2,C12CW,134,train
89.39599990844727,4,0,5,3,2,1,E-,1,1,5,400,600,250.0,1,C12CW,135,train
346.6498851776123,4,0,5,3,2,1,E-,1,5,2,400,600,250.0,5,C12CW,136,train
90.61408042907715,4,0,5,3,2,1,E-,1,0,1,400,600,250.0,0,C12CW,137,train
203.34506034851074,4,0,5,3,2,1,E-,1,4,0,400,600,250.0,4,C12CW,138,train
75.06680488586426,4,0,5,3,2,1,E-,1,0,1,400,600,250.0,0,C12CW,139,train
91.03703498840332,4,0,5,3,2,1,E-,1,1,5,400,600,250.0,1,C12CW,140,train
0.11992454528808594,4,0,5,3,2,1,E-,1,2,4,400,600,250.0,2,C12CW,141,train
75.07610321044922,4,0,5,3,2,1,E-,1,4,0,400,600,250.0,4,C12CW,142,train
186.55896186828613,4,0,5,3,2,1,E-,1,3,3,400,600,250.0,3,C12CW,143,train
154.83593940734863,4,0,5,3,2,1,E-,0,2,4,400,600,250.0,1,C12CW,144,train
202.9440402984619,4,0,5,3,2,1,E-,1,3,3,400,600,250.0,3,C12CW,145,train
232.34295845031738,4,0,5,3,2,1,E-,1,3,3,400,600,250.0,3,C12CW,146,train
218.71495246887207,4,0,5,3,2,1,E-,1,2,4,400,600,250.0,2,C12CW,147,train
122.3001480102539,4,0,5,3,2,1,E-,1,0,1,400,600,250.0,0,C12CW,148,train
986.6189956665039,4,0,5,3,2,1,E-,1,5,2,400,600,250.0,5,C12CW,149,train
90.86799621582031,4,0,5,3,2,1,E-,1,5,2,400,600,250.0,5,C12CW,150,train
186.79189682006836,4,0,5,3,2,1,E-,1,4,0,400,600,250.0,4,C12CW,151,train
346.58098220825195,4,0,5,3,2,1,E-,1,4,0,400,600,250.0,4,C12CW,152,train
186.48505210876465,4,0,5,3,2,1,E-,1,4,0,400,600,250.0,4,C12CW,153,train
314.93210792541504,4,0,5,3,2,1,E-,1,2,4,400,600,250.0,2,C12CW,154,train
122.06697463989258,4,0,5,3,2,1,E-,1,2,4,400,600,250.0,2,C12CW,155,train
361.7849349975586,4,0,5,3,2,1,E-,1,4,0,400,600,250.0,4,C12CW,156,train
90.58308601379395,4,0,5,3,2,1,E-,0,1,5,400,600,250.0,2,C12CW,157,train
170.86291313171387,4,0,5,3,2,1,E-,1,4,0,400,600,250.0,4,C12CW,158,train
650.9239673614502,4,0,5,3,2,1,E-,1,1,5,400,600,250.0,1,C12CW,159,train
714.8270606994629,4,0,5,3,2,1,E-,1,3,3,400,600,250.0,3,C12CW,160,train
218.63508224487305,4,0,5,3,2,1,E-,1,0,1,400,600,250.0,0,C12CW,161,train
778.6180973052979,4,0,5,3,2,1,E-,1,3,3,400,600,250.0,3,C12CW,162,train
378.9360523223877,4,0,5,3,2,1,E-,1,2,4,400,600,250.0,2,C12CW,163,train
187.0429515838623,4,0,5,3,2,1,E-,1,1,5,400,600,250.0,1,C12CW,164,train
234.5561981201172,4,0,5,3,2,1,E-,1,5,2,400,600,250.0,5,C12CW,165,train
570.5029964447021,4,0,5,3,2,1,E-,1,3,3,400,600,250.0,3,C12CW,166,train
171.18096351623535,4,0,5,3,2,1,E-,1,2,4,400,600,250.0,2,C12CW,167,train
250.61988830566406,4,0,5,3,2,1,E-,1,4,0,400,600,250.0,4,C12CW,168,train
234.45796966552734,4,0,5,3,2,1,E-,1,1,5,400,600,250.0,1,C12CW,169,train
171.0810661315918,4,0,5,3,2,1,E-,1,2,4,400,600,250.0,2,C12CW,170,train
202.5589942932129,4,0,5,3,2,1,E-,1,2,4,400,600,250.0,2,C12CW,171,train
154.79779243469238,4,0,5,3,2,1,E-,1,1,5,400,600,250.0,1,C12CW,172,train
218.58716011047363,4,0,5,3,2,1,E-,1,5,2,400,600,250.0,5,C12CW,173,train
138.39292526245117,4,0,5,3,2,1,E-,1,5,2,400,600,250.0,5,C12CW,174,train
523.0910778045654,4,0,5,3,2,1,E-,1,2,4,400,600,250.0,2,C12CW,175,train
266.9239044189453,4,0,5,3,2,1,E-,1,2,4,400,600,250.0,2,C12CW,176,train
106.71114921569824,4,0,5,3,2,1,E-,1,1,5,400,600,250.0,1,C12CW,177,train
202.62694358825684,4,0,5,3,2,1,E-,1,4,0,400,600,250.0,4,C12CW,178,train
218.69897842407227,4,0,5,3,2,1,E-,1,2,4,400,600,250.0,2,C12CW,179,train
138.61393928527832,4,0,5,3,2,1,E-,1,0,1,400,600,250.0,0,C12CW,180,train
506.7708492279053,4,0,5,3,2,1,E-,1,5,2,400,600,250.0,5,C12CW,181,train
154.57510948181152,4,0,5,3,2,1,E-,1,0,1,400,600,250.0,0,C12CW,182,train
186.45286560058594,4,0,5,3,2,1,E-,1,2,4,400,600,250.0,2,C12CW,183,train
282.99999237060547,4,0,5,3,2,1,E-,1,2,4,400,600,250.0,2,C12CW,184,train
122.70379066467285,4,0,5,3,2,1,E-,1,1,5,400,600,250.0,1,C12CW,185,train
106.64105415344238,4,0,5,3,2,1,E-,1,1,5,400,600,250.0,1,C12CW,186,train
91.10808372497559,4,0,5,3,2,1,E-,1,0,1,400,600,250.0,0,C12CW,187,train
138.6728286743164,4,0,5,3,2,1,E-,1,2,4,400,600,250.0,2,C12CW,188,train
91.19606018066406,4,0,5,3,2,1,E-,1,0,1,400,600,250.0,0,C12CW,189,train
218.43504905700684,4,0,5,3,2,1,E-,1,5,2,400,600,250.0,5,C12CW,190,train
106.61792755126953,4,0,5,3,2,1,E-,1,0,1,400,600,250.0,0,C12CW,191,train
27.07505226135254,4,0,5,3,2,1,E-,1,0,1,400,600,250.0,0,C12CW,192,train
122.88594245910645,4,0,5,3,2,1,E-,1,1,5,400,600,250.0,1,C12CW,193,train
234.91907119750977,4,0,5,3,2,1,E-,1,4,0,400,600,250.0,4,C12CW,194,train
186.65289878845215,4,0,5,3,2,1,E-,1,5,2,400,600,250.0,5,C12CW,195,train
187.06011772155762,4,0,5,3,2,1,E-,1,5,2,400,600,250.0,5,C12CW,196,train
90.83700180053711,4,0,5,3,2,1,E-,1,0,1,400,600,250.0,0,C12CW,197,train
427.02698707580566,4,0,5,3,2,1,E-,1,2,4,400,600,250.0,2,C12CW,198,train
266.7510509490967,4,0,5,3,2,1,E-,1,3,3,400,600,250.0,3,C12CW,199,train
346.5142250061035,4,0,5,3,2,1,E-,1,4,0,400,600,250.0,4,C12CW,200,train
378.9050579071045,4,0,5,3,2,1,E-,0,3,3,400,600,250.0,2,C12CW,201,train
186.97309494018555,4,0,5,3,2,1,E-,1,3,3,400,600,250.0,3,C12CW,202,train
571.1028575897217,4,0,5,3,2,1,E-,1,5,2,400,600,250.0,5,C12CW,203,train
394.726037979126,4,0,5,3,2,1,E-,1,3,3,400,600,250.0,3,C12CW,204,train
154.60991859436035,4,0,5,3,2,1,E-,1,3,3,400,600,250.0,3,C12CW,205,train
170.9120273590088,4,0,5,3,2,1,E-,1,0,1,400,600,250.0,0,C12CW,206,train
250.49781799316406,4,0,5,3,2,1,E-,1,5,2,400,600,250.0,5,C12CW,207,train
154.91795539855957,4,0,5,3,2,1,E-,1,0,1,400,600,250.0,0,C12CW,208,train
395.07389068603516,4,0,5,3,2,1,E-,1,3,3,400,600,250.0,3,C12CW,209,train
298.8450527191162,4,0,5,3,2,1,E-,1,0,1,400,600,250.0,0,C12CW,210,train
154.61015701293945,4,0,5,3,2,1,E-,1,3,3,400,600,250.0,3,C12CW,211,train
122.53403663635254,4,0,5,3,2,1,E-,1,1,5,400,600,250.0,1,C12CW,212,train
778.569221496582,4,0,5,3,2,1,E-,1,4,0,400,600,250.0,4,C12CW,213,train
266.37887954711914,4,0,5,3,2,1,E-,1,1,5,400,600,250.0,1,C12CW,214,train
378.89909744262695,4,0,5,3,2,1,E-,1,4,0,400,600,250.0,4,C12CW,215,train
555.0000667572021,4,0,5,3,2,1,E-,1,3,3,400,600,250.0,3,C12CW,216,train
154.9232006072998,4,0,5,3,2,1,E-,1,3,3,400,600,250.0,3,C12CW,217,train
538.931131362915,4,0,5,3,2,1,E-,1,2,4,400,600,250.0,2,C12CW,218,train
362.32805252075195,4,0,5,3,2,1,E-,1,5,2,400,600,250.0,5,C12CW,219,train
186.57517433166504,4,0,5,3,2,1,E-,1,5,2,400,600,250.0,5,C12CW,220,train
10.513067245483398,4,0,5,3,2,1,E-,1,5,2,400,600,250.0,5,C12CW,221,train
281.04209899902344,4,0,5,3,2,1,E-,1,2,4,400,600,250.0,2,C12CW,222,train
90.56806564331055,4,0,5,3,2,1,E-,1,1,5,400,600,250.0,1,C12CW,223,train
170.80211639404297,4,0,5,3,2,1,E-,1,3,3,400,600,250.0,3,C12CW,224,train
138.9920711517334,4,0,5,3,2,1,E-,1,1,5,400,600,250.0,1,C12CW,225,train
266.83497428894043,4,0,5,3,2,1,E-,1,4,0,400,600,250.0,4,C12CW,226,train
250.46610832214355,4,0,5,3,2,1,E-,1,1,5,400,600,250.0,1,C12CW,227,train
123.43907356262207,4,0,5,3,2,1,E-,1,0,1,400,600,250.0,0,C12CW,228,train
218.53089332580566,4,0,5,3,2,1,E-,1,3,3,400,600,250.0,3,C12CW,229,train
171.00000381469727,4,0,5,3,2,1,E-,1,5,2,400,600,250.0,5,C12CW,230,train
155.57599067687988,4,0,5,3,2,1,E-,1,3,3,400,600,250.0,3,C12CW,231,train
234.76600646972656,4,0,5,3,2,1,E-,1,3,3,400,600,250.0,3,C12CW,232,train
314.58401679992676,4,0,5,3,2,1,E-,1,4,0,400,600,250.0,4,C12CW,233,train
378.61108779907227,4,0,5,3,2,1,E-,1,1,5,400,600,250.0,1,C12CW,234,train
699.0377902984619,4,0,5,3,2,1,E-,1,5,2,400,600,250.0,5,C12CW,235,train
330.98697662353516,4,0,5,3,2,1,E-,1,1,5,400,600,250.0,1,C12CW,236,train
106.98890686035156,4,0,5,3,2,1,E-,1,1,5,400,600,250.0,1,C12CW,237,train
411.1201763153076,4,0,5,3,2,1,E-,1,2,4,400,600,250.0,2,C12CW,238,train
203.08494567871094,4,0,5,3,2,1,E-,1,3,3,400,600,250.0,3,C12CW,239,train
138.60201835632324,4,0,5,3,2,1,E-,0,2,4,400,600,250.0,3,C12CW,240,train
522.7839946746826,4,0,5,3,2,1,E-,1,2,4,400,600,250.0,2,C12CW,241,train
106.59909248352051,4,0,5,3,2,1,E-,1,0,1,400,600,250.0,0,C12CW,242,train
42.57488250732422,4,0,5,3,2,1,E-,1,2,4,400,600,250.0,2,C12CW,243,train
58.54201316833496,4,0,5,3,2,1,E-,1,0,1,400,600,250.0,0,C12CW,244,train
410.7861518859863,4,0,5,3,2,1,E-,1,4,0,400,600,250.0,4,C12CW,245,train
41.12410545349121,4,0,5,3,2,1,E-,1,4,0,400,600,250.0,4,C12CW,246,train
26.592016220092773,4,0,5,3,2,1,E-,1,1,5,400,600,250.0,1,C12CW,247,train
74.39899444580078,4,0,5,3,2,1,E-,0,2,4,400,600,250.0,3,C12CW,248,train
154.5729637145996,4,0,5,3,2,1,E-,1,0,1,400,600,250.0,0,C12CW,249,train
2256.998062133789,3,2,1,5,4,0,E-,0,5,3,0,1000,250.0,2,C12CW,250,test
1888.6160850524902,3,2,1,5,4,0,E-,0,1,2,0,1000,250.0,3,C12CW,251,test
1536.9319915771484,3,2,1,5,4,0,E-,1,1,2,0,1000,250.0,1,C12CW,252,test
2720.431089401245,3,2,1,5,4,0,E-,1,0,5,0,1000,250.0,0,C12CW,253,test
928.6999702453613,3,2,1,5,4,0,E-,1,1,2,0,1000,250.0,1,C12CW,254,test
624.4180202484131,3,2,1,5,4,0,E-,1,1,2,0,1000,250.0,1,C12CW,255,test
816.8990612030029,3,2,1,5,4,0,E-,1,3,0,0,1000,250.0,3,C12CW,256,test
960.395097732544,3,2,1,5,4,0,E-,1,2,1,0,1000,250.0,2,C12CW,257,test
704.5879364013672,3,2,1,5,4,0,E-,1,2,1,0,1000,250.0,2,C12CW,258,test
752.9759407043457,3,2,1,5,4,0,E-,1,4,4,0,1000,250.0,4,C12CW,259,test
592.9350852966309,3,2,1,5,4,0,E-,1,4,4,0,1000,250.0,4,C12CW,260,test
576.5259265899658,3,2,1,5,4,0,E-,0,3,0,0,1000,250.0,4,C12CW,261,test
721.0009098052979,3,2,1,5,4,0,E-,1,4,4,0,1000,250.0,4,C12CW,262,test
672.1198558807373,3,2,1,5,4,0,E-,1,4,4,0,1000,250.0,4,C12CW,263,test
1984.633207321167,3,2,1,5,4,0,E-,1,2,1,0,1000,250.0,2,C12CW,264,test
1040.5690670013428,3,2,1,5,4,0,E-,1,0,5,0,1000,250.0,0,C12CW,265,test
2241.163969039917,3,2,1,5,4,0,E-,1,3,0,0,1000,250.0,3,C12CW,266,test
640.388011932373,3,2,1,5,4,0,E-,1,0,5,0,1000,250.0,0,C12CW,267,test
1696.2990760803223,3,2,1,5,4,0,E-,0,2,1,0,1000,250.0,1,C12CW,268,test
1137.333869934082,3,2,1,5,4,0,E-,1,3,0,0,1000,250.0,3,C12CW,269,test
576.5640735626221,3,2,1,5,4,0,E-,1,0,5,0,1000,250.0,0,C12CW,270,test
704.5769691467285,3,2,1,5,4,0,E-,1,1,2,0,1000,250.0,1,C12CW,271,test
688.4431838989258,3,2,1,5,4,0,E-,1,4,4,0,1000,250.0,4,C12CW,272,test
4208.193063735962,3,2,1,5,4,0,E-,1,3,0,0,1000,250.0,3,C12CW,273,test
784.653902053833,3,2,1,5,4,0,E-,1,5,3,0,1000,250.0,5,C12CW,274,test
560.5690479278564,3,2,1,5,4,0,E-,1,4,4,0,1000,250.0,4,C12CW,275,test
672.6560592651367,3,2,1,5,4,0,E-,1,5,3,0,1000,250.0,5,C12CW,276,test
736.6290092468262,3,2,1,5,4,0,E-,1,1,2,0,1000,250.0,1,C12CW,277,test
704.9500942230225,3,2,1,5,4,0,E-,0,3,0,0,1000,250.0,4,C12CW,278,test
1264.941930770874,3,2,1,5,4,0,E-,1,2,1,0,1000,250.0,2,C12CW,279,test
592.310905456543,3,2,1,5,4,0,E-,1,2,1,0,1000,250.0,2,C12CW,280,test
1184.4570636749268,3,2,1,5,4,0,E-,1,0,5,0,1000,250.0,0,C12CW,281,test
769.4540023803711,3,2,1,5,4,0,E-,1,1,2,0,1000,250.0,1,C12CW,282,test
560.9698295593262,3,2,1,5,4,0,E-,1,1,2,0,1000,250.0,1,C12CW,283,test
576.977014541626,3,2,1,5,4,0,E-,1,1,2,0,1000,250.0,1,C12CW,284,test
481.1878204345703,3,2,1,5,4,0,E-,1,1,2,0,1000,250.0,1,C12CW,285,test
496.42205238342285,3,2,1,5,4,0,E-,1,5,3,0,1000,250.0,5,C12CW,286,test
817.0890808105469,3,2,1,5,4,0,E-,1,3,0,0,1000,250.0,3,C12CW,287,test
448.3599662780762,3,2,1,5,4,0,E-,0,0,5,0,1000,250.0,5,C12CW,288,test
688.521146774292,3,2,1,5,4,0,E-,0,2,1,0,1000,250.0,1,C12CW,289,test
592.0391082763672,3,2,1,5,4,0,E-,1,0,5,0,1000,250.0,0,C12CW,290,test
592.8399562835693,3,2,1,5,4,0,E-,1,5,3,0,1000,250.0,5,C12CW,291,test
784.4810485839844,3,2,1,5,4,0,E-,1,1,2,0,1000,250.0,1,C12CW,292,test
592.5710201263428,3,2,1,5,4,0,E-,1,0,5,0,1000,250.0,0,C12CW,293,test
1072.5879669189453,3,2,1,5,4,0,E-,1,1,2,0,1000,250.0,1,C12CW,294,test
608.4518432617188,3,2,1,5,4,0,E-,1,0,5,0,1000,250.0,0,C12CW,295,test
465.49201011657715,3,2,1,5,4,0,E-,1,0,5,0,1000,250.0,0,C12CW,296,test
1616.4491176605225,3,2,1,5,4,0,E-,1,4,4,0,1000,250.0,4,C12CW,297,test
464.92910385131836,3,2,1,5,4,0,E-,1,4,4,0,1000,250.0,4,C12CW,298,test
609.0121269226074,3,2,1,5,4,0,E-,1,5,3,0,1000,250.0,5,C12CW,299,test
816.349983215332,3,2,1,5,4,0,E-,1,1,2,0,1000,250.0,1,C12CW,300,test
640.6309604644775,3,2,1,5,4,0,E-,1,4,4,0,1000,250.0,4,C12CW,301,test
624.488115310669,3,2,1,5,4,0,E-,0,2,1,0,1000,250.0,1,C12CW,302,test
624.5691776275635,3,2,1,5,4,0,E-,0,3,0,0,1000,250.0,4,C12CW,303,test
2384.629964828491,3,2,1,5,4,0,E-,1,2,1,0,1000,250.0,2,C12CW,304,test
1056.9720268249512,3,2,1,5,4,0,E-,1,3,0,0,1000,250.0,3,C12CW,305,test
688.6389255523682,3,2,1,5,4,0,E-,1,5,3,0,1000,250.0,5,C12CW,306,test
1728.3809185028076,3,2,1,5,4,0,E-,1,2,1,0,1000,250.0,2,C12CW,307,test
912.7302169799805,3,2,1,5,4,0,E-,1,0,5,0,1000,250.0,0,C12CW,308,test
608.875036239624,3,2,1,5,4,0,E-,1,5,3,0,1000,250.0,5,C12CW,309,test
2736.868143081665,3,2,1,5,4,0,E-,1,3,0,0,1000,250.0,3,C12CW,310,test
1233.004093170166,3,2,1,5,4,0,E-,1,5,3,0,1000,250.0,5,C12CW,311,test
992.7511215209961,3,2,1,5,4,0,E-,0,2,1,0,1000,250.0,1,C12CW,312,test
1600.3859043121338,3,2,1,5,4,0,E-,1,2,1,0,1000,250.0,2,C12CW,313,test
1952.5070190429688,3,2,1,5,4,0,E-,1,4,4,0,1000,250.0,4,C12CW,314,test
560.5459213256836,3,2,1,5,4,0,E-,1,5,3,0,1000,250.0,5,C12CW,315,test
640.949010848999,3,2,1,5,4,0,E-,1,0,5,0,1000,250.0,0,C12CW,316,test
705.0061225891113,3,2,1,5,4,0,E-,0,2,1,0,1000,250.0,1,C12CW,317,test
496.23799324035645,3,2,1,5,4,0,E-,0,1,2,0,1000,250.0,2,C12CW,318,test
1248.1958866119385,3,2,1,5,4,0,E-,1,4,4,0,1000,250.0,4,C12CW,319,test
1392.4839496612549,3,2,1,5,4,0,E-,1,5,3,0,1000,250.0,5,C12CW,320,test
752.5949478149414,3,2,1,5,4,0,E-,1,1,2,0,1000,250.0,1,C12CW,321,test
832.6399326324463,3,2,1,5,4,0,E-,1,4,4,0,1000,250.0,4,C12CW,322,test
639.9450302124023,3,2,1,5,4,0,E-,1,1,2,0,1000,250.0,1,C12CW,323,test
720.5538749694824,3,2,1,5,4,0,E-,1,2,1,0,1000,250.0,2,C12CW,324,test
640.570878982544,3,2,1,5,4,0,E-,1,0,5,0,1000,250.0,0,C12CW,325,test
2080.6281566619873,3,2,1,5,4,0,E-,1,3,0,0,1000,250.0,3,C12CW,326,test
640.7909393310547,3,2,1,5,4,0,E-,0,2,1,0,1000,250.0,1,C12CW,327,test
1184.6599578857422,3,2,1,5,4,0,E-,1,4,4,0,1000,250.0,4,C12CW,328,test
2000.4680156707764,3,2,1,5,4,0,E-,1,4,4,0,1000,250.0,4,C12CW,329,test
2656.9299697875977,3,2,1,5,4,0,E-,1,0,5,0,1000,250.0,0,C12CW,330,test
480.6239604949951,3,2,1,5,4,0,E-,1,0,5,0,1000,250.0,0,C12CW,331,test
640.7148838043213,3,2,1,5,4,0,E-,1,5,3,0,1000,250.0,5,C12CW,332,test
480.61299324035645,3,2,1,5,4,0,E-,1,5,3,0,1000,250.0,5,C12CW,333,test
640.7630443572998,3,2,1,5,4,0,E-,1,4,4,0,1000,250.0,4,C12CW,334,test
479.11882400512695,3,2,1,5,4,0,E-,1,4,4,0,1000,250.0,4,C12CW,335,test
1184.2880249023438,3,2,1,5,4,0,E-,1,2,1,0,1000,250.0,2,C12CW,336,test
1056.9469928741455,3,2,1,5,4,0,E-,1,1,2,0,1000,250.0,1,C12CW,337,test
528.4440517425537,3,2,1,5,4,0,E-,1,1,2,0,1000,250.0,1,C12CW,338,test
527.9190540313721,3,2,1,5,4,0,E-,1,1,2,0,1000,250.0,1,C12CW,339,test
720.35813331604,3,2,1,5,4,0,E-,1,0,5,0,1000,250.0,0,C12CW,340,test
640.8929824829102,3,2,1,5,4,0,E-,1,5,3,0,1000,250.0,5,C12CW,341,test
624.9408721923828,3,2,1,5,4,0,E-,1,4,4,0,1000,250.0,4,C12CW,342,test
625.006914138794,3,2,1,5,4,0,E-,1,5,3,0,1000,250.0,5,C12CW,343,test
1328.9949893951416,3,2,1,5,4,0,E-,1,2,1,0,1000,250.0,2,C12CW,344,test
1808.668851852417,3,2,1,5,4,0,E-,1,0,5,0,1000,250.0,0,C12CW,345,test
704.7841548919678,3,2,1,5,4,0,E-,1,0,5,0,1000,250.0,0,C12CW,346,test
1185.0309371948242,3,2,1,5,4,0,E-,1,3,0,0,1000,250.0,3,C12CW,347,test
576.9109725952148,3,2,1,5,4,0,E-,1,0,5,0,1000,250.0,0,C12CW,348,test
464.7250175476074,3,2,1,5,4,0,E-,1,5,3,0,1000,250.0,5,C12CW,349,test
1408.5428714752197,3,2,1,5,4,0,E-,1,3,0,0,1000,250.0,3,C12CW,350,test
656.3708782196045,3,2,1,5,4,0,E-,0,0,5,0,1000,250.0,3,C12CW,351,test
769.0060138702393,3,2,1,5,4,0,E-,1,1,2,0,1000,250.0,1,C12CW,352,test
608.9968681335449,3,2,1,5,4,0,E-,1,0,5,0,1000,250.0,0,C12CW,353,test
1328.59206199646,3,2,1,5,4,0,E-,1,3,0,0,1000,250.0,3,C12CW,354,test
960.9830379486084,3,2,1,5,4,0,E-,1,0,5,0,1000,250.0,0,C12CW,355,test
1328.361988067627,3,2,1,5,4,0,E-,1,2,1,0,1000,250.0,2,C12CW,356,test
896.6410160064697,3,2,1,5,4,0,E-,1,0,5,0,1000,250.0,0,C12CW,357,test
1040.9889221191406,3,2,1,5,4,0,E-,1,5,3,0,1000,250.0,5,C12CW,358,test
1584.6529006958008,3,2,1,5,4,0,E-,1,3,0,0,1000,250.0,3,C12CW,359,test
848.4799861907959,3,2,1,5,4,0,E-,1,4,4,0,1000,250.0,4,C12CW,360,test
1329.0698528289795,3,2,1,5,4,0,E-,1,2,1,0,1000,250.0,2,C12CW,361,test
1601.085901260376,3,2,1,5,4,0,E-,1,3,0,0,1000,250.0,3,C12CW,362,test
768.4080600738525,3,2,1,5,4,0,E-,1,1,2,0,1000,250.0,1,C12CW,363,test
992.6700592041016,3,2,1,5,4,0,E-,1,4,4,0,1000,250.0,4,C12CW,364,test
800.9390830993652,3,2,1,5,4,0,E-,1,5,3,0,1000,250.0,5,C12CW,365,test
768.9828872680664,3,2,1,5,4,0,E-,1,1,2,0,1000,250.0,1,C12CW,366,test
512.9001140594482,3,2,1,5,4,0,E-,1,1,2,0,1000,250.0,1,C12CW,367,test
2224.8549461364746,3,2,1,5,4,0,E-,1,0,5,0,1000,250.0,0,C12CW,368,test
1264.9998664855957,3,2,1,5,4,0,E-,1,5,3,0,1000,250.0,5,C12CW,369,test
4142.4901485443115,3,2,1,5,4,0,E-,1,4,4,0,1000,250.0,4,C12CW,370,test
1537.019968032837,3,2,1,5,4,0,E-,1,3,0,0,1000,250.0,3,C12CW,371,test
992.6600456237793,3,2,1,5,4,0,E-,1,2,1,0,1000,250.0,2,C12CW,372,test
704.704999923706,3,2,1,5,4,0,E-,1,4,4,0,1000,250.0,4,C12CW,373,test
848.9589691162109,3,2,1,5,4,0,E-,1,1,2,0,1000,250.0,1,C12CW,374,test
1135.5690956115723,3,2,1,5,4,0,E-,1,3,0,0,1000,250.0,3,C12CW,375,test
608.9978218078613,3,2,1,5,4,0,E-,1,5,3,0,1000,250.0,5,C12CW,376,test
769.0041065216064,3,2,1,5,4,0,E-,1,4,4,0,1000,250.0,4,C12CW,377,test
1232.9308986663818,3,2,1,5,4,0,E-,0,3,0,0,1000,250.0,4,C12CW,378,test
784.5480442047119,3,2,1,5,4,0,E-,1,5,3,0,1000,250.0,5,C12CW,379,test
672.8649139404297,3,2,1,5,4,0,E-,1,5,3,0,1000,250.0,5,C12CW,380,test
528.9781093597412,3,2,1,5,4,0,E-,1,5,3,0,1000,250.0,5,C12CW,381,test
960.939884185791,3,2,1,5,4,0,E-,1,2,1,0,1000,250.0,2,C12CW,382,test
1217.0820236206055,3,2,1,5,4,0,E-,0,3,0,0,1000,250.0,4,C12CW,383,test
2176.02801322937,3,2,1,5,4,0,E-,1,0,5,0,1000,250.0,0,C12CW,384,test
2128.934860229492,3,2,1,5,4,0,E-,1,3,0,0,1000,250.0,3,C12CW,385,test
657.0861339569092,3,2,1,5,4,0,E-,1,5,3,0,1000,250.0,5,C12CW,386,test
2000.1330375671387,3,2,1,5,4,0,E-,1,1,2,0,1000,250.0,1,C12CW,387,test
1488.994836807251,3,2,1,5,4,0,E-,1,3,0,0,1000,250.0,3,C12CW,388,test
1344.6638584136963,3,2,1,5,4,0,E-,1,5,3,0,1000,250.0,5,C12CW,389,test
1776.6609191894531,3,2,1,5,4,0,E-,1,3,0,0,1000,250.0,3,C12CW,390,test
560.7988834381104,3,2,1,5,4,0,E-,1,4,4,0,1000,250.0,4,C12CW,391,test
512.9818916320801,3,2,1,5,4,0,E-,1,4,4,0,1000,250.0,4,C12CW,392,test
2287.5308990478516,3,2,1,5,4,0,E-,1,0,5,0,1000,250.0,0,C12CW,393,test
560.8208179473877,3,2,1,5,4,0,E-,1,4,4,0,1000,250.0,4,C12CW,394,test
817.0309066772461,3,2,1,5,4,0,E-,1,1,2,0,1000,250.0,1,C12CW,395,test
848.7660884857178,3,2,1,5,4,0,E-,1,2,1,0,1000,250.0,2,C12CW,396,test
800.3289699554443,3,2,1,5,4,0,E-,1,1,2,0,1000,250.0,1,C12CW,397,test
528.8820266723633,3,2,1,5,4,0,E-,1,1,2,0,1000,250.0,1,C12CW,398,test
704.6630382537842,3,2,1,5,4,0,E-,1,4,4,0,1000,250.0,4,C12CW,399,test
480.80897331237793,3,2,1,5,4,0,E-,1,4,4,0,1000,250.0,4,C12CW,400,test
1808.704137802124,3,2,1,5,4,0,E-,1,3,0,0,1000,250.0,3,C12CW,401,test
944.9560642242432,3,2,1,5,4,0,E-,1,5,3,0,1000,250.0,5,C12CW,402,test
1072.9620456695557,3,2,1,5,4,0,E-,1,2,1,0,1000,250.0,2,C12CW,403,test
1072.2029209136963,3,2,1,5,4,0,E-,1,3,0,0,1000,250.0,3,C12CW,404,test
526.5111923217773,3,2,1,5,4,0,E-,1,5,3,0,1000,250.0,5,C12CW,405,test
657.0520401000977,3,2,1,5,4,0,E-,1,0,5,0,1000,250.0,0,C12CW,406,test
656.965970993042,3,2,1,5,4,0,E-,1,1,2,0,1000,250.0,1,C12CW,407,test
1008.9139938354492,3,2,1,5,4,0,E-,1,3,0,0,1000,250.0,3,C12CW,408,test
576.9720077514648,3,2,1,5,4,0,E-,1,4,4,0,1000,250.0,4,C12CW,409,test
833.0338001251221,3,2,1,5,4,0,E-,1,5,3,0,1000,250.0,5,C12CW,410,test
608.3018779754639,3,2,1,5,4,0,E-,1,5,3,0,1000,250.0,5,C12CW,411,test
528.8209915161133,3,2,1,5,4,0,E-,1,5,3,0,1000,250.0,5,C12CW,412,test
464.83612060546875,3,2,1,5,4,0,E-,1,5,3,0,1000,250.0,5,C12CW,413,test
448.9719867706299,3,2,1,5,4,0,E-,1,5,3,0,1000,250.0,5,C12CW,414,test
641.0460472106934,3,2,1,5,4,0,E-,1,4,4,0,1000,250.0,4,C12CW,415,test
465.12699127197266,3,2,1,5,4,0,E-,0,5,3,0,1000,250.0,4,C12CW,416,test
592.6430225372314,3,2,1,5,4,0,E-,1,4,4,0,1000,250.0,4,C12CW,417,test
640.7129764556885,3,2,1,5,4,0,E-,1,1,2,0,1000,250.0,1,C12CW,418,test
913.0110740661621,3,2,1,5,4,0,E-,1,2,1,0,1000,250.0,2,C12CW,419,test
512.394905090332,3,2,1,5,4,0,E-,1,5,3,0,1000,250.0,5,C12CW,420,test
624.7379779815674,3,2,1,5,4,0,E-,1,1,2,0,1000,250.0,1,C12CW,421,test
689.094066619873,3,2,1,5,4,0,E-,0,3,0,0,1000,250.0,4,C12CW,422,test
544.9907779693604,3,2,1,5,4,0,E-,1,3,0,0,1000,250.0,3,C12CW,423,test
561.1519813537598,3,2,1,5,4,0,E-,1,0,5,0,1000,250.0,0,C12CW,424,test
497.38407135009766,3,2,1,5,4,0,E-,1,5,3,0,1000,250.0,5,C12CW,425,test
544.0819263458252,3,2,1,5,4,0,E-,1,5,3,0,1000,250.0,5,C12CW,426,test
816.8301582336426,3,2,1,5,4,0,E-,1,1,2,0,1000,250.0,1,C12CW,427,test
625.1339912414551,3,2,1,5,4,0,E-,1,2,1,0,1000,250.0,2,C12CW,428,test
592.8208827972412,3,2,1,5,4,0,E-,1,1,2,0,1000,250.0,1,C12CW,429,test
656.3329696655273,3,2,1,5,4,0,E-,1,1,2,0,1000,250.0,1,C12CW,430,test
896.7640399932861,3,2,1,5,4,0,E-,1,1,2,0,1000,250.0,1,C12CW,431,test
625.1299381256104,3,2,1,5,4,0,E-,1,5,3,0,1000,250.0,5,C12CW,432,test
881.0811042785645,3,2,1,5,4,0,E-,1,2,1,0,1000,250.0,2,C12CW,433,test
1504.852056503296,3,2,1,5,4,0,E-,1,3,0,0,1000,250.0,3,C12CW,434,test
593.0001735687256,3,2,1,5,4,0,E-,1,3,0,0,1000,250.0,3,C12CW,435,test
608.4470748901367,3,2,1,5,4,0,E-,1,3,0,0,1000,250.0,3,C12CW,436,test
561.0580444335938,3,2,1,5,4,0,E-,1,3,0,0,1000,250.0,3,C12CW,437,test
624.4018077850342,3,2,1,5,4,0,E-,1,0,5,0,1000,250.0,0,C12CW,438,test
800.9169101715088,3,2,1,5,4,0,E-,1,2,1,0,1000,250.0,2,C12CW,439,test
640.1300430297852,3,2,1,5,4,0,E-,1,4,4,0,1000,250.0,4,C12CW,440,test
1680.492877960205,3,2,1,5,4,0,E-,1,3,0,0,1000,250.0,3,C12CW,441,test
497.0428943634033,3,2,1,5,4,0,E-,1,3,0,0,1000,250.0,3,C12CW,442,test
608.6928844451904,3,2,1,5,4,0,E-,1,0,5,0,1000,250.0,0,C12CW,443,test
576.9879817962646,3,2,1,5,4,0,E-,1,3,0,0,1000,250.0,3,C12CW,444,test
784.7700119018555,3,2,1,5,4,0,E-,1,2,1,0,1000,250.0,2,C12CW,445,test
512.6500129699707,3,2,1,5,4,0,E-,1,0,5,0,1000,250.0,0,C12CW,446,test
592.8750038146973,3,2,1,5,4,0,E-,1,5,3,0,1000,250.0,5,C12CW,447,test
752.8831958770752,3,2,1,5,4,0,E-,1,1,2,0,1000,250.0,1,C12CW,448,test
2081.057071685791,3,2,1,5,4,0,E-,0,1,2,0,1000,250.0,0,C12CW,449,test
592.9310321807861,3,2,1,5,4,0,E-,1,0,5,0,1000,250.0,0,C12CW,450,test
1104.8598289489746,3,2,1,5,4,0,E-,1,3,0,0,1000,250.0,3,C12CW,451,test
512.915849685669,3,2,1,5,4,0,E-,1,3,0,0,1000,250.0,3,C12CW,452,test
672.1768379211426,3,2,1,5,4,0,E-,1,1,2,0,1000,250.0,1,C12CW,453,test
1249.1059303283691,3,2,1,5,4,0,E-,1,0,5,0,1000,250.0,0,C12CW,454,test
833.0209255218506,3,2,1,5,4,0,E-,1,2,1,0,1000,250.0,2,C12CW,455,test
656.7490100860596,3,2,1,5,4,0,E-,1,1,2,0,1000,250.0,1,C12CW,456,test
688.8329982757568,3,2,1,5,4,0,E-,0,5,3,0,1000,250.0,0,C12CW,457,test
529.1261672973633,3,2,1,5,4,0,E-,1,1,2,0,1000,250.0,1,C12CW,458,test
1824.5649337768555,3,2,1,5,4,0,E-,1,2,1,0,1000,250.0,2,C12CW,459,test
800.6589412689209,3,2,1,5,4,0,E-,1,1,2,0,1000,250.0,1,C12CW,460,test
848.9420413970947,3,2,1,5,4,0,E-,1,4,4,0,1000,250.0,4,C12CW,461,test
1520.6530094146729,3,2,1,5,4,0,E-,1,3,0,0,1000,250.0,3,C12CW,462,test
576.7421722412109,3,2,1,5,4,0,E-,1,3,0,0,1000,250.0,3,C12CW,463,test
640.9602165222168,3,2,1,5,4,0,E-,1,0,5,0,1000,250.0,0,C12CW,464,test
560.6539249420166,3,2,1,5,4,0,E-,1,3,0,0,1000,250.0,3,C12CW,465,test
672.6610660552979,3,2,1,5,4,0,E-,1,1,2,0,1000,250.0,1,C12CW,466,test
736.6921901702881,3,2,1,5,4,0,E-,1,4,4,0,1000,250.0,4,C12CW,467,test
1168.807029724121,3,2,1,5,4,0,E-,1,2,1,0,1000,250.0,2,C12CW,468,test
1086.4918231964111,3,2,1,5,4,0,E-,1,3,0,0,1000,250.0,3,C12CW,469,test
1040.6749248504639,3,2,1,5,4,0,E-,1,3,0,0,1000,250.0,3,C12CW,470,test
496.5331554412842,3,2,1,5,4,0,E-,1,3,0,0,1000,250.0,3,C12CW,471,test
656.8670272827148,3,2,1,5,4,0,E-,1,0,5,0,1000,250.0,0,C12CW,472,test
624.9179840087891,3,2,1,5,4,0,E-,1,3,0,0,1000,250.0,3,C12CW,473,test
640.8560276031494,3,2,1,5,4,0,E-,1,5,3,0,1000,250.0,5,C12CW,474,test
992.9139614105225,3,2,1,5,4,0,E-,1,2,1,0,1000,250.0,2,C12CW,475,test
592.8909778594971,3,2,1,5,4,0,E-,1,5,3,0,1000,250.0,5,C12CW,476,test
799.2630004882812,3,2,1,5,4,0,E-,1,1,2,0,1000,250.0,1,C12CW,477,test
545.1359748840332,3,2,1,5,4,0,E-,1,5,3,0,1000,250.0,5,C12CW,478,test
529.0839672088623,3,2,1,5,4,0,E-,1,5,3,0,1000,250.0,5,C12CW,479,test
529.1109085083008,3,2,1,5,4,0,E-,0,3,0,0,1000,250.0,4,C12CW,480,test
656.2891006469727,3,2,1,5,4,0,E-,1,5,3,0,1000,250.0,5,C12CW,481,test
672.8880405426025,3,2,1,5,4,0,E-,0,3,0,0,1000,250.0,4,C12CW,482,test
544.9309349060059,3,2,1,5,4,0,E-,1,3,0,0,1000,250.0,3,C12CW,483,test
608.84690284729,3,2,1,5,4,0,E-,1,1,2,0,1000,250.0,1,C12CW,484,test
560.3451728820801,3,2,1,5,4,0,E-,1,1,2,0,1000,250.0,1,C12CW,485,test
721.0469245910645,3,2,1,5,4,0,E-,1,2,1,0,1000,250.0,2,C12CW,486,test
753.1008720397949,3,2,1,5,4,0,E-,1,0,5,0,1000,250.0,0,C12CW,487,test
512.6168727874756,3,2,1,5,4,0,E-,1,1,2,0,1000,250.0,1,C12CW,488,test
704.8249244689941,3,2,1,5,4,0,E-,1,2,1,0,1000,250.0,2,C12CW,489,test
768.7530517578125,3,2,1,5,4,0,E-,1,4,4,0,1000,250.0,4,C12CW,490,test
609.1048717498779,3,2,1,5,4,0,E-,1,5,3,0,1000,250.0,5,C12CW,491,test
608.8829040527344,3,2,1,5,4,0,E-,1,1,2,0,1000,250.0,1,C12CW,492,test
880.9068202972412,3,2,1,5,4,0,E-,1,0,5,0,1000,250.0,0,C12CW,493,test
465.06190299987793,3,2,1,5,4,0,E-,1,5,3,0,1000,250.0,5,C12CW,494,test
1232.9039573669434,3,2,1,5,4,0,E-,1,4,4,0,1000,250.0,4,C12CW,495,test
672.2609996795654,3,2,1,5,4,0,E-,1,5,3,0,1000,250.0,5,C12CW,496,test
1248.4369277954102,3,2,1,5,4,0,E-,1,2,1,0,1000,250.0,2,C12CW,497,test
1104.8009395599365,3,2,1,5,4,0,E-,1,1,2,0,1000,250.0,1,C12CW,498,test
672.6410388946533,3,2,1,5,4,0,E-,0,3,0,0,1000,250.0,4,C12CW,499,test
