RT,SRmap_0,SRmap_1,SRmap_2,SRmap_3,SRmap_4,SRmap_5,condition,correct,correct_response,curstim,ms-precue,ms-prestimblank,ntrials,response,subject,trial,type
3055.7799339294434,4,0,1,2,5,3,M,1,4,0,0,1000,250.0,4,D22CT,0,train
704.7619819641113,4,0,1,2,5,3,M,1,5,4,0,1000,250.0,5,D22CT,1,train
512.8250122070312,4,0,1,2,5,3,M,1,0,1,0,1000,250.0,0,D22CT,2,train
960.6890678405762,4,0,1,2,5,3,M,1,3,5,0,1000,250.0,3,D22CT,3,train
672.7628707885742,4,0,1,2,5,3,M,1,5,4,0,1000,250.0,5,D22CT,4,train
432.58190155029297,4,0,1,2,5,3,M,1,0,1,0,1000,250.0,0,D22CT,5,train
512.6631259918213,4,0,1,2,5,3,M,1,0,1,0,1000,250.0,0,D22CT,6,train
544.0480709075928,4,0,1,2,5,3,M,0,2,3,0,1000,250.0,1,D22CT,7,train
496.6449737548828,4,0,1,2,5,3,M,1,1,2,0,1000,250.0,1,D22CT,8,train
512.6950740814209,4,0,1,2,5,3,M,0,3,5,0,1000,250.0,2,D22CT,9,train
592.6730632781982,4,0,1,2,5,3,M,1,0,1,0,1000,250.0,0,D22CT,10,train
544.7328090667725,4,0,1,2,5,3,M,1,3,5,0,1000,250.0,3,D22CT,11,train
624.6581077575684,4,0,1,2,5,3,M,1,1,2,0,1000,250.0,1,D22CT,12,train
560.6479644775391,4,0,1,2,5,3,M,1,1,2,0,1000,250.0,1,D22CT,13,train
544.6691513061523,4,0,1,2,5,3,M,1,3,5,0,1000,250.0,3,D22CT,14,train
608.6809635162354,4,0,1,2,5,3,M,1,1,2,0,1000,250.0,1,D22CT,15,train
464.79296684265137,4,0,1,2,5,3,M,1,5,4,0,1000,250.0,5,D22CT,16,train
656.4841270446777,4,0,1,2,5,3,M,1,3,5,0,1000,250.0,3,D22CT,17,train
752.7039051055908,4,0,1,2,5,3,M,0,2,3,0,1000,250.0,1,D22CT,18,train
704.7290802001953,4,0,1,2,5,3,M,1,4,0,0,1000,250.0,4,D22CT,19,train
976.7680168151855,4,0,1,2,5,3,M,1,4,0,0,1000,250.0,4,D22CT,20,train
800.7841110229492,4,0,1,2,5,3,M,1,2,3,0,1000,250.0,2,D22CT,21,train
672.7581024169922,4,0,1,2,5,3,M,1,5,4,0,1000,250.0,5,D22CT,22,train
720.7272052764893,4,0,1,2,5,3,M,1,1,2,0,1000,250.0,1,D22CT,23,train
784.8129272460938,4,0,1,2,5,3,M,0,2,3,0,1000,250.0,3,D22CT,24,train
528.6588668823242,4,0,1,2,5,3,M,1,1,2,0,1000,250.0,1,D22CT,25,train
1056.6990375518799,4,0,1,2,5,3,M,1,4,0,0,1000,250.0,4,D22CT,26,train
976.7169952392578,4,0,1,2,5,3,M,1,4,0,0,1000,250.0,4,D22CT,27,train
832.8051567077637,4,0,1,2,5,3,M,1,3,5,0,1000,250.0,3,D22CT,28,train
848.5500812530518,4,0,1,2,5,3,M,1,0,1,0,1000,250.0,0,D22CT,29,train
704.7929763793945,4,0,1,2,5,3,M,1,5,4,0,1000,250.0,5,D22CT,30,train
720.8127975463867,4,0,1,2,5,3,M,1,2,3,0,1000,250.0,2,D22CT,31,train
544.7249412536621,4,0,1,2,5,3,M,1,1,2,0,1000,250.0,1,D22CT,32,train
512.7248764038086,4,0,1,2,5,3,M,1,0,1,0,1000,250.0,0,D22CT,33,train
784.818172454834,4,0,1,2,5,3,M,1,5,4,0,1000,250.0,5,D22CT,34,train
784.6839427947998,4,0,1,2,5,3,M,0,2,3,0,1000,250.0,3,D22CT,35,train
592.7801132202148,4,0,1,2,5,3,M,1,5,4,0,1000,250.0,5,D22CT,36,train
976.6740798950195,4,0,1,2,5,3,M,1,3,5,0,1000,250.0,3,D22CT,37,train
1088.7281894683838,4,0,1,2,5,3,M,1,3,5,0,1000,250.0,3,D22CT,38,train
784.9240303039551,4,0,1,2,5,3,M,1,2,3,0,1000,250.0,2,D22CT,39,train
960.9079360961914,4,0,1,2,5,3,M,1,3,5,0,1000,250.0,3,D22CT,40,train
608.6881160736084,4,0,1,2,5,3,M,1,5,4,0,1000,250.0,5,D22CT,41,train
592.6780700683594,4,0,1,2,5,3,M,1,5,4,0,1000,250.0,5,D22CT,42,train
496.628999710083,4,0,1,2,5,3,M,1,0,1,0,1000,250.0,0,D22CT,43,train
656.757116317749,4,0,1,2,5,3,M,0,4,0,0,1000,250.0,3,D22CT,44,train
912.7130508422852,4,0,1,2,5,3,M,1,0,1,0,1000,250.0,0,D22CT,45,train
720.7658290863037,4,0,1,2,5,3,M,1,2,3,0,1000,250.0,2,D22CT,46,train
768.7299251556396,4,0,1,2,5,3,M,1,5,4,0,1000,250.0,5,D22CT,47,train
720.7860946655273,4,0,1,2,5,3,M,1,0,1,0,1000,250.0,0,D22CT,48,train
848.9208221435547,4,0,1,2,5,3,M,1,4,0,0,1000,250.0,4,D22CT,49,train
704.9360275268555,4,0,1,2,5,3,M,1,4,0,0,1000,250.0,4,D22CT,50,train
704.1430473327637,4,0,1,2,5,3,M,1,3,5,0,1000,250.0,3,D22CT,51,train
656.6798686981201,4,0,1,2,5,3,M,1,4,0,0,1000,250.0,4,D22CT,52,train
720.7989692687988,4,0,1,2,5,3,M,1,1,2,0,1000,250.0,1,D22CT,53,train
560.8429908752441,4,0,1,2,5,3,M,1,2,3,0,1000,250.0,2,D22CT,54,train
560.7650279998779,4,0,1,2,5,3,M,1,0,1,0,1000,250.0,0,D22CT,55,train
1488.590955734253,4,0,1,2,5,3,M,1,3,5,0,1000,250.0,3,D22CT,56,train
480.61084747314453,4,0,1,2,5,3,M,1,3,5,0,1000,250.0,3,D22CT,57,train
608.9699268341064,4,0,1,2,5,3,M,1,3,5,0,1000,250.0,3,D22CT,58,train
736.5639209747314,4,0,1,2,5,3,M,1,3,5,0,1000,250.0,3,D22CT,59,train
769.1919803619385,4,0,1,2,5,3,M,1,4,0,0,1000,250.0,4,D22CT,60,train
848.9871025085449,4,0,1,2,5,3,M,0,2,3,0,1000,250.0,3,D22CT,61,train
688.8461112976074,4,0,1,2,5,3,M,1,4,0,0,1000,250.0,4,D22CT,62,train
560.9979629516602,4,0,1,2,5,3,M,1,0,1,0,1000,250.0,0,D22CT,63,train
816.6108131408691,4,0,1,2,5,3,M,1,4,0,0,1000,250.0,4,D22CT,64,train
528.7530422210693,4,0,1,2,5,3,M,1,0,1,0,1000,250.0,0,D22CT,65,train
1680.7918548583984,4,0,1,2,5,3,M,1,3,5,0,1000,250.0,3,D22CT,66,train
1248.6419677734375,4,0,1,2,5,3,M,1,2,3,0,1000,250.0,2,D22CT,67,train
800.7149696350098,4,0,1,2,5,3,M,1,5,4,0,1000,250.0,5,D22CT,68,train
992.6609992980957,4,0,1,2,5,3,M,1,5,4,0,1000,250.0,5,D22CT,69,train
881.087064743042,4,0,1,2,5,3,M,1,0,1,0,1000,250.0,0,D22CT,70,train
576.840877532959,4,0,1,2,5,3,M,1,1,2,0,1000,250.0,1,D22CT,71,train
656.7559242248535,4,0,1,2,5,3,M,1,2,3,0,1000,250.0,2,D22CT,72,train
608.7830066680908,4,0,1,2,5,3,M,1,5,4,0,1000,250.0,5,D22CT,73,train
736.7520332336426,4,0,1,2,5,3,M,1,0,1,0,1000,250.0,0,D22CT,74,train
480.70406913757324,4,0,1,2,5,3,M,1,0,1,0,1000,250.0,0,D22CT,75,train
496.69599533081055,4,0,1,2,5,3,M,1,1,2,0,1000,250.0,1,D22CT,76,train
448.78602027893066,4,0,1,2,5,3,M,1,0,1,0,1000,250.0,0,D22CT,77,train
624.9380111694336,4,0,1,2,5,3,M,1,4,0,0,1000,250.0,4,D22CT,78,train
2768.692970275879,4,0,1,2,5,3,M,1,2,3,0,1000,250.0,2,D22CT,79,train
800.7180690765381,4,0,1,2,5,3,M,1,3,5,0,1000,250.0,3,D22CT,80,train
608.5259914398193,4,0,1,2,5,3,M,1,5,4,0,1000,250.0,5,D22CT,81,train
736.7298603057861,4,0,1,2,5,3,M,1,4,0,0,1000,250.0,4,D22CT,82,train
448.652982711792,4,0,1,2,5,3,M,1,4,0,0,1000,250.0,4,D22CT,83,train
480.78298568725586,4,0,1,2,5,3,M,1,4,0,0,1000,250.0,4,D22CT,84,train
784.6250534057617,4,0,1,2,5,3,M,1,3,5,0,1000,250.0,3,D22CT,85,train
656.7449569702148,4,0,1,2,5,3,M,1,1,2,0,1000,250.0,1,D22CT,86,train
704.4410705566406,4,0,1,2,5,3,M,1,5,4,0,1000,250.0,5,D22CT,87,train
833.0700397491455,4,0,1,2,5,3,M,1,4,0,0,1000,250.0,4,D22CT,88,train
1456.8400382995605,4,0,1,2,5,3,M,1,2,3,0,1000,250.0,2,D22CT,89,train
592.9169654846191,4,0,1,2,5,3,M,1,2,3,0,1000,250.0,2,D22CT,90,train
704.8540115356445,4,0,1,2,5,3,M,1,3,5,0,1000,250.0,3,D22CT,91,train
608.9508533477783,4,0,1,2,5,3,M,1,4,0,0,1000,250.0,4,D22CT,92,train
592.7109718322754,4,0,1,2,5,3,M,1,4,0,0,1000,250.0,4,D22CT,93,train
432.97410011291504,4,0,1,2,5,3,M,1,4,0,0,1000,250.0,4,D22CT,94,train
609.0860366821289,4,0,1,2,5,3,M,0,2,3,0,1000,250.0,1,D22CT,95,train
576.9689083099365,4,0,1,2,5,3,M,0,3,5,0,1000,250.0,4,D22CT,96,train
512.9389762878418,4,0,1,2,5,3,M,1,0,1,0,1000,250.0,0,D22CT,97,train
512.6588344573975,4,0,1,2,5,3,M,1,1,2,0,1000,250.0,1,D22CT,98,train
464.5991325378418,4,0,1,2,5,3,M,1,0,1,0,1000,250.0,0,D22CT,99,train
704.4739723205566,4,0,1,2,5,3,M,1,3,5,0,1000,250.0,3,D22CT,100,train
576.4679908752441,4,0,1,2,5,3,M,1,3,5,0,1000,250.0,3,D22CT,101,train
688.730001449585,4,0,1,2,5,3,M,1,4,0,0,1000,250.0,4,D22CT,102,train
608.5128784179688,4,0,1,2,5,3,M,1,1,2,0,1000,250.0,1,D22CT,103,train
945.0869560241699,4,0,1,2,5,3,M,1,2,3,0,1000,250.0,2,D22CT,104,train
512.8328800201416,4,0,1,2,5,3,M,1,0,1,0,1000,250.0,0,D22CT,105,train
528.7411212921143,4,0,1,2,5,3,M,1,0,1,0,1000,250.0,0,D22CT,106,train
736.9139194488525,4,0,1,2,5,3,M,1,3,5,0,1000,250.0,3,D22CT,107,train
640.8209800720215,4,0,1,2,5,3,M,1,5,4,0,1000,250.0,5,D22CT,108,train
848.7730026245117,4,0,1,2,5,3,M,1,2,3,0,1000,250.0,2,D22CT,109,train
800.6761074066162,4,0,1,2,5,3,M,0,4,0,0,1000,250.0,3,D22CT,110,train
720.8430767059326,4,0,1,2,5,3,M,1,5,4,0,1000,250.0,5,D22CT,111,train
592.6809310913086,4,0,1,2,5,3,M,1,1,2,0,1000,250.0,1,D22CT,112,train
528.6428928375244,4,0,1,2,5,3,M,1,0,1,0,1000,250.0,0,D22CT,113,train
512.584924697876,4,0,1,2,5,3,M,1,1,2,0,1000,250.0,1,D22CT,114,train
624.6688365936279,4,0,1,2,5,3,M,1,3,5,0,1000,250.0,3,D22CT,115,train
528.9030075073242,4,0,1,2,5,3,M,1,5,4,0,1000,250.0,5,D22CT,116,train
784.7788333892822,4,0,1,2,5,3,M,1,0,1,0,1000,250.0,0,D22CT,117,train
704.6170234680176,4,0,1,2,5,3,M,1,2,3,0,1000,250.0,2,D22CT,118,train
752.7661323547363,4,0,1,2,5,3,M,1,2,3,0,1000,250.0,2,D22CT,119,train
1040.8010482788086,4,0,1,2,5,3,M,1,4,0,0,1000,250.0,4,D22CT,120,train
704.7550678253174,4,0,1,2,5,3,M,1,5,4,0,1000,250.0,5,D22CT,121,train
544.6279048919678,4,0,1,2,5,3,M,1,2,3,0,1000,250.0,2,D22CT,122,train
384.68289375305176,4,0,1,2,5,3,M,1,1,2,0,1000,250.0,1,D22CT,123,train
592.6699638366699,4,0,1,2,5,3,M,1,2,3,0,1000,250.0,2,D22CT,124,train
640.8109664916992,4,0,1,2,5,3,M,1,5,4,0,1000,250.0,5,D22CT,125,train
576.6758918762207,4,0,1,2,5,3,M,0,3,5,0,1000,250.0,1,D22CT,126,train
1136.693000793457,4,0,1,2,5,3,M,1,4,0,0,1000,250.0,4,D22CT,127,train
688.7450218200684,4,0,1,2,5,3,M,1,5,4,0,1000,250.0,5,D22CT,128,train
464.6649360656738,4,0,1,2,5,3,M,1,5,4,0,1000,250.0,5,D22CT,129,train
656.5701961517334,4,0,1,2,5,3,M,1,1,2,0,1000,250.0,1,D22CT,130,train
1008.7950229644775,4,0,1,2,5,3,M,1,4,0,0,1000,250.0,4,D22CT,131,train
848.5798835754395,4,0,1,2,5,3,M,1,2,3,0,1000,250.0,2,D22CT,132,train
768.8448429107666,4,0,1,2,5,3,M,1,3,5,0,1000,250.0,3,D22CT,133,train
672.8270053863525,4,0,1,2,5,3,M,1,4,0,0,1000,250.0,4,D22CT,134,train
544.7859764099121,4,0,1,2,5,3,M,1,4,0,0,1000,250.0,4,D22CT,135,train
896.8930244445801,4,0,1,2,5,3,M,1,2,3,0,1000,250.0,2,D22CT,136,train
800.7698059082031,4,0,1,2,5,3,M,1,3,5,0,1000,250.0,3,D22CT,137,train
800.7581233978271,4,0,1,2,5,3,M,1,3,5,0,1000,250.0,3,D22CT,138,train
1344.7339534759521,4,0,1,2,5,3,M,1,2,3,0,1000,250.0,2,D22CT,139,train
544.6438789367676,4,0,1,2,5,3,M,1,1,2,0,1000,250.0,1,D22CT,140,train
848.7741947174072,4,0,1,2,5,3,M,1,1,2,0,1000,250.0,1,D22CT,141,train
768.7568664550781,4,0,1,2,5,3,M,1,2,3,0,1000,250.0,2,D22CT,142,train
512.7370357513428,4,0,1,2,5,3,M,1,0,1,0,1000,250.0,0,D22CT,143,train
1296.875,4,0,1,2,5,3,M,1,4,0,0,1000,250.0,4,D22CT,144,train
704.758882522583,4,0,1,2,5,3,M,1,4,0,0,1000,250.0,4,D22CT,145,train
656.7878723144531,4,0,1,2,5,3,M,1,5,4,0,1000,250.0,5,D22CT,146,train
640.7949924468994,4,0,1,2,5,3,M,1,4,0,0,1000,250.0,4,D22CT,147,train
544.6689128875732,4,0,1,2,5,3,M,1,1,2,0,1000,250.0,1,D22CT,148,train
608.7679862976074,4,0,1,2,5,3,M,1,1,2,0,1000,250.0,1,D22CT,149,train
544.6841716766357,4,0,1,2,5,3,M,1,2,3,0,1000,250.0,2,D22CT,150,train
464.74504470825195,4,0,1,2,5,3,M,1,0,1,0,1000,250.0,0,D22CT,151,train
544.8288917541504,4,0,1,2,5,3,M,1,4,0,0,1000,250.0,4,D22CT,152,train
496.7021942138672,4,0,1,2,5,3,M,1,5,4,0,1000,250.0,5,D22CT,153,train
528.6998748779297,4,0,1,2,5,3,M,1,2,3,0,1000,250.0,2,D22CT,154,train
896.461009979248,4,0,1,2,5,3,M,1,4,0,0,1000,250.0,4,D22CT,155,train
624.6528625488281,4,0,1,2,5,3,M,1,4,0,0,1000,250.0,4,D22CT,156,train
688.8799667358398,4,0,1,2,5,3,M,0,3,5,0,1000,250.0,2,D22CT,157,train
800.9262084960938,4,0,1,2,5,3,M,1,2,3,0,1000,250.0,2,D22CT,158,train
768.6660289764404,4,0,1,2,5,3,M,1,2,3,0,1000,250.0,2,D22CT,159,train
608.6380481719971,4,0,1,2,5,3,M,1,0,1,0,1000,250.0,0,D22CT,160,train
992.7630424499512,4,0,1,2,5,3,M,1,5,4,0,1000,250.0,5,D22CT,161,train
1808.4361553192139,4,0,1,2,5,3,M,0,3,5,0,1000,250.0,4,D22CT,162,train
672.7621555328369,4,0,1,2,5,3,M,0,3,5,0,1000,250.0,4,D22CT,163,train
592.7548408508301,4,0,1,2,5,3,M,1,1,2,0,1000,250.0,1,D22CT,164,train
1680.6128025054932,4,0,1,2,5,3,M,1,4,0,0,1000,250.0,4,D22CT,165,train
1664.712905883789,4,0,1,2,5,3,M,1,2,3,0,1000,250.0,2,D22CT,166,train
1200.598955154419,4,0,1,2,5,3,M,1,3,5,0,1000,250.0,3,D22CT,167,train
576.6479969024658,4,0,1,2,5,3,M,1,5,4,0,1000,250.0,5,D22CT,168,train
800.7669448852539,4,0,1,2,5,3,M,1,2,3,0,1000,250.0,2,D22CT,169,train
560.8060359954834,4,0,1,2,5,3,M,1,0,1,0,1000,250.0,0,D22CT,170,train
496.5989589691162,4,0,1,2,5,3,M,1,1,2,0,1000,250.0,1,D22CT,171,train
832.758903503418,4,0,1,2,5,3,M,1,4,0,0,1000,250.0,4,D22CT,172,train
1264.7359371185303,4,0,1,2,5,3,M,1,3,5,0,1000,250.0,3,D22CT,173,train
720.6621170043945,4,0,1,2,5,3,M,1,5,4,0,1000,250.0,5,D22CT,174,train
608.6359024047852,4,0,1,2,5,3,M,1,0,1,0,1000,250.0,0,D22CT,175,train
480.73387145996094,4,0,1,2,5,3,M,1,1,2,0,1000,250.0,1,D22CT,176,train
512.7511024475098,4,0,1,2,5,3,M,1,0,1,0,1000,250.0,0,D22CT,177,train
1008.7800025939941,4,0,1,2,5,3,M,1,4,0,0,1000,250.0,4,D22CT,178,train
1184.844970703125,4,0,1,2,5,3,M,1,2,3,0,1000,250.0,2,D22CT,179,train
800.7571697235107,4,0,1,2,5,3,M,1,5,4,0,1000,250.0,5,D22CT,180,train
944.7920322418213,4,0,1,2,5,3,M,1,3,5,0,1000,250.0,3,D22CT,181,train
448.7428665161133,4,0,1,2,5,3,M,1,3,5,0,1000,250.0,3,D22CT,182,train
464.677095413208,4,0,1,2,5,3,M,1,4,0,0,1000,250.0,4,D22CT,183,train
608.6781024932861,4,0,1,2,5,3,M,1,0,1,0,1000,250.0,0,D22CT,184,train
496.75989151000977,4,0,1,2,5,3,M,1,1,2,0,1000,250.0,1,D22CT,185,train
800.7149696350098,4,0,1,2,5,3,M,1,3,5,0,1000,250.0,3,D22CT,186,train
591.6619300842285,4,0,1,2,5,3,M,1,3,5,0,1000,250.0,3,D22CT,187,train
576.8389701843262,4,0,1,2,5,3,M,1,0,1,0,1000,250.0,0,D22CT,188,train
720.8092212677002,4,0,1,2,5,3,M,1,2,3,0,1000,250.0,2,D22CT,189,train
560.8599185943604,4,0,1,2,5,3,M,1,1,2,0,1000,250.0,1,D22CT,190,train
624.8719692230225,4,0,1,2,5,3,M,1,2,3,0,1000,250.0,2,D22CT,191,train
496.6168403625488,4,0,1,2,5,3,M,1,0,1,0,1000,250.0,0,D22CT,192,train
640.7480239868164,4,0,1,2,5,3,M,1,2,3,0,1000,250.0,2,D22CT,193,train
688.5659694671631,4,0,1,2,5,3,M,1,0,1,0,1000,250.0,0,D22CT,194,train
512.7170085906982,4,0,1,2,5,3,M,1,0,1,0,1000,250.0,0,D22CT,195,train
608.7629795074463,4,0,1,2,5,3,M,1,0,1,0,1000,250.0,0,D22CT,196,train
640.4008865356445,4,0,1,2,5,3,M,1,5,4,0,1000,250.0,5,D22CT,197,train
736.6299629211426,4,0,1,2,5,3,M,1,5,4,0,1000,250.0,5,D22CT,198,train
992.650032043457,4,0,1,2,5,3,M,1,3,5,0,1000,250.0,3,D22CT,199,train
2240.7310009002686,4,0,1,2,5,3,M,1,4,0,0,1000,250.0,4,D22CT,200,train
736.799955368042,4,0,1,2,5,3,M,1,4,0,0,1000,250.0,4,D22CT,201,train
560.6229305267334,4,0,1,2,5,3,M,1,5,4,0,1000,250.0,5,D22CT,202,train
608.7939739227295,4,0,1,2,5,3,M,1,1,2,0,1000,250.0,1,D22CT,203,train
944.7488784790039,4,0,1,2,5,3,M,1,2,3,0,1000,250.0,2,D22CT,204,train
720.6671237945557,4,0,1,2,5,3,M,0,5,4,0,1000,250.0,4,D22CT,205,train
752.824068069458,4,0,1,2,5,3,M,1,0,1,0,1000,250.0,0,D22CT,206,train
864.7880554199219,4,0,1,2,5,3,M,1,3,5,0,1000,250.0,3,D22CT,207,train
528.723955154419,4,0,1,2,5,3,M,1,1,2,0,1000,250.0,1,D22CT,208,train
3888.6640071868896,4,0,1,2,5,3,M,1,2,3,0,1000,250.0,2,D22CT,209,train
1424.6668815612793,4,0,1,2,5,3,M,1,0,1,0,1000,250.0,0,D22CT,210,train
432.8150749206543,4,0,1,2,5,3,M,1,1,2,0,1000,250.0,1,D22CT,211,train
752.8109550476074,4,0,1,2,5,3,M,1,3,5,0,1000,250.0,3,D22CT,212,train
704.89501953125,4,0,1,2,5,3,M,1,2,3,0,1000,250.0,2,D22CT,213,train
512.7649307250977,4,0,1,2,5,3,M,1,1,2,0,1000,250.0,1,D22CT,214,train
928.7869930267334,4,0,1,2,5,3,M,1,4,0,0,1000,250.0,4,D22CT,215,train
1328.8428783416748,4,0,1,2,5,3,M,1,5,4,0,1000,250.0,5,D22CT,216,train
560.7519149780273,4,0,1,2,5,3,M,1,0,1,0,1000,250.0,0,D22CT,217,train
1184.6628189086914,4,0,1,2,5,3,M,1,3,5,0,1000,250.0,3,D22CT,218,train
624.6109008789062,4,0,1,2,5,3,M,1,5,4,0,1000,250.0,5,D22CT,219,train
800.6811141967773,4,0,1,2,5,3,M,1,2,3,0,1000,250.0,2,D22CT,220,train
688.744068145752,4,0,1,2,5,3,M,1,5,4,0,1000,250.0,5,D22CT,221,train
481.2040328979492,4,0,1,2,5,3,M,1,1,2,0,1000,250.0,1,D22CT,222,train
449.19300079345703,4,0,1,2,5,3,M,1,0,1,0,1000,250.0,0,D22CT,223,train
513.2560729980469,4,0,1,2,5,3,M,1,1,2,0,1000,250.0,1,D22CT,224,train
737.231969833374,4,0,1,2,5,3,M,1,2,3,0,1000,250.0,2,D22CT,225,train
913.3031368255615,4,0,1,2,5,3,M,1,4,0,0,1000,250.0,4,D22CT,226,train
593.235969543457,4,0,1,2,5,3,M,1,1,2,0,1000,250.0,1,D22CT,227,train
1089.2348289489746,4,0,1,2,5,3,M,1,2,3,0,1000,250.0,2,D22CT,228,train
1233.1531047821045,4,0,1,2,5,3,M,1,4,0,0,1000,250.0,4,D22CT,229,train
481.28294944763184,4,0,1,2,5,3,M,1,0,1,0,1000,250.0,0,D22CT,230,train
705.2240371704102,4,0,1,2,5,3,M,1,2,3,0,1000,250.0,2,D22CT,231,train
689.2650127410889,4,0,1,2,5,3,M,1,5,4,0,1000,250.0,5,D22CT,232,train
817.188024520874,4,0,1,2,5,3,M,1,5,4,0,1000,250.0,5,D22CT,233,train
769.1271305084229,4,0,1,2,5,3,M,1,3,5,0,1000,250.0,3,D22CT,234,train
737.2541427612305,4,0,1,2,5,3,M,0,2,3,0,1000,250.0,1,D22CT,235,train
897.1068859100342,4,0,1,2,5,3,M,1,4,0,0,1000,250.0,4,D22CT,236,train
1169.111967086792,4,0,1,2,5,3,M,1,1,2,0,1000,250.0,1,D22CT,237,train
561.2878799438477,4,0,1,2,5,3,M,1,1,2,0,1000,250.0,1,D22CT,238,train
881.140947341919,4,0,1,2,5,3,M,1,4,0,0,1000,250.0,4,D22CT,239,train
529.088020324707,4,0,1,2,5,3,M,1,4,0,0,1000,250.0,4,D22CT,240,train
497.09105491638184,4,0,1,2,5,3,M,1,0,1,0,1000,250.0,0,D22CT,241,train
673.011064529419,4,0,1,2,5,3,M,1,5,4,0,1000,250.0,5,D22CT,242,train
1137.3209953308105,4,0,1,2,5,3,M,1,3,5,0,1000,250.0,3,D22CT,243,train
913.2359027862549,4,0,1,2,5,3,M,1,2,3,0,1000,250.0,2,D22CT,244,train
1249.101161956787,4,0,1,2,5,3,M,1,4,0,0,1000,250.0,4,D22CT,245,train
577.225923538208,4,0,1,2,5,3,M,1,4,0,0,1000,250.0,4,D22CT,246,train
369.19403076171875,4,0,1,2,5,3,M,1,4,0,0,1000,250.0,4,D22CT,247,train
913.3040904998779,4,0,1,2,5,3,M,1,3,5,0,1000,250.0,3,D22CT,248,train
1105.355978012085,4,0,1,2,5,3,M,1,1,2,0,1000,250.0,1,D22CT,249,train
2224.7819900512695,4,0,1,2,5,3,M,1,2,3,0,1000,250.0,2,D22CT,250,test
2817.0459270477295,4,0,1,2,5,3,M,1,5,4,0,1000,250.0,5,D22CT,251,test
1825.1640796661377,4,0,1,2,5,3,M,1,4,0,0,1000,250.0,4,D22CT,252,test
1041.0339832305908,4,0,1,2,5,3,M,1,1,2,0,1000,250.0,1,D22CT,253,test
1521.0750102996826,4,0,1,2,5,3,M,0,3,5,0,1000,250.0,4,D22CT,254,test
1825.0861167907715,4,0,1,2,5,3,M,1,4,0,0,1000,250.0,4,D22CT,255,test
2097.1450805664062,4,0,1,2,5,3,M,1,4,0,0,1000,250.0,4,D22CT,256,test
881.1748027801514,4,0,1,2,5,3,M,1,4,0,0,1000,250.0,4,D22CT,257,test
1217.1669006347656,4,0,1,2,5,3,M,1,5,4,0,1000,250.0,5,D22CT,258,test
801.0721206665039,4,0,1,2,5,3,M,0,1,2,0,1000,250.0,0,D22CT,259,test
1233.0591678619385,4,0,1,2,5,3,M,1,4,0,0,1000,250.0,4,D22CT,260,test
897.1889019012451,4,0,1,2,5,3,M,1,0,1,0,1000,250.0,0,D22CT,261,test
1105.0310134887695,4,0,1,2,5,3,M,0,3,5,0,1000,250.0,4,D22CT,262,test
1697.0858573913574,4,0,1,2,5,3,M,0,5,4,0,1000,250.0,4,D22CT,263,test
1344.9881076812744,4,0,1,2,5,3,M,1,1,2,0,1000,250.0,1,D22CT,264,test
864.9427890777588,4,0,1,2,5,3,M,1,0,1,0,1000,250.0,0,D22CT,265,test
1153.040885925293,4,0,1,2,5,3,M,1,4,0,0,1000,250.0,4,D22CT,266,test
1281.059980392456,4,0,1,2,5,3,M,1,2,3,0,1000,250.0,2,D22CT,267,test
897.0518112182617,4,0,1,2,5,3,M,1,0,1,0,1000,250.0,0,D22CT,268,test
961.1630439758301,4,0,1,2,5,3,M,0,5,4,0,1000,250.0,4,D22CT,269,test
1009.0000629425049,4,0,1,2,5,3,M,1,0,1,0,1000,250.0,0,D22CT,270,test
753.014087677002,4,0,1,2,5,3,M,1,0,1,0,1000,250.0,0,D22CT,271,test
737.0610237121582,4,0,1,2,5,3,M,1,5,4,0,1000,250.0,5,D22CT,272,test
592.9358005523682,4,0,1,2,5,3,M,1,5,4,0,1000,250.0,5,D22CT,273,test
657.1638584136963,4,0,1,2,5,3,M,1,0,1,0,1000,250.0,0,D22CT,274,test
1169.2149639129639,4,0,1,2,5,3,M,1,1,2,0,1000,250.0,1,D22CT,275,test
1041.1770343780518,4,0,1,2,5,3,M,1,4,0,0,1000,250.0,4,D22CT,276,test
641.1330699920654,4,0,1,2,5,3,M,1,4,0,0,1000,250.0,4,D22CT,277,test
720.8120822906494,4,0,1,2,5,3,M,1,5,4,0,1000,250.0,5,D22CT,278,test
913.0761623382568,4,0,1,2,5,3,M,1,4,0,0,1000,250.0,4,D22CT,279,test
897.2070217132568,4,0,1,2,5,3,M,1,2,3,0,1000,250.0,2,D22CT,280,test
705.1739692687988,4,0,1,2,5,3,M,1,0,1,0,1000,250.0,0,D22CT,281,test
1105.0801277160645,4,0,1,2,5,3,M,1,4,0,0,1000,250.0,4,D22CT,282,test
721.0948467254639,4,0,1,2,5,3,M,1,1,2,0,1000,250.0,1,D22CT,283,test
737.1158599853516,4,0,1,2,5,3,M,1,0,1,0,1000,250.0,0,D22CT,284,test
1121.0529804229736,4,0,1,2,5,3,M,1,3,5,0,1000,250.0,3,D22CT,285,test
513.0939483642578,4,0,1,2,5,3,M,1,3,5,0,1000,250.0,3,D22CT,286,test
753.1280517578125,4,0,1,2,5,3,M,1,5,4,0,1000,250.0,5,D22CT,287,test
1728.9190292358398,4,0,1,2,5,3,M,1,5,4,0,1000,250.0,5,D22CT,288,test
1153.120994567871,4,0,1,2,5,3,M,1,2,3,0,1000,250.0,2,D22CT,289,test
528.9638042449951,4,0,1,2,5,3,M,1,2,3,0,1000,250.0,2,D22CT,290,test
641.0529613494873,4,0,1,2,5,3,M,1,3,5,0,1000,250.0,3,D22CT,291,test
801.1729717254639,4,0,1,2,5,3,M,1,3,5,0,1000,250.0,3,D22CT,292,test
1104.9950122833252,4,0,1,2,5,3,M,1,4,0,0,1000,250.0,4,D22CT,293,test
752.9129981994629,4,0,1,2,5,3,M,1,1,2,0,1000,250.0,1,D22CT,294,test
513.1499767303467,4,0,1,2,5,3,M,1,1,2,0,1000,250.0,1,D22CT,295,test
625.1299381256104,4,0,1,2,5,3,M,1,5,4,0,1000,250.0,5,D22CT,296,test
657.0010185241699,4,0,1,2,5,3,M,1,1,2,0,1000,250.0,1,D22CT,297,test
497.1508979797363,4,0,1,2,5,3,M,1,0,1,0,1000,250.0,0,D22CT,298,test
801.0568618774414,4,0,1,2,5,3,M,1,0,1,0,1000,250.0,0,D22CT,299,test
369.1730499267578,4,0,1,2,5,3,M,0,0,1,0,1000,250.0,1,D22CT,300,test
673.1410026550293,4,0,1,2,5,3,M,0,1,2,0,1000,250.0,0,D22CT,301,test
528.6798477172852,4,0,1,2,5,3,M,1,0,1,0,1000,250.0,0,D22CT,302,test
880.8310031890869,4,0,1,2,5,3,M,1,3,5,0,1000,250.0,3,D22CT,303,test
432.57904052734375,4,0,1,2,5,3,M,1,2,3,0,1000,250.0,2,D22CT,304,test
720.8118438720703,4,0,1,2,5,3,M,1,3,5,0,1000,250.0,3,D22CT,305,test
800.7290363311768,4,0,1,2,5,3,M,1,4,0,0,1000,250.0,4,D22CT,306,test
592.7059650421143,4,0,1,2,5,3,M,1,5,4,0,1000,250.0,5,D22CT,307,test
752.6779174804688,4,0,1,2,5,3,M,1,4,0,0,1000,250.0,4,D22CT,308,test
720.7000255584717,4,0,1,2,5,3,M,1,1,2,0,1000,250.0,1,D22CT,309,test
720.6990718841553,4,0,1,2,5,3,M,1,4,0,0,1000,250.0,4,D22CT,310,test
848.7229347229004,4,0,1,2,5,3,M,1,1,2,0,1000,250.0,1,D22CT,311,test
2272.634983062744,4,0,1,2,5,3,M,0,2,3,0,1000,250.0,3,D22CT,312,test
720.74294090271,4,0,1,2,5,3,M,1,5,4,0,1000,250.0,5,D22CT,313,test
576.6980648040771,4,0,1,2,5,3,M,1,4,0,0,1000,250.0,4,D22CT,314,test
752.7210712432861,4,0,1,2,5,3,M,1,1,2,0,1000,250.0,1,D22CT,315,test
848.7398624420166,4,0,1,2,5,3,M,1,1,2,0,1000,250.0,1,D22CT,316,test
816.7309761047363,4,0,1,2,5,3,M,1,5,4,0,1000,250.0,5,D22CT,317,test
704.6639919281006,4,0,1,2,5,3,M,1,1,2,0,1000,250.0,1,D22CT,318,test
656.728982925415,4,0,1,2,5,3,M,1,0,1,0,1000,250.0,0,D22CT,319,test
528.5220146179199,4,0,1,2,5,3,M,1,0,1,0,1000,250.0,0,D22CT,320,test
864.8388385772705,4,0,1,2,5,3,M,1,3,5,0,1000,250.0,3,D22CT,321,test
928.6041259765625,4,0,1,2,5,3,M,1,1,2,0,1000,250.0,1,D22CT,322,test
752.7248859405518,4,0,1,2,5,3,M,1,3,5,0,1000,250.0,3,D22CT,323,test
640.8247947692871,4,0,1,2,5,3,M,1,5,4,0,1000,250.0,5,D22CT,324,test
655.7810306549072,4,0,1,2,5,3,M,1,1,2,0,1000,250.0,1,D22CT,325,test
1040.6360626220703,4,0,1,2,5,3,M,1,4,0,0,1000,250.0,4,D22CT,326,test
1904.806137084961,4,0,1,2,5,3,M,1,0,1,0,1000,250.0,0,D22CT,327,test
704.6518325805664,4,0,1,2,5,3,M,1,4,0,0,1000,250.0,4,D22CT,328,test
768.496036529541,4,0,1,2,5,3,M,1,0,1,0,1000,250.0,0,D22CT,329,test
528.7280082702637,4,0,1,2,5,3,M,1,0,1,0,1000,250.0,0,D22CT,330,test
928.7509918212891,4,0,1,2,5,3,M,1,1,2,0,1000,250.0,1,D22CT,331,test
912.7781391143799,4,0,1,2,5,3,M,0,3,5,0,1000,250.0,4,D22CT,332,test
736.7911338806152,4,0,1,2,5,3,M,1,3,5,0,1000,250.0,3,D22CT,333,test
736.781120300293,4,0,1,2,5,3,M,1,5,4,0,1000,250.0,5,D22CT,334,test
1280.7679176330566,4,0,1,2,5,3,M,1,3,5,0,1000,250.0,3,D22CT,335,test
800.7028102874756,4,0,1,2,5,3,M,1,1,2,0,1000,250.0,1,D22CT,336,test
640.8631801605225,4,0,1,2,5,3,M,1,5,4,0,1000,250.0,5,D22CT,337,test
848.7138748168945,4,0,1,2,5,3,M,1,0,1,0,1000,250.0,0,D22CT,338,test
1440.6161308288574,4,0,1,2,5,3,M,1,4,0,0,1000,250.0,4,D22CT,339,test
768.7251567840576,4,0,1,2,5,3,M,1,0,1,0,1000,250.0,0,D22CT,340,test
1200.693130493164,4,0,1,2,5,3,M,1,0,1,0,1000,250.0,0,D22CT,341,test
704.6990394592285,4,0,1,2,5,3,M,1,4,0,0,1000,250.0,4,D22CT,342,test
880.7628154754639,4,0,1,2,5,3,M,1,3,5,0,1000,250.0,3,D22CT,343,test
1456.7921161651611,4,0,1,2,5,3,M,1,1,2,0,1000,250.0,1,D22CT,344,test
432.3110580444336,4,0,1,2,5,3,M,1,0,1,0,1000,250.0,0,D22CT,345,test
576.7788887023926,4,0,1,2,5,3,M,1,5,4,0,1000,250.0,5,D22CT,346,test
704.6098709106445,4,0,1,2,5,3,M,1,4,0,0,1000,250.0,4,D22CT,347,test
1152.508020401001,4,0,1,2,5,3,M,1,2,3,0,1000,250.0,2,D22CT,348,test
656.5511226654053,4,0,1,2,5,3,M,1,0,1,0,1000,250.0,0,D22CT,349,test
800.6150722503662,4,0,1,2,5,3,M,0,5,4,0,1000,250.0,4,D22CT,350,test
528.6970138549805,4,0,1,2,5,3,M,1,0,1,0,1000,250.0,0,D22CT,351,test
848.6850261688232,4,0,1,2,5,3,M,1,4,0,0,1000,250.0,4,D22CT,352,test
624.7360706329346,4,0,1,2,5,3,M,1,1,2,0,1000,250.0,1,D22CT,353,test
1008.6638927459717,4,0,1,2,5,3,M,1,3,5,0,1000,250.0,3,D22CT,354,test
1120.7010746002197,4,0,1,2,5,3,M,1,2,3,0,1000,250.0,2,D22CT,355,test
928.7497997283936,4,0,1,2,5,3,M,1,2,3,0,1000,250.0,2,D22CT,356,test
784.743070602417,4,0,1,2,5,3,M,1,1,2,0,1000,250.0,1,D22CT,357,test
1248.7328052520752,4,0,1,2,5,3,M,1,5,4,0,1000,250.0,5,D22CT,358,test
832.6101303100586,4,0,1,2,5,3,M,1,4,0,0,1000,250.0,4,D22CT,359,test
528.7618637084961,4,0,1,2,5,3,M,0,1,2,0,1000,250.0,0,D22CT,360,test
544.558048248291,4,0,1,2,5,3,M,1,1,2,0,1000,250.0,1,D22CT,361,test
976.6850471496582,4,0,1,2,5,3,M,1,2,3,0,1000,250.0,2,D22CT,362,test
512.8028392791748,4,0,1,2,5,3,M,1,4,0,0,1000,250.0,4,D22CT,363,test
1024.7690677642822,4,0,1,2,5,3,M,1,2,3,0,1000,250.0,2,D22CT,364,test
736.6831302642822,4,0,1,2,5,3,M,1,1,2,0,1000,250.0,1,D22CT,365,test
1088.782787322998,4,0,1,2,5,3,M,1,0,1,0,1000,250.0,0,D22CT,366,test
624.8109340667725,4,0,1,2,5,3,M,1,1,2,0,1000,250.0,1,D22CT,367,test
2512.6171112060547,4,0,1,2,5,3,M,1,1,2,0,1000,250.0,1,D22CT,368,test
752.5038719177246,4,0,1,2,5,3,M,1,0,1,0,1000,250.0,0,D22CT,369,test
752.5649070739746,4,0,1,2,5,3,M,1,4,0,0,1000,250.0,4,D22CT,370,test
608.8030338287354,4,0,1,2,5,3,M,1,0,1,0,1000,250.0,0,D22CT,371,test
816.864013671875,4,0,1,2,5,3,M,1,1,2,0,1000,250.0,1,D22CT,372,test
704.8299312591553,4,0,1,2,5,3,M,1,5,4,0,1000,250.0,5,D22CT,373,test
1248.7590312957764,4,0,1,2,5,3,M,1,3,5,0,1000,250.0,3,D22CT,374,test
6032.773971557617,4,0,1,2,5,3,M,1,2,3,0,1000,250.0,2,D22CT,375,test
656.6460132598877,4,0,1,2,5,3,M,1,0,1,0,1000,250.0,0,D22CT,376,test
1408.6790084838867,4,0,1,2,5,3,M,1,3,5,0,1000,250.0,3,D22CT,377,test
1408.6391925811768,4,0,1,2,5,3,M,0,3,5,0,1000,250.0,4,D22CT,378,test
640.6080722808838,4,0,1,2,5,3,M,1,0,1,0,1000,250.0,0,D22CT,379,test
608.8371276855469,4,0,1,2,5,3,M,1,5,4,0,1000,250.0,5,D22CT,380,test
961.0278606414795,4,0,1,2,5,3,M,1,2,3,0,1000,250.0,2,D22CT,381,test
656.641960144043,4,0,1,2,5,3,M,1,0,1,0,1000,250.0,0,D22CT,382,test
640.7101154327393,4,0,1,2,5,3,M,1,5,4,0,1000,250.0,5,D22CT,383,test
608.3099842071533,4,0,1,2,5,3,M,0,0,1,0,1000,250.0,1,D22CT,384,test
7056.659936904907,4,0,1,2,5,3,M,1,1,2,0,1000,250.0,1,D22CT,385,test
592.8051471710205,4,0,1,2,5,3,M,1,5,4,0,1000,250.0,5,D22CT,386,test
1040.8289432525635,4,0,1,2,5,3,M,1,2,3,0,1000,250.0,2,D22CT,387,test
720.7300662994385,4,0,1,2,5,3,M,1,5,4,0,1000,250.0,5,D22CT,388,test
768.6178684234619,4,0,1,2,5,3,M,1,0,1,0,1000,250.0,0,D22CT,389,test
7424.739122390747,4,0,1,2,5,3,M,1,2,3,0,1000,250.0,2,D22CT,390,test
641.1278247833252,4,0,1,2,5,3,M,1,3,5,0,1000,250.0,3,D22CT,391,test
1585.0410461425781,4,0,1,2,5,3,M,1,5,4,0,1000,250.0,5,D22CT,392,test
913.0420684814453,4,0,1,2,5,3,M,1,0,1,0,1000,250.0,0,D22CT,393,test
1409.0640544891357,4,0,1,2,5,3,M,1,2,3,0,1000,250.0,2,D22CT,394,test
5632.983207702637,4,0,1,2,5,3,M,1,5,4,0,1000,250.0,5,D22CT,395,test
753.0269622802734,4,0,1,2,5,3,M,1,1,2,0,1000,250.0,1,D22CT,396,test
7697.112798690796,4,0,1,2,5,3,M,1,5,4,0,1000,250.0,5,D22CT,397,test
5761.146783828735,4,0,1,2,5,3,M,1,1,2,0,1000,250.0,1,D22CT,398,test
673.105001449585,4,0,1,2,5,3,M,1,1,2,0,1000,250.0,1,D22CT,399,test
2688.962936401367,4,0,1,2,5,3,M,1,1,2,0,1000,250.0,1,D22CT,400,test
5233.198881149292,4,0,1,2,5,3,M,1,3,5,0,1000,250.0,3,D22CT,401,test
1073.179006576538,4,0,1,2,5,3,M,1,0,1,0,1000,250.0,0,D22CT,402,test
672.9850769042969,4,0,1,2,5,3,M,1,1,2,0,1000,250.0,1,D22CT,403,test
8833.207130432129,4,0,1,2,5,3,M,1,5,4,0,1000,250.0,5,D22CT,404,test
1665.1239395141602,4,0,1,2,5,3,M,1,2,3,0,1000,250.0,2,D22CT,405,test
945.1940059661865,4,0,1,2,5,3,M,1,2,3,0,1000,250.0,2,D22CT,406,test
944.7689056396484,4,0,1,2,5,3,M,0,3,5,0,1000,250.0,4,D22CT,407,test
929.0940761566162,4,0,1,2,5,3,M,1,2,3,0,1000,250.0,2,D22CT,408,test
481.10389709472656,4,0,1,2,5,3,M,1,2,3,0,1000,250.0,2,D22CT,409,test
529.1428565979004,4,0,1,2,5,3,M,1,2,3,0,1000,250.0,2,D22CT,410,test
1105.2379608154297,4,0,1,2,5,3,M,1,4,0,0,1000,250.0,4,D22CT,411,test
753.1981468200684,4,0,1,2,5,3,M,1,5,4,0,1000,250.0,5,D22CT,412,test
993.182897567749,4,0,1,2,5,3,M,1,5,4,0,1000,250.0,5,D22CT,413,test
2048.9540100097656,4,0,1,2,5,3,M,1,3,5,0,1000,250.0,3,D22CT,414,test
721.1558818817139,4,0,1,2,5,3,M,1,1,2,0,1000,250.0,1,D22CT,415,test
1489.0408515930176,4,0,1,2,5,3,M,1,3,5,0,1000,250.0,3,D22CT,416,test
737.0991706848145,4,0,1,2,5,3,M,1,1,2,0,1000,250.0,1,D22CT,417,test
753.169059753418,4,0,1,2,5,3,M,1,0,1,0,1000,250.0,0,D22CT,418,test
1105.1161289215088,4,0,1,2,5,3,M,0,3,5,0,1000,250.0,4,D22CT,419,test
1137.1369361877441,4,0,1,2,5,3,M,1,0,1,0,1000,250.0,0,D22CT,420,test
736.9530200958252,4,0,1,2,5,3,M,1,3,5,0,1000,250.0,3,D22CT,421,test
865.1599884033203,4,0,1,2,5,3,M,1,5,4,0,1000,250.0,5,D22CT,422,test
849.0889072418213,4,0,1,2,5,3,M,1,3,5,0,1000,250.0,3,D22CT,423,test
689.1958713531494,4,0,1,2,5,3,M,1,1,2,0,1000,250.0,1,D22CT,424,test
593.16086769104,4,0,1,2,5,3,M,1,0,1,0,1000,250.0,0,D22CT,425,test
625.0619888305664,4,0,1,2,5,3,M,1,5,4,0,1000,250.0,5,D22CT,426,test
1121.1369037628174,4,0,1,2,5,3,M,1,4,0,0,1000,250.0,4,D22CT,427,test
849.1439819335938,4,0,1,2,5,3,M,1,3,5,0,1000,250.0,3,D22CT,428,test
528.8510322570801,4,0,1,2,5,3,M,1,2,3,0,1000,250.0,2,D22CT,429,test
721.045970916748,4,0,1,2,5,3,M,0,4,0,0,1000,250.0,5,D22CT,430,test
753.1299591064453,4,0,1,2,5,3,M,1,2,3,0,1000,250.0,2,D22CT,431,test
897.1340656280518,4,0,1,2,5,3,M,0,1,2,0,1000,250.0,0,D22CT,432,test
785.0890159606934,4,0,1,2,5,3,M,1,1,2,0,1000,250.0,1,D22CT,433,test
1265.0389671325684,4,0,1,2,5,3,M,1,3,5,0,1000,250.0,3,D22CT,434,test
769.0329551696777,4,0,1,2,5,3,M,1,5,4,0,1000,250.0,5,D22CT,435,test
832.9751491546631,4,0,1,2,5,3,M,1,3,5,0,1000,250.0,3,D22CT,436,test
673.1469631195068,4,0,1,2,5,3,M,1,4,0,0,1000,250.0,4,D22CT,437,test
1777.1198749542236,4,0,1,2,5,3,M,1,5,4,0,1000,250.0,5,D22CT,438,test
721.0040092468262,4,0,1,2,5,3,M,1,1,2,0,1000,250.0,1,D22CT,439,test
1777.2371768951416,4,0,1,2,5,3,M,1,3,5,0,1000,250.0,3,D22CT,440,test
560.8689785003662,4,0,1,2,5,3,M,1,5,4,0,1000,250.0,5,D22CT,441,test
705.1441669464111,4,0,1,2,5,3,M,1,0,1,0,1000,250.0,0,D22CT,442,test
2145.0600624084473,4,0,1,2,5,3,M,1,3,5,0,1000,250.0,3,D22CT,443,test
753.0457973480225,4,0,1,2,5,3,M,1,1,2,0,1000,250.0,1,D22CT,444,test
864.952802658081,4,0,1,2,5,3,M,1,0,1,0,1000,250.0,0,D22CT,445,test
641.0670280456543,4,0,1,2,5,3,M,0,4,0,0,1000,250.0,5,D22CT,446,test
833.1599235534668,4,0,1,2,5,3,M,0,0,1,0,1000,250.0,1,D22CT,447,test
689.1720294952393,4,0,1,2,5,3,M,1,0,1,0,1000,250.0,0,D22CT,448,test
801.1150360107422,4,0,1,2,5,3,M,1,1,2,0,1000,250.0,1,D22CT,449,test
2401.167869567871,4,0,1,2,5,3,M,1,4,0,0,1000,250.0,4,D22CT,450,test
721.1451530456543,4,0,1,2,5,3,M,1,5,4,0,1000,250.0,5,D22CT,451,test
929.1529655456543,4,0,1,2,5,3,M,0,0,1,0,1000,250.0,1,D22CT,452,test
1185.0531101226807,4,0,1,2,5,3,M,1,3,5,0,1000,250.0,3,D22CT,453,test
1281.153917312622,4,0,1,2,5,3,M,1,0,1,0,1000,250.0,0,D22CT,454,test
1121.1638450622559,4,0,1,2,5,3,M,0,3,5,0,1000,250.0,4,D22CT,455,test
2705.1548957824707,4,0,1,2,5,3,M,1,5,4,0,1000,250.0,5,D22CT,456,test
1264.9750709533691,4,0,1,2,5,3,M,1,5,4,0,1000,250.0,5,D22CT,457,test
993.0448532104492,4,0,1,2,5,3,M,1,1,2,0,1000,250.0,1,D22CT,458,test
8944.793939590454,4,0,1,2,5,3,M,1,0,1,0,1000,250.0,0,D22CT,459,test
1568.9051151275635,4,0,1,2,5,3,M,1,4,0,0,1000,250.0,4,D22CT,460,test
625.2241134643555,4,0,1,2,5,3,M,1,5,4,0,1000,250.0,5,D22CT,461,test
593.1558609008789,4,0,1,2,5,3,M,1,5,4,0,1000,250.0,5,D22CT,462,test
625.1189708709717,4,0,1,2,5,3,M,1,1,2,0,1000,250.0,1,D22CT,463,test
1264.969825744629,4,0,1,2,5,3,M,1,2,3,0,1000,250.0,2,D22CT,464,test
545.1159477233887,4,0,1,2,5,3,M,1,1,2,0,1000,250.0,1,D22CT,465,test
641.2129402160645,4,0,1,2,5,3,M,1,5,4,0,1000,250.0,5,D22CT,466,test
1409.1899394989014,4,0,1,2,5,3,M,1,0,1,0,1000,250.0,0,D22CT,467,test
1697.1940994262695,4,0,1,2,5,3,M,1,2,3,0,1000,250.0,2,D22CT,468,test
1073.202133178711,4,0,1,2,5,3,M,0,3,5,0,1000,250.0,4,D22CT,469,test
1441.235065460205,4,0,1,2,5,3,M,1,1,2,0,1000,250.0,1,D22CT,470,test
1216.982126235962,4,0,1,2,5,3,M,1,4,0,0,1000,250.0,4,D22CT,471,test
1040.9748554229736,4,0,1,2,5,3,M,1,4,0,0,1000,250.0,4,D22CT,472,test
801.1610507965088,4,0,1,2,5,3,M,1,2,3,0,1000,250.0,2,D22CT,473,test
1121.2270259857178,4,0,1,2,5,3,M,1,4,0,0,1000,250.0,4,D22CT,474,test
593.2149887084961,4,0,1,2,5,3,M,1,0,1,0,1000,250.0,0,D22CT,475,test
641.09206199646,4,0,1,2,5,3,M,1,4,0,0,1000,250.0,4,D22CT,476,test
497.1508979797363,4,0,1,2,5,3,M,1,5,4,0,1000,250.0,5,D22CT,477,test
593.09983253479,4,0,1,2,5,3,M,1,4,0,0,1000,250.0,4,D22CT,478,test
977.1509170532227,4,0,1,2,5,3,M,0,3,5,0,1000,250.0,4,D22CT,479,test
784.5048904418945,4,0,1,2,5,3,M,1,4,0,0,1000,250.0,4,D22CT,480,test
816.321849822998,4,0,1,2,5,3,M,1,1,2,0,1000,250.0,1,D22CT,481,test
832.7250480651855,4,0,1,2,5,3,M,1,3,5,0,1000,250.0,3,D22CT,482,test
624.7529983520508,4,0,1,2,5,3,M,1,0,1,0,1000,250.0,0,D22CT,483,test
1088.7680053710938,4,0,1,2,5,3,M,1,1,2,0,1000,250.0,1,D22CT,484,test
592.6260948181152,4,0,1,2,5,3,M,1,5,4,0,1000,250.0,5,D22CT,485,test
848.822832107544,4,0,1,2,5,3,M,0,3,5,0,1000,250.0,4,D22CT,486,test
768.7811851501465,4,0,1,2,5,3,M,1,2,3,0,1000,250.0,2,D22CT,487,test
687.9630088806152,4,0,1,2,5,3,M,1,1,2,0,1000,250.0,1,D22CT,488,test
896.7649936676025,4,0,1,2,5,3,M,1,4,0,0,1000,250.0,4,D22CT,489,test
688.7111663818359,4,0,1,2,5,3,M,1,2,3,0,1000,250.0,2,D22CT,490,test
800.8489608764648,4,0,1,2,5,3,M,1,0,1,0,1000,250.0,0,D22CT,491,test
8256.67405128479,4,0,1,2,5,3,M,1,3,5,0,1000,250.0,3,D22CT,492,test
1168.6480045318604,4,0,1,2,5,3,M,1,2,3,0,1000,250.0,2,D22CT,493,test
1056.8320751190186,4,0,1,2,5,3,M,1,2,3,0,1000,250.0,2,D22CT,494,test
752.5680065155029,4,0,1,2,5,3,M,1,4,0,0,1000,250.0,4,D22CT,495,test
1104.7329902648926,4,0,1,2,5,3,M,1,3,5,0,1000,250.0,3,D22CT,496,test
864.6399974822998,4,0,1,2,5,3,M,1,0,1,0,1000,250.0,0,D22CT,497,test
1584.6970081329346,4,0,1,2,5,3,M,1,3,5,0,1000,250.0,3,D22CT,498,test
640.9049034118652,4,0,1,2,5,3,M,1,5,4,0,1000,250.0,5,D22CT,499,test
