RT,SRmap_0,SRmap_1,SRmap_2,SRmap_3,SRmap_4,SRmap_5,condition,correct,correct_response,curstim,ms-precue,ms-prestimblank,ntrials,response,subject,trial,type
3087.661027908325,2,5,1,0,3,4,H+,1,2,0,0,1000,250.0,2,E07SH,0,train
1824.3820667266846,2,5,1,0,3,4,H+,1,3,4,0,1000,250.0,3,E07SH,1,train
944.5970058441162,2,5,1,0,3,4,H+,1,2,0,0,1000,250.0,2,E07SH,2,train
1760.6220245361328,2,5,1,0,3,4,H+,1,5,1,0,1000,250.0,5,E07SH,3,train
592.613935470581,2,5,1,0,3,4,H+,1,5,1,0,1000,250.0,5,E07SH,4,train
1232.5279712677002,2,5,1,0,3,4,H+,1,4,5,0,1000,250.0,4,E07SH,5,train
1088.8259410858154,2,5,1,0,3,4,H+,1,0,3,0,1000,250.0,0,E07SH,6,train
1040.6410694122314,2,5,1,0,3,4,H+,1,0,3,0,1000,250.0,0,E07SH,7,train
624.5031356811523,2,5,1,0,3,4,H+,1,1,2,0,1000,250.0,1,E07SH,8,train
624.6399879455566,2,5,1,0,3,4,H+,1,1,2,0,1000,250.0,1,E07SH,9,train
512.5420093536377,2,5,1,0,3,4,H+,1,1,2,0,1000,250.0,1,E07SH,10,train
1072.6618766784668,2,5,1,0,3,4,H+,1,3,4,0,1000,250.0,3,E07SH,11,train
399.96790885925293,2,5,1,0,3,4,H+,1,3,4,0,1000,250.0,3,E07SH,12,train
560.5928897857666,2,5,1,0,3,4,H+,1,2,0,0,1000,250.0,2,E07SH,13,train
1088.636875152588,2,5,1,0,3,4,H+,1,5,1,0,1000,250.0,5,E07SH,14,train
896.9011306762695,2,5,1,0,3,4,H+,1,1,2,0,1000,250.0,1,E07SH,15,train
656.5420627593994,2,5,1,0,3,4,H+,1,2,0,0,1000,250.0,2,E07SH,16,train
672.821044921875,2,5,1,0,3,4,H+,0,4,5,0,1000,250.0,1,E07SH,17,train
608.6559295654297,2,5,1,0,3,4,H+,1,1,2,0,1000,250.0,1,E07SH,18,train
544.5539951324463,2,5,1,0,3,4,H+,1,1,2,0,1000,250.0,1,E07SH,19,train
480.5281162261963,2,5,1,0,3,4,H+,1,1,2,0,1000,250.0,1,E07SH,20,train
1104.6669483184814,2,5,1,0,3,4,H+,1,0,3,0,1000,250.0,0,E07SH,21,train
912.2960567474365,2,5,1,0,3,4,H+,1,0,3,0,1000,250.0,0,E07SH,22,train
592.5970077514648,2,5,1,0,3,4,H+,1,1,2,0,1000,250.0,1,E07SH,23,train
656.8470001220703,2,5,1,0,3,4,H+,1,0,3,0,1000,250.0,0,E07SH,24,train
1184.823989868164,2,5,1,0,3,4,H+,1,4,5,0,1000,250.0,4,E07SH,25,train
864.5749092102051,2,5,1,0,3,4,H+,1,3,4,0,1000,250.0,3,E07SH,26,train
800.4920482635498,2,5,1,0,3,4,H+,1,0,3,0,1000,250.0,0,E07SH,27,train
496.3400363922119,2,5,1,0,3,4,H+,1,0,3,0,1000,250.0,0,E07SH,28,train
624.5441436767578,2,5,1,0,3,4,H+,1,0,3,0,1000,250.0,0,E07SH,29,train
720.4909324645996,2,5,1,0,3,4,H+,1,3,4,0,1000,250.0,3,E07SH,30,train
496.6440200805664,2,5,1,0,3,4,H+,1,3,4,0,1000,250.0,3,E07SH,31,train
432.65414237976074,2,5,1,0,3,4,H+,1,3,4,0,1000,250.0,3,E07SH,32,train
448.52399826049805,2,5,1,0,3,4,H+,1,2,0,0,1000,250.0,2,E07SH,33,train
1152.7791023254395,2,5,1,0,3,4,H+,1,4,5,0,1000,250.0,4,E07SH,34,train
992.8669929504395,2,5,1,0,3,4,H+,1,3,4,0,1000,250.0,3,E07SH,35,train
608.5889339447021,2,5,1,0,3,4,H+,1,5,1,0,1000,250.0,5,E07SH,36,train
544.5661544799805,2,5,1,0,3,4,H+,1,1,2,0,1000,250.0,1,E07SH,37,train
624.5260238647461,2,5,1,0,3,4,H+,0,4,5,0,1000,250.0,3,E07SH,38,train
1072.5080966949463,2,5,1,0,3,4,H+,1,2,0,0,1000,250.0,2,E07SH,39,train
528.5739898681641,2,5,1,0,3,4,H+,1,2,0,0,1000,250.0,2,E07SH,40,train
1040.8320426940918,2,5,1,0,3,4,H+,1,3,4,0,1000,250.0,3,E07SH,41,train
640.5749320983887,2,5,1,0,3,4,H+,1,2,0,0,1000,250.0,2,E07SH,42,train
736.6321086883545,2,5,1,0,3,4,H+,1,0,3,0,1000,250.0,0,E07SH,43,train
896.6329097747803,2,5,1,0,3,4,H+,1,4,5,0,1000,250.0,4,E07SH,44,train
592.6101207733154,2,5,1,0,3,4,H+,1,5,1,0,1000,250.0,5,E07SH,45,train
544.5539951324463,2,5,1,0,3,4,H+,1,2,0,0,1000,250.0,2,E07SH,46,train
640.5761241912842,2,5,1,0,3,4,H+,1,2,0,0,1000,250.0,2,E07SH,47,train
832.6201438903809,2,5,1,0,3,4,H+,0,4,5,0,1000,250.0,0,E07SH,48,train
784.5859527587891,2,5,1,0,3,4,H+,1,3,4,0,1000,250.0,3,E07SH,49,train
672.6398468017578,2,5,1,0,3,4,H+,1,1,2,0,1000,250.0,1,E07SH,50,train
672.8029251098633,2,5,1,0,3,4,H+,1,3,4,0,1000,250.0,3,E07SH,51,train
704.6070098876953,2,5,1,0,3,4,H+,1,4,5,0,1000,250.0,4,E07SH,52,train
560.6529712677002,2,5,1,0,3,4,H+,0,2,0,0,1000,250.0,3,E07SH,53,train
736.6428375244141,2,5,1,0,3,4,H+,1,3,4,0,1000,250.0,3,E07SH,54,train
672.576904296875,2,5,1,0,3,4,H+,1,1,2,0,1000,250.0,1,E07SH,55,train
528.5980701446533,2,5,1,0,3,4,H+,1,1,2,0,1000,250.0,1,E07SH,56,train
944.5719718933105,2,5,1,0,3,4,H+,1,3,4,0,1000,250.0,3,E07SH,57,train
640.5751705169678,2,5,1,0,3,4,H+,1,2,0,0,1000,250.0,2,E07SH,58,train
784.559965133667,2,5,1,0,3,4,H+,1,3,4,0,1000,250.0,3,E07SH,59,train
624.629020690918,2,5,1,0,3,4,H+,1,0,3,0,1000,250.0,0,E07SH,60,train
736.6440296173096,2,5,1,0,3,4,H+,1,4,5,0,1000,250.0,4,E07SH,61,train
704.6170234680176,2,5,1,0,3,4,H+,1,3,4,0,1000,250.0,3,E07SH,62,train
768.5761451721191,2,5,1,0,3,4,H+,1,0,3,0,1000,250.0,0,E07SH,63,train
736.624002456665,2,5,1,0,3,4,H+,1,3,4,0,1000,250.0,3,E07SH,64,train
656.6369533538818,2,5,1,0,3,4,H+,1,1,2,0,1000,250.0,1,E07SH,65,train
688.6050701141357,2,5,1,0,3,4,H+,1,3,4,0,1000,250.0,3,E07SH,66,train
528.5851955413818,2,5,1,0,3,4,H+,1,2,0,0,1000,250.0,2,E07SH,67,train
816.612958908081,2,5,1,0,3,4,H+,1,4,5,0,1000,250.0,4,E07SH,68,train
448.6558437347412,2,5,1,0,3,4,H+,0,1,2,0,1000,250.0,5,E07SH,69,train
672.6109981536865,2,5,1,0,3,4,H+,1,0,3,0,1000,250.0,0,E07SH,70,train
1071.6869831085205,2,5,1,0,3,4,H+,1,4,5,0,1000,250.0,4,E07SH,71,train
1312.5481605529785,2,5,1,0,3,4,H+,1,0,3,0,1000,250.0,0,E07SH,72,train
624.5970726013184,2,5,1,0,3,4,H+,1,5,1,0,1000,250.0,5,E07SH,73,train
528.3191204071045,2,5,1,0,3,4,H+,1,5,1,0,1000,250.0,5,E07SH,74,train
576.5171051025391,2,5,1,0,3,4,H+,1,1,2,0,1000,250.0,1,E07SH,75,train
560.6241226196289,2,5,1,0,3,4,H+,1,2,0,0,1000,250.0,2,E07SH,76,train
656.6600799560547,2,5,1,0,3,4,H+,1,1,2,0,1000,250.0,1,E07SH,77,train
896.6848850250244,2,5,1,0,3,4,H+,0,4,5,0,1000,250.0,3,E07SH,78,train
736.8412017822266,2,5,1,0,3,4,H+,1,0,3,0,1000,250.0,0,E07SH,79,train
784.5499515533447,2,5,1,0,3,4,H+,1,5,1,0,1000,250.0,5,E07SH,80,train
784.6128940582275,2,5,1,0,3,4,H+,1,1,2,0,1000,250.0,1,E07SH,81,train
576.6580104827881,2,5,1,0,3,4,H+,1,1,2,0,1000,250.0,1,E07SH,82,train
656.6660404205322,2,5,1,0,3,4,H+,1,5,1,0,1000,250.0,5,E07SH,83,train
432.56497383117676,2,5,1,0,3,4,H+,1,5,1,0,1000,250.0,5,E07SH,84,train
768.726110458374,2,5,1,0,3,4,H+,0,4,5,0,1000,250.0,0,E07SH,85,train
800.8790016174316,2,5,1,0,3,4,H+,0,4,5,0,1000,250.0,5,E07SH,86,train
608.6421012878418,2,5,1,0,3,4,H+,1,5,1,0,1000,250.0,5,E07SH,87,train
704.6492099761963,2,5,1,0,3,4,H+,1,1,2,0,1000,250.0,1,E07SH,88,train
704.8661708831787,2,5,1,0,3,4,H+,1,1,2,0,1000,250.0,1,E07SH,89,train
672.5831031799316,2,5,1,0,3,4,H+,1,2,0,0,1000,250.0,2,E07SH,90,train
640.6450271606445,2,5,1,0,3,4,H+,1,2,0,0,1000,250.0,2,E07SH,91,train
608.6301803588867,2,5,1,0,3,4,H+,1,5,1,0,1000,250.0,5,E07SH,92,train
592.6039218902588,2,5,1,0,3,4,H+,1,1,2,0,1000,250.0,1,E07SH,93,train
784.6808433532715,2,5,1,0,3,4,H+,1,2,0,0,1000,250.0,2,E07SH,94,train
624.6528625488281,2,5,1,0,3,4,H+,1,2,0,0,1000,250.0,2,E07SH,95,train
576.6401290893555,2,5,1,0,3,4,H+,1,1,2,0,1000,250.0,1,E07SH,96,train
608.673095703125,2,5,1,0,3,4,H+,1,3,4,0,1000,250.0,3,E07SH,97,train
480.3638458251953,2,5,1,0,3,4,H+,1,4,5,0,1000,250.0,4,E07SH,98,train
416.60404205322266,2,5,1,0,3,4,H+,1,3,4,0,1000,250.0,3,E07SH,99,train
608.8922023773193,2,5,1,0,3,4,H+,1,0,3,0,1000,250.0,0,E07SH,100,train
496.62184715270996,2,5,1,0,3,4,H+,1,5,1,0,1000,250.0,5,E07SH,101,train
400.5849361419678,2,5,1,0,3,4,H+,1,1,2,0,1000,250.0,1,E07SH,102,train
592.505931854248,2,5,1,0,3,4,H+,1,3,4,0,1000,250.0,3,E07SH,103,train
512.6590728759766,2,5,1,0,3,4,H+,0,1,2,0,1000,250.0,2,E07SH,104,train
528.6719799041748,2,5,1,0,3,4,H+,1,5,1,0,1000,250.0,5,E07SH,105,train
736.5858554840088,2,5,1,0,3,4,H+,1,2,0,0,1000,250.0,2,E07SH,106,train
496.4251518249512,2,5,1,0,3,4,H+,1,2,0,0,1000,250.0,2,E07SH,107,train
560.6050491333008,2,5,1,0,3,4,H+,1,2,0,0,1000,250.0,2,E07SH,108,train
640.8610343933105,2,5,1,0,3,4,H+,1,4,5,0,1000,250.0,4,E07SH,109,train
608.6890697479248,2,5,1,0,3,4,H+,1,1,2,0,1000,250.0,1,E07SH,110,train
480.61299324035645,2,5,1,0,3,4,H+,1,1,2,0,1000,250.0,1,E07SH,111,train
480.64613342285156,2,5,1,0,3,4,H+,1,1,2,0,1000,250.0,1,E07SH,112,train
576.6739845275879,2,5,1,0,3,4,H+,1,3,4,0,1000,250.0,3,E07SH,113,train
592.7300453186035,2,5,1,0,3,4,H+,1,3,4,0,1000,250.0,3,E07SH,114,train
592.6330089569092,2,5,1,0,3,4,H+,1,1,2,0,1000,250.0,1,E07SH,115,train
528.8729667663574,2,5,1,0,3,4,H+,1,5,1,0,1000,250.0,5,E07SH,116,train
448.66490364074707,2,5,1,0,3,4,H+,1,5,1,0,1000,250.0,5,E07SH,117,train
608.5999011993408,2,5,1,0,3,4,H+,0,0,3,0,1000,250.0,4,E07SH,118,train
752.8848648071289,2,5,1,0,3,4,H+,1,1,2,0,1000,250.0,1,E07SH,119,train
560.4681968688965,2,5,1,0,3,4,H+,1,0,3,0,1000,250.0,0,E07SH,120,train
592.4789905548096,2,5,1,0,3,4,H+,1,4,5,0,1000,250.0,4,E07SH,121,train
560.6091022491455,2,5,1,0,3,4,H+,1,0,3,0,1000,250.0,0,E07SH,122,train
576.6739845275879,2,5,1,0,3,4,H+,1,0,3,0,1000,250.0,0,E07SH,123,train
528.9459228515625,2,5,1,0,3,4,H+,1,5,1,0,1000,250.0,5,E07SH,124,train
656.6710472106934,2,5,1,0,3,4,H+,1,3,4,0,1000,250.0,3,E07SH,125,train
576.591968536377,2,5,1,0,3,4,H+,1,3,4,0,1000,250.0,3,E07SH,126,train
512.6519203186035,2,5,1,0,3,4,H+,1,5,1,0,1000,250.0,5,E07SH,127,train
672.5730895996094,2,5,1,0,3,4,H+,1,2,0,0,1000,250.0,2,E07SH,128,train
640.6829357147217,2,5,1,0,3,4,H+,1,4,5,0,1000,250.0,4,E07SH,129,train
528.6338329315186,2,5,1,0,3,4,H+,1,4,5,0,1000,250.0,4,E07SH,130,train
560.8000755310059,2,5,1,0,3,4,H+,1,5,1,0,1000,250.0,5,E07SH,131,train
672.6300716400146,2,5,1,0,3,4,H+,1,1,2,0,1000,250.0,1,E07SH,132,train
688.6630058288574,2,5,1,0,3,4,H+,0,4,5,0,1000,250.0,3,E07SH,133,train
512.9001140594482,2,5,1,0,3,4,H+,1,5,1,0,1000,250.0,5,E07SH,134,train
560.5401992797852,2,5,1,0,3,4,H+,1,0,3,0,1000,250.0,0,E07SH,135,train
688.7161731719971,2,5,1,0,3,4,H+,1,2,0,0,1000,250.0,2,E07SH,136,train
528.7668704986572,2,5,1,0,3,4,H+,1,5,1,0,1000,250.0,5,E07SH,137,train
608.6380481719971,2,5,1,0,3,4,H+,1,5,1,0,1000,250.0,5,E07SH,138,train
512.6669406890869,2,5,1,0,3,4,H+,1,2,0,0,1000,250.0,2,E07SH,139,train
592.3528671264648,2,5,1,0,3,4,H+,1,3,4,0,1000,250.0,3,E07SH,140,train
464.5829200744629,2,5,1,0,3,4,H+,1,3,4,0,1000,250.0,3,E07SH,141,train
624.8130798339844,2,5,1,0,3,4,H+,1,1,2,0,1000,250.0,1,E07SH,142,train
608.6580753326416,2,5,1,0,3,4,H+,1,2,0,0,1000,250.0,2,E07SH,143,train
560.6398582458496,2,5,1,0,3,4,H+,1,0,3,0,1000,250.0,0,E07SH,144,train
496.61993980407715,2,5,1,0,3,4,H+,1,4,5,0,1000,250.0,4,E07SH,145,train
400.6540775299072,2,5,1,0,3,4,H+,1,4,5,0,1000,250.0,4,E07SH,146,train
560.662031173706,2,5,1,0,3,4,H+,1,1,2,0,1000,250.0,1,E07SH,147,train
640.6509876251221,2,5,1,0,3,4,H+,1,4,5,0,1000,250.0,4,E07SH,148,train
672.5630760192871,2,5,1,0,3,4,H+,1,2,0,0,1000,250.0,2,E07SH,149,train
576.6019821166992,2,5,1,0,3,4,H+,1,0,3,0,1000,250.0,0,E07SH,150,train
832.6687812805176,2,5,1,0,3,4,H+,1,3,4,0,1000,250.0,3,E07SH,151,train
592.7009582519531,2,5,1,0,3,4,H+,1,1,2,0,1000,250.0,1,E07SH,152,train
1296.6749668121338,2,5,1,0,3,4,H+,1,0,3,0,1000,250.0,0,E07SH,153,train
560.6701374053955,2,5,1,0,3,4,H+,0,3,4,0,1000,250.0,2,E07SH,154,train
512.8910541534424,2,5,1,0,3,4,H+,1,3,4,0,1000,250.0,3,E07SH,155,train
512.6018524169922,2,5,1,0,3,4,H+,1,4,5,0,1000,250.0,4,E07SH,156,train
544.6169376373291,2,5,1,0,3,4,H+,1,5,1,0,1000,250.0,5,E07SH,157,train
544.5730686187744,2,5,1,0,3,4,H+,1,3,4,0,1000,250.0,3,E07SH,158,train
688.5519027709961,2,5,1,0,3,4,H+,1,1,2,0,1000,250.0,1,E07SH,159,train
737.0119094848633,2,5,1,0,3,4,H+,1,5,1,0,1000,250.0,5,E07SH,160,train
1201.0760307312012,2,5,1,0,3,4,H+,1,3,4,0,1000,250.0,3,E07SH,161,train
544.5969104766846,2,5,1,0,3,4,H+,1,4,5,0,1000,250.0,4,E07SH,162,train
513.077974319458,2,5,1,0,3,4,H+,1,4,5,0,1000,250.0,4,E07SH,163,train
609.0409755706787,2,5,1,0,3,4,H+,1,1,2,0,1000,250.0,1,E07SH,164,train
560.8029365539551,2,5,1,0,3,4,H+,1,0,3,0,1000,250.0,0,E07SH,165,train
881.1318874359131,2,5,1,0,3,4,H+,1,3,4,0,1000,250.0,3,E07SH,166,train
609.0688705444336,2,5,1,0,3,4,H+,1,1,2,0,1000,250.0,1,E07SH,167,train
560.9610080718994,2,5,1,0,3,4,H+,1,4,5,0,1000,250.0,4,E07SH,168,train
545.0491905212402,2,5,1,0,3,4,H+,1,4,5,0,1000,250.0,4,E07SH,169,train
496.9809055328369,2,5,1,0,3,4,H+,1,4,5,0,1000,250.0,4,E07SH,170,train
577.0490169525146,2,5,1,0,3,4,H+,1,3,4,0,1000,250.0,3,E07SH,171,train
736.8772029876709,2,5,1,0,3,4,H+,1,2,0,0,1000,250.0,2,E07SH,172,train
593.0478572845459,2,5,1,0,3,4,H+,1,5,1,0,1000,250.0,5,E07SH,173,train
609.0121269226074,2,5,1,0,3,4,H+,1,0,3,0,1000,250.0,0,E07SH,174,train
497.05004692077637,2,5,1,0,3,4,H+,1,5,1,0,1000,250.0,5,E07SH,175,train
449.09095764160156,2,5,1,0,3,4,H+,1,5,1,0,1000,250.0,5,E07SH,176,train
465.01708030700684,2,5,1,0,3,4,H+,1,3,4,0,1000,250.0,3,E07SH,177,train
593.0960178375244,2,5,1,0,3,4,H+,1,0,3,0,1000,250.0,0,E07SH,178,train
545.0248718261719,2,5,1,0,3,4,H+,1,0,3,0,1000,250.0,0,E07SH,179,train
592.9739475250244,2,5,1,0,3,4,H+,1,4,5,0,1000,250.0,4,E07SH,180,train
593.0159091949463,2,5,1,0,3,4,H+,1,3,4,0,1000,250.0,3,E07SH,181,train
529.1390419006348,2,5,1,0,3,4,H+,1,5,1,0,1000,250.0,5,E07SH,182,train
497.01404571533203,2,5,1,0,3,4,H+,1,2,0,0,1000,250.0,2,E07SH,183,train
593.127965927124,2,5,1,0,3,4,H+,1,3,4,0,1000,250.0,3,E07SH,184,train
512.8979682922363,2,5,1,0,3,4,H+,1,3,4,0,1000,250.0,3,E07SH,185,train
481.0771942138672,2,5,1,0,3,4,H+,0,2,0,0,1000,250.0,3,E07SH,186,train
657.0498943328857,2,5,1,0,3,4,H+,1,4,5,0,1000,250.0,4,E07SH,187,train
624.992847442627,2,5,1,0,3,4,H+,1,1,2,0,1000,250.0,1,E07SH,188,train
672.9469299316406,2,5,1,0,3,4,H+,1,4,5,0,1000,250.0,4,E07SH,189,train
561.1071586608887,2,5,1,0,3,4,H+,1,2,0,0,1000,250.0,2,E07SH,190,train
416.978120803833,2,5,1,0,3,4,H+,1,0,3,0,1000,250.0,0,E07SH,191,train
449.0189552307129,2,5,1,0,3,4,H+,1,0,3,0,1000,250.0,0,E07SH,192,train
513.0050182342529,2,5,1,0,3,4,H+,1,5,1,0,1000,250.0,5,E07SH,193,train
577.0831108093262,2,5,1,0,3,4,H+,1,0,3,0,1000,250.0,0,E07SH,194,train
800.894021987915,2,5,1,0,3,4,H+,1,4,5,0,1000,250.0,4,E07SH,195,train
448.9898681640625,2,5,1,0,3,4,H+,1,4,5,0,1000,250.0,4,E07SH,196,train
465.01708030700684,2,5,1,0,3,4,H+,1,4,5,0,1000,250.0,4,E07SH,197,train
641.1058902740479,2,5,1,0,3,4,H+,1,1,2,0,1000,250.0,1,E07SH,198,train
577.1050453186035,2,5,1,0,3,4,H+,1,0,3,0,1000,250.0,0,E07SH,199,train
465.06404876708984,2,5,1,0,3,4,H+,1,0,3,0,1000,250.0,0,E07SH,200,train
385.1001262664795,2,5,1,0,3,4,H+,1,0,3,0,1000,250.0,0,E07SH,201,train
545.0379848480225,2,5,1,0,3,4,H+,1,4,5,0,1000,250.0,4,E07SH,202,train
543.9479351043701,2,5,1,0,3,4,H+,1,2,0,0,1000,250.0,2,E07SH,203,train
528.8660526275635,2,5,1,0,3,4,H+,0,3,4,0,1000,250.0,4,E07SH,204,train
641.077995300293,2,5,1,0,3,4,H+,0,2,0,0,1000,250.0,3,E07SH,205,train
512.9659175872803,2,5,1,0,3,4,H+,1,2,0,0,1000,250.0,2,E07SH,206,train
689.0988349914551,2,5,1,0,3,4,H+,1,1,2,0,1000,250.0,1,E07SH,207,train
544.8551177978516,2,5,1,0,3,4,H+,1,2,0,0,1000,250.0,2,E07SH,208,train
496.92797660827637,2,5,1,0,3,4,H+,1,2,0,0,1000,250.0,2,E07SH,209,train
497.0250129699707,2,5,1,0,3,4,H+,1,1,2,0,1000,250.0,1,E07SH,210,train
608.9799404144287,2,5,1,0,3,4,H+,1,4,5,0,1000,250.0,4,E07SH,211,train
496.95396423339844,2,5,1,0,3,4,H+,1,4,5,0,1000,250.0,4,E07SH,212,train
481.0349941253662,2,5,1,0,3,4,H+,1,4,5,0,1000,250.0,4,E07SH,213,train
624.8900890350342,2,5,1,0,3,4,H+,0,3,4,0,1000,250.0,2,E07SH,214,train
624.9799728393555,2,5,1,0,3,4,H+,1,0,3,0,1000,250.0,0,E07SH,215,train
544.7549819946289,2,5,1,0,3,4,H+,1,3,4,0,1000,250.0,3,E07SH,216,train
544.8849201202393,2,5,1,0,3,4,H+,1,0,3,0,1000,250.0,0,E07SH,217,train
592.9310321807861,2,5,1,0,3,4,H+,1,2,0,0,1000,250.0,2,E07SH,218,train
608.9379787445068,2,5,1,0,3,4,H+,1,4,5,0,1000,250.0,4,E07SH,219,train
496.884822845459,2,5,1,0,3,4,H+,1,5,1,0,1000,250.0,5,E07SH,220,train
417.03104972839355,2,5,1,0,3,4,H+,1,4,5,0,1000,250.0,4,E07SH,221,train
448.87399673461914,2,5,1,0,3,4,H+,1,4,5,0,1000,250.0,4,E07SH,222,train
657.1030616760254,2,5,1,0,3,4,H+,1,1,2,0,1000,250.0,1,E07SH,223,train
512.8769874572754,2,5,1,0,3,4,H+,0,3,4,0,1000,250.0,4,E07SH,224,train
593.0159091949463,2,5,1,0,3,4,H+,1,0,3,0,1000,250.0,0,E07SH,225,train
608.9160442352295,2,5,1,0,3,4,H+,1,2,0,0,1000,250.0,2,E07SH,226,train
625.0908374786377,2,5,1,0,3,4,H+,1,0,3,0,1000,250.0,0,E07SH,227,train
512.8469467163086,2,5,1,0,3,4,H+,1,0,3,0,1000,250.0,0,E07SH,228,train
608.940839767456,2,5,1,0,3,4,H+,1,3,4,0,1000,250.0,3,E07SH,229,train
640.90895652771,2,5,1,0,3,4,H+,0,2,0,0,1000,250.0,3,E07SH,230,train
752.5269985198975,2,5,1,0,3,4,H+,0,4,5,0,1000,250.0,0,E07SH,231,train
560.8808994293213,2,5,1,0,3,4,H+,1,0,3,0,1000,250.0,0,E07SH,232,train
512.9289627075195,2,5,1,0,3,4,H+,1,5,1,0,1000,250.0,5,E07SH,233,train
512.9292011260986,2,5,1,0,3,4,H+,1,3,4,0,1000,250.0,3,E07SH,234,train
656.9209098815918,2,5,1,0,3,4,H+,1,1,2,0,1000,250.0,1,E07SH,235,train
624.5870590209961,2,5,1,0,3,4,H+,1,5,1,0,1000,250.0,5,E07SH,236,train
449.01204109191895,2,5,1,0,3,4,H+,1,1,2,0,1000,250.0,1,E07SH,237,train
496.9949722290039,2,5,1,0,3,4,H+,1,0,3,0,1000,250.0,0,E07SH,238,train
544.9519157409668,2,5,1,0,3,4,H+,1,3,4,0,1000,250.0,3,E07SH,239,train
529.1008949279785,2,5,1,0,3,4,H+,1,5,1,0,1000,250.0,5,E07SH,240,train
512.5551223754883,2,5,1,0,3,4,H+,1,2,0,0,1000,250.0,2,E07SH,241,train
529.0729999542236,2,5,1,0,3,4,H+,1,3,4,0,1000,250.0,3,E07SH,242,train
609.03000831604,2,5,1,0,3,4,H+,1,4,5,0,1000,250.0,4,E07SH,243,train
513.1030082702637,2,5,1,0,3,4,H+,1,5,1,0,1000,250.0,5,E07SH,244,train
576.9779682159424,2,5,1,0,3,4,H+,1,3,4,0,1000,250.0,3,E07SH,245,train
593.0469036102295,2,5,1,0,3,4,H+,1,2,0,0,1000,250.0,2,E07SH,246,train
672.990083694458,2,5,1,0,3,4,H+,1,4,5,0,1000,250.0,4,E07SH,247,train
464.88213539123535,2,5,1,0,3,4,H+,1,4,5,0,1000,250.0,4,E07SH,248,train
528.9480686187744,2,5,1,0,3,4,H+,1,0,3,0,1000,250.0,0,E07SH,249,train
1888.8218402862549,2,5,1,0,3,4,H+,1,2,0,0,1000,250.0,2,E07SH,250,test
592.5891399383545,2,5,1,0,3,4,H+,1,2,0,0,1000,250.0,2,E07SH,251,test
576.5860080718994,2,5,1,0,3,4,H+,1,3,4,0,1000,250.0,3,E07SH,252,test
480.5891513824463,2,5,1,0,3,4,H+,1,5,1,0,1000,250.0,5,E07SH,253,test
448.49705696105957,2,5,1,0,3,4,H+,1,5,1,0,1000,250.0,5,E07SH,254,test
560.5661869049072,2,5,1,0,3,4,H+,1,3,4,0,1000,250.0,3,E07SH,255,test
400.4971981048584,2,5,1,0,3,4,H+,1,2,0,0,1000,250.0,2,E07SH,256,test
592.6759243011475,2,5,1,0,3,4,H+,1,0,3,0,1000,250.0,0,E07SH,257,test
496.64998054504395,2,5,1,0,3,4,H+,0,2,0,0,1000,250.0,3,E07SH,258,test
544.795036315918,2,5,1,0,3,4,H+,1,2,0,0,1000,250.0,2,E07SH,259,test
608.4978580474854,2,5,1,0,3,4,H+,1,4,5,0,1000,250.0,4,E07SH,260,test
640.916109085083,2,5,1,0,3,4,H+,1,1,2,0,1000,250.0,1,E07SH,261,test
528.6269187927246,2,5,1,0,3,4,H+,1,3,4,0,1000,250.0,3,E07SH,262,test
560.614824295044,2,5,1,0,3,4,H+,1,1,2,0,1000,250.0,1,E07SH,263,test
624.6750354766846,2,5,1,0,3,4,H+,0,0,3,0,1000,250.0,3,E07SH,264,test
608.665943145752,2,5,1,0,3,4,H+,1,1,2,0,1000,250.0,1,E07SH,265,test
512.5479698181152,2,5,1,0,3,4,H+,1,3,4,0,1000,250.0,3,E07SH,266,test
544.7077751159668,2,5,1,0,3,4,H+,1,2,0,0,1000,250.0,2,E07SH,267,test
576.6639709472656,2,5,1,0,3,4,H+,1,3,4,0,1000,250.0,3,E07SH,268,test
688.9340877532959,2,5,1,0,3,4,H+,1,2,0,0,1000,250.0,2,E07SH,269,test
512.6001834869385,2,5,1,0,3,4,H+,1,3,4,0,1000,250.0,3,E07SH,270,test
545.1040267944336,2,5,1,0,3,4,H+,1,1,2,0,1000,250.0,1,E07SH,271,test
480.8940887451172,2,5,1,0,3,4,H+,1,2,0,0,1000,250.0,2,E07SH,272,test
449.10621643066406,2,5,1,0,3,4,H+,1,2,0,0,1000,250.0,2,E07SH,273,test
577.0530700683594,2,5,1,0,3,4,H+,1,4,5,0,1000,250.0,4,E07SH,274,test
609.0641021728516,2,5,1,0,3,4,H+,1,3,4,0,1000,250.0,3,E07SH,275,test
608.6680889129639,2,5,1,0,3,4,H+,1,0,3,0,1000,250.0,0,E07SH,276,test
513.0670070648193,2,5,1,0,3,4,H+,1,0,3,0,1000,250.0,0,E07SH,277,test
544.9509620666504,2,5,1,0,3,4,H+,1,3,4,0,1000,250.0,3,E07SH,278,test
481.0628890991211,2,5,1,0,3,4,H+,1,2,0,0,1000,250.0,2,E07SH,279,test
641.0090923309326,2,5,1,0,3,4,H+,1,4,5,0,1000,250.0,4,E07SH,280,test
609.0340614318848,2,5,1,0,3,4,H+,1,3,4,0,1000,250.0,3,E07SH,281,test
480.942964553833,2,5,1,0,3,4,H+,0,1,2,0,1000,250.0,5,E07SH,282,test
560.6570243835449,2,5,1,0,3,4,H+,1,3,4,0,1000,250.0,3,E07SH,283,test
673.9399433135986,2,5,1,0,3,4,H+,1,2,0,0,1000,250.0,2,E07SH,284,test
496.9611167907715,2,5,1,0,3,4,H+,1,5,1,0,1000,250.0,5,E07SH,285,test
609.1611385345459,2,5,1,0,3,4,H+,1,4,5,0,1000,250.0,4,E07SH,286,test
561.0470771789551,2,5,1,0,3,4,H+,1,3,4,0,1000,250.0,3,E07SH,287,test
576.4122009277344,2,5,1,0,3,4,H+,1,2,0,0,1000,250.0,2,E07SH,288,test
656.6100120544434,2,5,1,0,3,4,H+,1,2,0,0,1000,250.0,2,E07SH,289,test
464.6739959716797,2,5,1,0,3,4,H+,1,2,0,0,1000,250.0,2,E07SH,290,test
608.6859703063965,2,5,1,0,3,4,H+,1,1,2,0,1000,250.0,1,E07SH,291,test
800.4140853881836,2,5,1,0,3,4,H+,1,4,5,0,1000,250.0,4,E07SH,292,test
528.6979675292969,2,5,1,0,3,4,H+,1,4,5,0,1000,250.0,4,E07SH,293,test
688.6870861053467,2,5,1,0,3,4,H+,1,1,2,0,1000,250.0,1,E07SH,294,test
544.6670055389404,2,5,1,0,3,4,H+,1,0,3,0,1000,250.0,0,E07SH,295,test
608.6411476135254,2,5,1,0,3,4,H+,1,3,4,0,1000,250.0,3,E07SH,296,test
528.656005859375,2,5,1,0,3,4,H+,1,3,4,0,1000,250.0,3,E07SH,297,test
672.6350784301758,2,5,1,0,3,4,H+,1,3,4,0,1000,250.0,3,E07SH,298,test
704.6010494232178,2,5,1,0,3,4,H+,1,2,0,0,1000,250.0,2,E07SH,299,test
496.661901473999,2,5,1,0,3,4,H+,1,0,3,0,1000,250.0,0,E07SH,300,test
480.5898666381836,2,5,1,0,3,4,H+,1,3,4,0,1000,250.0,3,E07SH,301,test
464.57910537719727,2,5,1,0,3,4,H+,1,3,4,0,1000,250.0,3,E07SH,302,test
560.600996017456,2,5,1,0,3,4,H+,1,5,1,0,1000,250.0,5,E07SH,303,test
592.7069187164307,2,5,1,0,3,4,H+,1,5,1,0,1000,250.0,5,E07SH,304,test
672.6088523864746,2,5,1,0,3,4,H+,1,1,2,0,1000,250.0,1,E07SH,305,test
560.6131553649902,2,5,1,0,3,4,H+,1,5,1,0,1000,250.0,5,E07SH,306,test
512.6368999481201,2,5,1,0,3,4,H+,1,0,3,0,1000,250.0,0,E07SH,307,test
528.7890434265137,2,5,1,0,3,4,H+,1,0,3,0,1000,250.0,0,E07SH,308,test
640.6130790710449,2,5,1,0,3,4,H+,1,4,5,0,1000,250.0,4,E07SH,309,test
561.0380172729492,2,5,1,0,3,4,H+,1,2,0,0,1000,250.0,2,E07SH,310,test
656.7199230194092,2,5,1,0,3,4,H+,1,3,4,0,1000,250.0,3,E07SH,311,test
592.9021835327148,2,5,1,0,3,4,H+,1,0,3,0,1000,250.0,0,E07SH,312,test
545.1011657714844,2,5,1,0,3,4,H+,1,3,4,0,1000,250.0,3,E07SH,313,test
529.0660858154297,2,5,1,0,3,4,H+,1,5,1,0,1000,250.0,5,E07SH,314,test
561.133861541748,2,5,1,0,3,4,H+,1,3,4,0,1000,250.0,3,E07SH,315,test
1121.0768222808838,2,5,1,0,3,4,H+,1,4,5,0,1000,250.0,4,E07SH,316,test
528.8050174713135,2,5,1,0,3,4,H+,1,0,3,0,1000,250.0,0,E07SH,317,test
561.0108375549316,2,5,1,0,3,4,H+,1,0,3,0,1000,250.0,0,E07SH,318,test
513.0929946899414,2,5,1,0,3,4,H+,1,1,2,0,1000,250.0,1,E07SH,319,test
625.0400543212891,2,5,1,0,3,4,H+,1,0,3,0,1000,250.0,0,E07SH,320,test
641.0911083221436,2,5,1,0,3,4,H+,1,4,5,0,1000,250.0,4,E07SH,321,test
513.0360126495361,2,5,1,0,3,4,H+,1,5,1,0,1000,250.0,5,E07SH,322,test
641.0350799560547,2,5,1,0,3,4,H+,1,3,4,0,1000,250.0,3,E07SH,323,test
560.9948635101318,2,5,1,0,3,4,H+,1,2,0,0,1000,250.0,2,E07SH,324,test
593.0490493774414,2,5,1,0,3,4,H+,1,0,3,0,1000,250.0,0,E07SH,325,test
464.6329879760742,2,5,1,0,3,4,H+,1,0,3,0,1000,250.0,0,E07SH,326,test
593.0788516998291,2,5,1,0,3,4,H+,1,2,0,0,1000,250.0,2,E07SH,327,test
672.9512214660645,2,5,1,0,3,4,H+,1,4,5,0,1000,250.0,4,E07SH,328,test
1472.9340076446533,2,5,1,0,3,4,H+,1,0,3,0,1000,250.0,0,E07SH,329,test
625.0820159912109,2,5,1,0,3,4,H+,1,2,0,0,1000,250.0,2,E07SH,330,test
577.0609378814697,2,5,1,0,3,4,H+,1,5,1,0,1000,250.0,5,E07SH,331,test
545.0699329376221,2,5,1,0,3,4,H+,1,3,4,0,1000,250.0,3,E07SH,332,test
592.5629138946533,2,5,1,0,3,4,H+,1,2,0,0,1000,250.0,2,E07SH,333,test
561.0301494598389,2,5,1,0,3,4,H+,1,3,4,0,1000,250.0,3,E07SH,334,test
592.9520130157471,2,5,1,0,3,4,H+,1,1,2,0,1000,250.0,1,E07SH,335,test
593.026876449585,2,5,1,0,3,4,H+,1,0,3,0,1000,250.0,0,E07SH,336,test
481.08577728271484,2,5,1,0,3,4,H+,1,0,3,0,1000,250.0,0,E07SH,337,test
560.5931282043457,2,5,1,0,3,4,H+,1,5,1,0,1000,250.0,5,E07SH,338,test
624.8900890350342,2,5,1,0,3,4,H+,1,3,4,0,1000,250.0,3,E07SH,339,test
464.8478031158447,2,5,1,0,3,4,H+,1,3,4,0,1000,250.0,3,E07SH,340,test
512.8710269927979,2,5,1,0,3,4,H+,1,3,4,0,1000,250.0,3,E07SH,341,test
641.0520076751709,2,5,1,0,3,4,H+,1,1,2,0,1000,250.0,1,E07SH,342,test
545.1102256774902,2,5,1,0,3,4,H+,1,3,4,0,1000,250.0,3,E07SH,343,test
481.0512065887451,2,5,1,0,3,4,H+,1,3,4,0,1000,250.0,3,E07SH,344,test
576.9660472869873,2,5,1,0,3,4,H+,1,1,2,0,1000,250.0,1,E07SH,345,test
593.0240154266357,2,5,1,0,3,4,H+,1,5,1,0,1000,250.0,5,E07SH,346,test
560.9250068664551,2,5,1,0,3,4,H+,1,4,5,0,1000,250.0,4,E07SH,347,test
561.0768795013428,2,5,1,0,3,4,H+,1,5,1,0,1000,250.0,5,E07SH,348,test
736.6487979888916,2,5,1,0,3,4,H+,1,4,5,0,1000,250.0,4,E07SH,349,test
640.5401229858398,2,5,1,0,3,4,H+,1,1,2,0,1000,250.0,1,E07SH,350,test
448.12488555908203,2,5,1,0,3,4,H+,1,2,0,0,1000,250.0,2,E07SH,351,test
544.4729328155518,2,5,1,0,3,4,H+,1,5,1,0,1000,250.0,5,E07SH,352,test
623.380184173584,2,5,1,0,3,4,H+,1,1,2,0,1000,250.0,1,E07SH,353,test
864.4511699676514,2,5,1,0,3,4,H+,1,1,2,0,1000,250.0,1,E07SH,354,test
528.6219120025635,2,5,1,0,3,4,H+,1,4,5,0,1000,250.0,4,E07SH,355,test
928.5910129547119,2,5,1,0,3,4,H+,1,4,5,0,1000,250.0,4,E07SH,356,test
624.6240139007568,2,5,1,0,3,4,H+,1,5,1,0,1000,250.0,5,E07SH,357,test
1056.6189289093018,2,5,1,0,3,4,H+,1,4,5,0,1000,250.0,4,E07SH,358,test
656.8670272827148,2,5,1,0,3,4,H+,1,2,0,0,1000,250.0,2,E07SH,359,test
592.6690101623535,2,5,1,0,3,4,H+,1,3,4,0,1000,250.0,3,E07SH,360,test
672.5940704345703,2,5,1,0,3,4,H+,1,4,5,0,1000,250.0,4,E07SH,361,test
592.5910472869873,2,5,1,0,3,4,H+,1,2,0,0,1000,250.0,2,E07SH,362,test
528.501033782959,2,5,1,0,3,4,H+,1,5,1,0,1000,250.0,5,E07SH,363,test
544.8718070983887,2,5,1,0,3,4,H+,1,1,2,0,1000,250.0,1,E07SH,364,test
544.4910526275635,2,5,1,0,3,4,H+,1,2,0,0,1000,250.0,2,E07SH,365,test
512.5601291656494,2,5,1,0,3,4,H+,1,3,4,0,1000,250.0,3,E07SH,366,test
592.559814453125,2,5,1,0,3,4,H+,1,4,5,0,1000,250.0,4,E07SH,367,test
496.51384353637695,2,5,1,0,3,4,H+,1,2,0,0,1000,250.0,2,E07SH,368,test
640.5389308929443,2,5,1,0,3,4,H+,1,4,5,0,1000,250.0,4,E07SH,369,test
544.6701049804688,2,5,1,0,3,4,H+,1,1,2,0,1000,250.0,1,E07SH,370,test
512.8030776977539,2,5,1,0,3,4,H+,1,4,5,0,1000,250.0,4,E07SH,371,test
416.57519340515137,2,5,1,0,3,4,H+,1,4,5,0,1000,250.0,4,E07SH,372,test
416.7921543121338,2,5,1,0,3,4,H+,1,4,5,0,1000,250.0,4,E07SH,373,test
528.1679630279541,2,5,1,0,3,4,H+,1,1,2,0,1000,250.0,1,E07SH,374,test
544.5070266723633,2,5,1,0,3,4,H+,1,0,3,0,1000,250.0,0,E07SH,375,test
496.60611152648926,2,5,1,0,3,4,H+,0,4,5,0,1000,250.0,1,E07SH,376,test
624.6960163116455,2,5,1,0,3,4,H+,1,1,2,0,1000,250.0,1,E07SH,377,test
640.5279636383057,2,5,1,0,3,4,H+,1,2,0,0,1000,250.0,2,E07SH,378,test
784.5351696014404,2,5,1,0,3,4,H+,1,3,4,0,1000,250.0,3,E07SH,379,test
560.5571269989014,2,5,1,0,3,4,H+,1,2,0,0,1000,250.0,2,E07SH,380,test
640.5620574951172,2,5,1,0,3,4,H+,1,3,4,0,1000,250.0,3,E07SH,381,test
608.5350513458252,2,5,1,0,3,4,H+,1,4,5,0,1000,250.0,4,E07SH,382,test
624.4900226593018,2,5,1,0,3,4,H+,1,1,2,0,1000,250.0,1,E07SH,383,test
512.6609802246094,2,5,1,0,3,4,H+,1,1,2,0,1000,250.0,1,E07SH,384,test
448.6532211303711,2,5,1,0,3,4,H+,1,1,2,0,1000,250.0,1,E07SH,385,test
560.6229305267334,2,5,1,0,3,4,H+,1,5,1,0,1000,250.0,5,E07SH,386,test
576.6329765319824,2,5,1,0,3,4,H+,1,4,5,0,1000,250.0,4,E07SH,387,test
528.6359786987305,2,5,1,0,3,4,H+,1,3,4,0,1000,250.0,3,E07SH,388,test
816.8871402740479,2,5,1,0,3,4,H+,1,2,0,0,1000,250.0,2,E07SH,389,test
528.7230014801025,2,5,1,0,3,4,H+,1,3,4,0,1000,250.0,3,E07SH,390,test
560.5721473693848,2,5,1,0,3,4,H+,1,4,5,0,1000,250.0,4,E07SH,391,test
544.6751117706299,2,5,1,0,3,4,H+,1,3,4,0,1000,250.0,3,E07SH,392,test
496.614933013916,2,5,1,0,3,4,H+,1,1,2,0,1000,250.0,1,E07SH,393,test
575.6750106811523,2,5,1,0,3,4,H+,1,5,1,0,1000,250.0,5,E07SH,394,test
560.5800151824951,2,5,1,0,3,4,H+,1,1,2,0,1000,250.0,1,E07SH,395,test
560.676097869873,2,5,1,0,3,4,H+,1,5,1,0,1000,250.0,5,E07SH,396,test
544.4269180297852,2,5,1,0,3,4,H+,1,4,5,0,1000,250.0,4,E07SH,397,test
528.5868644714355,2,5,1,0,3,4,H+,1,4,5,0,1000,250.0,4,E07SH,398,test
592.2930240631104,2,5,1,0,3,4,H+,1,3,4,0,1000,250.0,3,E07SH,399,test
448.6391544342041,2,5,1,0,3,4,H+,0,2,0,0,1000,250.0,1,E07SH,400,test
592.6949977874756,2,5,1,0,3,4,H+,1,0,3,0,1000,250.0,0,E07SH,401,test
560.5490207672119,2,5,1,0,3,4,H+,1,3,4,0,1000,250.0,3,E07SH,402,test
560.5590343475342,2,5,1,0,3,4,H+,1,1,2,0,1000,250.0,1,E07SH,403,test
464.6449089050293,2,5,1,0,3,4,H+,1,1,2,0,1000,250.0,1,E07SH,404,test
448.6041069030762,2,5,1,0,3,4,H+,1,1,2,0,1000,250.0,1,E07SH,405,test
656.6369533538818,2,5,1,0,3,4,H+,1,4,5,0,1000,250.0,4,E07SH,406,test
576.7300128936768,2,5,1,0,3,4,H+,1,2,0,0,1000,250.0,2,E07SH,407,test
1088.7048244476318,2,5,1,0,3,4,H+,1,3,4,0,1000,250.0,3,E07SH,408,test
672.6408004760742,2,5,1,0,3,4,H+,1,0,3,0,1000,250.0,0,E07SH,409,test
544.6231365203857,2,5,1,0,3,4,H+,1,1,2,0,1000,250.0,1,E07SH,410,test
528.8598537445068,2,5,1,0,3,4,H+,1,3,4,0,1000,250.0,3,E07SH,411,test
480.5939197540283,2,5,1,0,3,4,H+,1,3,4,0,1000,250.0,3,E07SH,412,test
480.70693016052246,2,5,1,0,3,4,H+,1,3,4,0,1000,250.0,3,E07SH,413,test
560.6980323791504,2,5,1,0,3,4,H+,0,2,0,0,1000,250.0,1,E07SH,414,test
624.6359348297119,2,5,1,0,3,4,H+,1,0,3,0,1000,250.0,0,E07SH,415,test
544.6610450744629,2,5,1,0,3,4,H+,1,5,1,0,1000,250.0,5,E07SH,416,test
512.6028060913086,2,5,1,0,3,4,H+,1,5,1,0,1000,250.0,5,E07SH,417,test
784.5971584320068,2,5,1,0,3,4,H+,1,4,5,0,1000,250.0,4,E07SH,418,test
608.8261604309082,2,5,1,0,3,4,H+,1,3,4,0,1000,250.0,3,E07SH,419,test
576.6198635101318,2,5,1,0,3,4,H+,1,0,3,0,1000,250.0,0,E07SH,420,test
736.7219924926758,2,5,1,0,3,4,H+,1,0,3,0,1000,250.0,0,E07SH,421,test
544.5270538330078,2,5,1,0,3,4,H+,0,2,0,0,1000,250.0,3,E07SH,422,test
576.5190124511719,2,5,1,0,3,4,H+,1,3,4,0,1000,250.0,3,E07SH,423,test
688.6558532714844,2,5,1,0,3,4,H+,1,5,1,0,1000,250.0,5,E07SH,424,test
736.4609241485596,2,5,1,0,3,4,H+,1,2,0,0,1000,250.0,2,E07SH,425,test
496.48284912109375,2,5,1,0,3,4,H+,1,3,4,0,1000,250.0,3,E07SH,426,test
576.6558647155762,2,5,1,0,3,4,H+,1,4,5,0,1000,250.0,4,E07SH,427,test
448.6391544342041,2,5,1,0,3,4,H+,1,4,5,0,1000,250.0,4,E07SH,428,test
432.6000213623047,2,5,1,0,3,4,H+,1,4,5,0,1000,250.0,4,E07SH,429,test
560.6539249420166,2,5,1,0,3,4,H+,1,0,3,0,1000,250.0,0,E07SH,430,test
576.6668319702148,2,5,1,0,3,4,H+,1,2,0,0,1000,250.0,2,E07SH,431,test
576.8098831176758,2,5,1,0,3,4,H+,1,5,1,0,1000,250.0,5,E07SH,432,test
560.6591701507568,2,5,1,0,3,4,H+,1,0,3,0,1000,250.0,0,E07SH,433,test
496.66905403137207,2,5,1,0,3,4,H+,1,0,3,0,1000,250.0,0,E07SH,434,test
560.6751441955566,2,5,1,0,3,4,H+,1,4,5,0,1000,250.0,4,E07SH,435,test
592.6709175109863,2,5,1,0,3,4,H+,1,3,4,0,1000,250.0,3,E07SH,436,test
432.61218070983887,2,5,1,0,3,4,H+,1,3,4,0,1000,250.0,3,E07SH,437,test
512.6399993896484,2,5,1,0,3,4,H+,1,5,1,0,1000,250.0,5,E07SH,438,test
544.6488857269287,2,5,1,0,3,4,H+,1,5,1,0,1000,250.0,5,E07SH,439,test
512.6121044158936,2,5,1,0,3,4,H+,1,3,4,0,1000,250.0,3,E07SH,440,test
560.5390071868896,2,5,1,0,3,4,H+,1,5,1,0,1000,250.0,5,E07SH,441,test
576.5650272369385,2,5,1,0,3,4,H+,1,4,5,0,1000,250.0,4,E07SH,442,test
560.6222152709961,2,5,1,0,3,4,H+,1,5,1,0,1000,250.0,5,E07SH,443,test
432.64198303222656,2,5,1,0,3,4,H+,0,1,2,0,1000,250.0,3,E07SH,444,test
880.8350563049316,2,5,1,0,3,4,H+,1,0,3,0,1000,250.0,0,E07SH,445,test
560.4338645935059,2,5,1,0,3,4,H+,1,5,1,0,1000,250.0,5,E07SH,446,test
448.66418838500977,2,5,1,0,3,4,H+,1,5,1,0,1000,250.0,5,E07SH,447,test
528.6340713500977,2,5,1,0,3,4,H+,1,1,2,0,1000,250.0,1,E07SH,448,test
608.5779666900635,2,5,1,0,3,4,H+,1,0,3,0,1000,250.0,0,E07SH,449,test
560.6918334960938,2,5,1,0,3,4,H+,1,5,1,0,1000,250.0,5,E07SH,450,test
624.5560646057129,2,5,1,0,3,4,H+,1,4,5,0,1000,250.0,4,E07SH,451,test
512.6328468322754,2,5,1,0,3,4,H+,1,5,1,0,1000,250.0,5,E07SH,452,test
560.5449676513672,2,5,1,0,3,4,H+,1,2,0,0,1000,250.0,2,E07SH,453,test
464.68496322631836,2,5,1,0,3,4,H+,1,3,4,0,1000,250.0,3,E07SH,454,test
544.6150302886963,2,5,1,0,3,4,H+,1,0,3,0,1000,250.0,0,E07SH,455,test
960.7861042022705,2,5,1,0,3,4,H+,1,2,0,0,1000,250.0,2,E07SH,456,test
528.5980701446533,2,5,1,0,3,4,H+,1,3,4,0,1000,250.0,3,E07SH,457,test
528.5689830780029,2,5,1,0,3,4,H+,1,1,2,0,1000,250.0,1,E07SH,458,test
512.484073638916,2,5,1,0,3,4,H+,1,5,1,0,1000,250.0,5,E07SH,459,test
544.8498725891113,2,5,1,0,3,4,H+,1,2,0,0,1000,250.0,2,E07SH,460,test
528.4881591796875,2,5,1,0,3,4,H+,1,4,5,0,1000,250.0,4,E07SH,461,test
480.93199729919434,2,5,1,0,3,4,H+,1,4,5,0,1000,250.0,4,E07SH,462,test
608.6740493774414,2,5,1,0,3,4,H+,1,5,1,0,1000,250.0,5,E07SH,463,test
528.5677909851074,2,5,1,0,3,4,H+,1,4,5,0,1000,250.0,4,E07SH,464,test
528.5370349884033,2,5,1,0,3,4,H+,1,5,1,0,1000,250.0,5,E07SH,465,test
512.4778747558594,2,5,1,0,3,4,H+,1,1,2,0,1000,250.0,1,E07SH,466,test
528.670072555542,2,5,1,0,3,4,H+,1,4,5,0,1000,250.0,4,E07SH,467,test
544.5458889007568,2,5,1,0,3,4,H+,1,3,4,0,1000,250.0,3,E07SH,468,test
384.4780921936035,2,5,1,0,3,4,H+,1,4,5,0,1000,250.0,4,E07SH,469,test
416.4400100708008,2,5,1,0,3,4,H+,1,4,5,0,1000,250.0,4,E07SH,470,test
400.5708694458008,2,5,1,0,3,4,H+,0,0,3,0,1000,250.0,1,E07SH,471,test
560.6100559234619,2,5,1,0,3,4,H+,1,3,4,0,1000,250.0,3,E07SH,472,test
416.52703285217285,2,5,1,0,3,4,H+,1,3,4,0,1000,250.0,3,E07SH,473,test
400.76398849487305,2,5,1,0,3,4,H+,1,3,4,0,1000,250.0,3,E07SH,474,test
528.5830497741699,2,5,1,0,3,4,H+,1,5,1,0,1000,250.0,5,E07SH,475,test
512.4869346618652,2,5,1,0,3,4,H+,1,0,3,0,1000,250.0,0,E07SH,476,test
576.5061378479004,2,5,1,0,3,4,H+,1,4,5,0,1000,250.0,4,E07SH,477,test
512.4380588531494,2,5,1,0,3,4,H+,1,5,1,0,1000,250.0,5,E07SH,478,test
624.5958805084229,2,5,1,0,3,4,H+,0,2,0,0,1000,250.0,3,E07SH,479,test
624.6218681335449,2,5,1,0,3,4,H+,1,4,5,0,1000,250.0,4,E07SH,480,test
512.4778747558594,2,5,1,0,3,4,H+,1,2,0,0,1000,250.0,2,E07SH,481,test
528.5689830780029,2,5,1,0,3,4,H+,1,3,4,0,1000,250.0,3,E07SH,482,test
544.5358753204346,2,5,1,0,3,4,H+,1,1,2,0,1000,250.0,1,E07SH,483,test
1024.6069431304932,2,5,1,0,3,4,H+,1,1,2,0,1000,250.0,1,E07SH,484,test
576.4510631561279,2,5,1,0,3,4,H+,1,4,5,0,1000,250.0,4,E07SH,485,test
384.9179744720459,2,5,1,0,3,4,H+,1,4,5,0,1000,250.0,4,E07SH,486,test
624.5400905609131,2,5,1,0,3,4,H+,1,3,4,0,1000,250.0,3,E07SH,487,test
704.5071125030518,2,5,1,0,3,4,H+,1,4,5,0,1000,250.0,4,E07SH,488,test
640.5229568481445,2,5,1,0,3,4,H+,1,3,4,0,1000,250.0,3,E07SH,489,test
416.5608882904053,2,5,1,0,3,4,H+,1,3,4,0,1000,250.0,3,E07SH,490,test
640.5348777770996,2,5,1,0,3,4,H+,1,1,2,0,1000,250.0,1,E07SH,491,test
544.517993927002,2,5,1,0,3,4,H+,1,4,5,0,1000,250.0,4,E07SH,492,test
544.2681312561035,2,5,1,0,3,4,H+,1,5,1,0,1000,250.0,5,E07SH,493,test
560.492992401123,2,5,1,0,3,4,H+,1,0,3,0,1000,250.0,0,E07SH,494,test
512.7809047698975,2,5,1,0,3,4,H+,1,5,1,0,1000,250.0,5,E07SH,495,test
576.4939785003662,2,5,1,0,3,4,H+,1,2,0,0,1000,250.0,2,E07SH,496,test
624.9899864196777,2,5,1,0,3,4,H+,1,0,3,0,1000,250.0,0,E07SH,497,test
1008.599042892456,2,5,1,0,3,4,H+,0,2,0,0,1000,250.0,4,E07SH,498,test
608.6950302124023,2,5,1,0,3,4,H+,1,1,2,0,1000,250.0,1,E07SH,499,test
