RT,SRmap_0,SRmap_1,SRmap_2,SRmap_3,SRmap_4,SRmap_5,condition,correct,correct_response,curstim,ms-precue,ms-prestimblank,ntrials,response,subject,trial,type
1056.8749904632568,0,1,5,3,2,4,H+,0,1,1,0,1000,250.0,3,D05ND,0,train
2448.8799571990967,0,1,5,3,2,4,H+,0,2,4,0,1000,250.0,3,D05ND,1,train
1921.191930770874,0,1,5,3,2,4,H+,1,2,4,0,1000,250.0,2,D05ND,2,train
1441.0791397094727,0,1,5,3,2,4,H+,1,1,1,0,1000,250.0,1,D05ND,3,train
2897.101879119873,0,1,5,3,2,4,H+,1,2,4,0,1000,250.0,2,D05ND,4,train
1776.9980430603027,0,1,5,3,2,4,H+,1,4,5,0,1000,250.0,4,D05ND,5,train
2481.1458587646484,0,1,5,3,2,4,H+,1,4,5,0,1000,250.0,4,D05ND,6,train
1601.11403465271,0,1,5,3,2,4,H+,1,5,2,0,1000,250.0,5,D05ND,7,train
1089.1470909118652,0,1,5,3,2,4,H+,1,1,1,0,1000,250.0,1,D05ND,8,train
1585.0729942321777,0,1,5,3,2,4,H+,1,3,3,0,1000,250.0,3,D05ND,9,train
2209.141969680786,0,1,5,3,2,4,H+,1,0,0,0,1000,250.0,0,D05ND,10,train
1376.9831657409668,0,1,5,3,2,4,H+,0,2,4,0,1000,250.0,1,D05ND,11,train
865.1010990142822,0,1,5,3,2,4,H+,1,5,2,0,1000,250.0,5,D05ND,12,train
625.0159740447998,0,1,5,3,2,4,H+,1,5,2,0,1000,250.0,5,D05ND,13,train
1521.0552215576172,0,1,5,3,2,4,H+,1,4,5,0,1000,250.0,4,D05ND,14,train
945.1959133148193,0,1,5,3,2,4,H+,1,1,1,0,1000,250.0,1,D05ND,15,train
1249.0038871765137,0,1,5,3,2,4,H+,1,2,4,0,1000,250.0,2,D05ND,16,train
1697.1302032470703,0,1,5,3,2,4,H+,1,4,5,0,1000,250.0,4,D05ND,17,train
1969.1681861877441,0,1,5,3,2,4,H+,0,2,4,0,1000,250.0,1,D05ND,18,train
1089.1730785369873,0,1,5,3,2,4,H+,1,0,0,0,1000,250.0,0,D05ND,19,train
1472.851037979126,0,1,5,3,2,4,H+,1,4,5,0,1000,250.0,4,D05ND,20,train
1089.123010635376,0,1,5,3,2,4,H+,1,1,1,0,1000,250.0,1,D05ND,21,train
880.9850215911865,0,1,5,3,2,4,H+,1,0,0,0,1000,250.0,0,D05ND,22,train
625.0050067901611,0,1,5,3,2,4,H+,1,0,0,0,1000,250.0,0,D05ND,23,train
881.2129497528076,0,1,5,3,2,4,H+,1,5,2,0,1000,250.0,5,D05ND,24,train
593.1150913238525,0,1,5,3,2,4,H+,1,0,0,0,1000,250.0,0,D05ND,25,train
544.9550151824951,0,1,5,3,2,4,H+,1,5,2,0,1000,250.0,5,D05ND,26,train
609.0478897094727,0,1,5,3,2,4,H+,1,1,1,0,1000,250.0,1,D05ND,27,train
593.1270122528076,0,1,5,3,2,4,H+,1,5,2,0,1000,250.0,5,D05ND,28,train
577.0821571350098,0,1,5,3,2,4,H+,1,5,2,0,1000,250.0,5,D05ND,29,train
433.1650733947754,0,1,5,3,2,4,H+,1,5,2,0,1000,250.0,5,D05ND,30,train
1425.1699447631836,0,1,5,3,2,4,H+,0,3,3,0,1000,250.0,4,D05ND,31,train
801.1620044708252,0,1,5,3,2,4,H+,1,0,0,0,1000,250.0,0,D05ND,32,train
1201.1260986328125,0,1,5,3,2,4,H+,1,3,3,0,1000,250.0,3,D05ND,33,train
785.1171493530273,0,1,5,3,2,4,H+,1,0,0,0,1000,250.0,0,D05ND,34,train
1857.1679592132568,0,1,5,3,2,4,H+,0,2,4,0,1000,250.0,1,D05ND,35,train
784.9440574645996,0,1,5,3,2,4,H+,1,2,4,0,1000,250.0,2,D05ND,36,train
1649.0309238433838,0,1,5,3,2,4,H+,1,3,3,0,1000,250.0,3,D05ND,37,train
1505.06591796875,0,1,5,3,2,4,H+,1,4,5,0,1000,250.0,4,D05ND,38,train
993.0479526519775,0,1,5,3,2,4,H+,1,1,1,0,1000,250.0,1,D05ND,39,train
736.9608879089355,0,1,5,3,2,4,H+,1,0,0,0,1000,250.0,0,D05ND,40,train
1377.0198822021484,0,1,5,3,2,4,H+,1,4,5,0,1000,250.0,4,D05ND,41,train
945.080041885376,0,1,5,3,2,4,H+,1,3,3,0,1000,250.0,3,D05ND,42,train
2465.139865875244,0,1,5,3,2,4,H+,1,2,4,0,1000,250.0,2,D05ND,43,train
1377.0110607147217,0,1,5,3,2,4,H+,1,3,3,0,1000,250.0,3,D05ND,44,train
1201.2228965759277,0,1,5,3,2,4,H+,1,3,3,0,1000,250.0,3,D05ND,45,train
1217.1120643615723,0,1,5,3,2,4,H+,1,4,5,0,1000,250.0,4,D05ND,46,train
496.97208404541016,0,1,5,3,2,4,H+,1,5,2,0,1000,250.0,5,D05ND,47,train
1360.9919548034668,0,1,5,3,2,4,H+,1,3,3,0,1000,250.0,3,D05ND,48,train
705.0590515136719,0,1,5,3,2,4,H+,1,1,1,0,1000,250.0,1,D05ND,49,train
545.0589656829834,0,1,5,3,2,4,H+,1,5,2,0,1000,250.0,5,D05ND,50,train
1392.9901123046875,0,1,5,3,2,4,H+,1,4,5,0,1000,250.0,4,D05ND,51,train
1873.0599880218506,0,1,5,3,2,4,H+,1,2,4,0,1000,250.0,2,D05ND,52,train
1520.9629535675049,0,1,5,3,2,4,H+,1,3,3,0,1000,250.0,3,D05ND,53,train
721.04811668396,0,1,5,3,2,4,H+,1,0,0,0,1000,250.0,0,D05ND,54,train
1169.044017791748,0,1,5,3,2,4,H+,1,1,1,0,1000,250.0,1,D05ND,55,train
705.035924911499,0,1,5,3,2,4,H+,1,0,0,0,1000,250.0,0,D05ND,56,train
1601.118803024292,0,1,5,3,2,4,H+,1,3,3,0,1000,250.0,3,D05ND,57,train
673.1019020080566,0,1,5,3,2,4,H+,1,3,3,0,1000,250.0,3,D05ND,58,train
1217.1130180358887,0,1,5,3,2,4,H+,1,4,5,0,1000,250.0,4,D05ND,59,train
497.1470832824707,0,1,5,3,2,4,H+,1,5,2,0,1000,250.0,5,D05ND,60,train
705.049991607666,0,1,5,3,2,4,H+,1,4,5,0,1000,250.0,4,D05ND,61,train
1249.056100845337,0,1,5,3,2,4,H+,1,2,4,0,1000,250.0,2,D05ND,62,train
1185.204029083252,0,1,5,3,2,4,H+,1,3,3,0,1000,250.0,3,D05ND,63,train
641.038179397583,0,1,5,3,2,4,H+,1,2,4,0,1000,250.0,2,D05ND,64,train
1329.071044921875,0,1,5,3,2,4,H+,1,4,5,0,1000,250.0,4,D05ND,65,train
753.1049251556396,0,1,5,3,2,4,H+,1,3,3,0,1000,250.0,3,D05ND,66,train
593.1079387664795,0,1,5,3,2,4,H+,1,3,3,0,1000,250.0,3,D05ND,67,train
785.2051258087158,0,1,5,3,2,4,H+,1,1,1,0,1000,250.0,1,D05ND,68,train
657.0789813995361,0,1,5,3,2,4,H+,1,0,0,0,1000,250.0,0,D05ND,69,train
641.0250663757324,0,1,5,3,2,4,H+,1,5,2,0,1000,250.0,5,D05ND,70,train
769.0680027008057,0,1,5,3,2,4,H+,1,4,5,0,1000,250.0,4,D05ND,71,train
657.0580005645752,0,1,5,3,2,4,H+,1,3,3,0,1000,250.0,3,D05ND,72,train
609.050989151001,0,1,5,3,2,4,H+,1,1,1,0,1000,250.0,1,D05ND,73,train
928.9920330047607,0,1,5,3,2,4,H+,1,4,5,0,1000,250.0,4,D05ND,74,train
417.21606254577637,0,1,5,3,2,4,H+,0,1,1,0,1000,250.0,5,D05ND,75,train
1121.23703956604,0,1,5,3,2,4,H+,0,4,5,0,1000,250.0,3,D05ND,76,train
993.0949211120605,0,1,5,3,2,4,H+,1,2,4,0,1000,250.0,2,D05ND,77,train
465.07716178894043,0,1,5,3,2,4,H+,1,5,2,0,1000,250.0,5,D05ND,78,train
769.0980434417725,0,1,5,3,2,4,H+,1,1,1,0,1000,250.0,1,D05ND,79,train
657.1080684661865,0,1,5,3,2,4,H+,1,2,4,0,1000,250.0,2,D05ND,80,train
897.1598148345947,0,1,5,3,2,4,H+,1,0,0,0,1000,250.0,0,D05ND,81,train
593.0609703063965,0,1,5,3,2,4,H+,1,0,0,0,1000,250.0,0,D05ND,82,train
1361.0329627990723,0,1,5,3,2,4,H+,1,4,5,0,1000,250.0,4,D05ND,83,train
801.0802268981934,0,1,5,3,2,4,H+,1,0,0,0,1000,250.0,0,D05ND,84,train
641.1211490631104,0,1,5,3,2,4,H+,1,0,0,0,1000,250.0,0,D05ND,85,train
529.0749073028564,0,1,5,3,2,4,H+,1,5,2,0,1000,250.0,5,D05ND,86,train
529.0260314941406,0,1,5,3,2,4,H+,1,0,0,0,1000,250.0,0,D05ND,87,train
497.04909324645996,0,1,5,3,2,4,H+,1,5,2,0,1000,250.0,5,D05ND,88,train
1505.0649642944336,0,1,5,3,2,4,H+,1,4,5,0,1000,250.0,4,D05ND,89,train
689.1419887542725,0,1,5,3,2,4,H+,1,1,1,0,1000,250.0,1,D05ND,90,train
865.1418685913086,0,1,5,3,2,4,H+,1,2,4,0,1000,250.0,2,D05ND,91,train
1153.1331539154053,0,1,5,3,2,4,H+,1,3,3,0,1000,250.0,3,D05ND,92,train
881.2458515167236,0,1,5,3,2,4,H+,1,1,1,0,1000,250.0,1,D05ND,93,train
1377.2530555725098,0,1,5,3,2,4,H+,1,4,5,0,1000,250.0,4,D05ND,94,train
1057.1038722991943,0,1,5,3,2,4,H+,1,4,5,0,1000,250.0,4,D05ND,95,train
497.2209930419922,0,1,5,3,2,4,H+,1,5,2,0,1000,250.0,5,D05ND,96,train
1105.093002319336,0,1,5,3,2,4,H+,1,4,5,0,1000,250.0,4,D05ND,97,train
1041.1391258239746,0,1,5,3,2,4,H+,1,4,5,0,1000,250.0,4,D05ND,98,train
897.1970081329346,0,1,5,3,2,4,H+,1,1,1,0,1000,250.0,1,D05ND,99,train
481.1091423034668,0,1,5,3,2,4,H+,1,1,1,0,1000,250.0,1,D05ND,100,train
529.094934463501,0,1,5,3,2,4,H+,1,1,1,0,1000,250.0,1,D05ND,101,train
433.117151260376,0,1,5,3,2,4,H+,1,5,2,0,1000,250.0,5,D05ND,102,train
1313.2398128509521,0,1,5,3,2,4,H+,1,3,3,0,1000,250.0,3,D05ND,103,train
673.1078624725342,0,1,5,3,2,4,H+,1,5,2,0,1000,250.0,5,D05ND,104,train
849.1499423980713,0,1,5,3,2,4,H+,1,0,0,0,1000,250.0,0,D05ND,105,train
609.1151237487793,0,1,5,3,2,4,H+,1,1,1,0,1000,250.0,1,D05ND,106,train
689.0590190887451,0,1,5,3,2,4,H+,1,1,1,0,1000,250.0,1,D05ND,107,train
1184.9708557128906,0,1,5,3,2,4,H+,1,0,0,0,1000,250.0,0,D05ND,108,train
1105.0260066986084,0,1,5,3,2,4,H+,1,4,5,0,1000,250.0,4,D05ND,109,train
753.2410621643066,0,1,5,3,2,4,H+,1,1,1,0,1000,250.0,1,D05ND,110,train
672.9629039764404,0,1,5,3,2,4,H+,1,0,0,0,1000,250.0,0,D05ND,111,train
1841.0179615020752,0,1,5,3,2,4,H+,1,2,4,0,1000,250.0,2,D05ND,112,train
769.0589427947998,0,1,5,3,2,4,H+,1,1,1,0,1000,250.0,1,D05ND,113,train
881.126880645752,0,1,5,3,2,4,H+,1,4,5,0,1000,250.0,4,D05ND,114,train
641.0419940948486,0,1,5,3,2,4,H+,1,1,1,0,1000,250.0,1,D05ND,115,train
481.0202121734619,0,1,5,3,2,4,H+,1,1,1,0,1000,250.0,1,D05ND,116,train
449.1090774536133,0,1,5,3,2,4,H+,1,1,1,0,1000,250.0,1,D05ND,117,train
785.2020263671875,0,1,5,3,2,4,H+,1,0,0,0,1000,250.0,0,D05ND,118,train
705.1219940185547,0,1,5,3,2,4,H+,1,1,1,0,1000,250.0,1,D05ND,119,train
529.0689468383789,0,1,5,3,2,4,H+,1,0,0,0,1000,250.0,0,D05ND,120,train
721.2328910827637,0,1,5,3,2,4,H+,1,2,4,0,1000,250.0,2,D05ND,121,train
769.0730094909668,0,1,5,3,2,4,H+,1,2,4,0,1000,250.0,2,D05ND,122,train
401.1070728302002,0,1,5,3,2,4,H+,1,2,4,0,1000,250.0,2,D05ND,123,train
593.1251049041748,0,1,5,3,2,4,H+,1,1,1,0,1000,250.0,1,D05ND,124,train
449.1128921508789,0,1,5,3,2,4,H+,1,5,2,0,1000,250.0,5,D05ND,125,train
801.0339736938477,0,1,5,3,2,4,H+,1,0,0,0,1000,250.0,0,D05ND,126,train
976.8221378326416,0,1,5,3,2,4,H+,1,4,5,0,1000,250.0,4,D05ND,127,train
785.0279808044434,0,1,5,3,2,4,H+,1,3,3,0,1000,250.0,3,D05ND,128,train
656.9628715515137,0,1,5,3,2,4,H+,1,0,0,0,1000,250.0,0,D05ND,129,train
513.0178928375244,0,1,5,3,2,4,H+,1,5,2,0,1000,250.0,5,D05ND,130,train
881.1171054840088,0,1,5,3,2,4,H+,1,4,5,0,1000,250.0,4,D05ND,131,train
1057.2361946105957,0,1,5,3,2,4,H+,1,0,0,0,1000,250.0,0,D05ND,132,train
1057.1660995483398,0,1,5,3,2,4,H+,1,4,5,0,1000,250.0,4,D05ND,133,train
737.1418476104736,0,1,5,3,2,4,H+,1,2,4,0,1000,250.0,2,D05ND,134,train
625.1220703125,0,1,5,3,2,4,H+,1,3,3,0,1000,250.0,3,D05ND,135,train
753.1321048736572,0,1,5,3,2,4,H+,1,4,5,0,1000,250.0,4,D05ND,136,train
641.2138938903809,0,1,5,3,2,4,H+,1,4,5,0,1000,250.0,4,D05ND,137,train
688.9259815216064,0,1,5,3,2,4,H+,1,3,3,0,1000,250.0,3,D05ND,138,train
512.814998626709,0,1,5,3,2,4,H+,1,3,3,0,1000,250.0,3,D05ND,139,train
656.9769382476807,0,1,5,3,2,4,H+,1,4,5,0,1000,250.0,4,D05ND,140,train
753.180980682373,0,1,5,3,2,4,H+,1,1,1,0,1000,250.0,1,D05ND,141,train
817.1491622924805,0,1,5,3,2,4,H+,1,3,3,0,1000,250.0,3,D05ND,142,train
481.02378845214844,0,1,5,3,2,4,H+,1,3,3,0,1000,250.0,3,D05ND,143,train
641.0520076751709,0,1,5,3,2,4,H+,1,1,1,0,1000,250.0,1,D05ND,144,train
801.1469841003418,0,1,5,3,2,4,H+,1,0,0,0,1000,250.0,0,D05ND,145,train
1217.0460224151611,0,1,5,3,2,4,H+,1,3,3,0,1000,250.0,3,D05ND,146,train
753.1890869140625,0,1,5,3,2,4,H+,1,2,4,0,1000,250.0,2,D05ND,147,train
465.08002281188965,0,1,5,3,2,4,H+,1,2,4,0,1000,250.0,2,D05ND,148,train
608.9010238647461,0,1,5,3,2,4,H+,1,5,2,0,1000,250.0,5,D05ND,149,train
736.9999885559082,0,1,5,3,2,4,H+,1,3,3,0,1000,250.0,3,D05ND,150,train
625.0629425048828,0,1,5,3,2,4,H+,1,1,1,0,1000,250.0,1,D05ND,151,train
1537.041187286377,0,1,5,3,2,4,H+,1,0,0,0,1000,250.0,0,D05ND,152,train
1073.2638835906982,0,1,5,3,2,4,H+,1,4,5,0,1000,250.0,4,D05ND,153,train
417.0811176300049,0,1,5,3,2,4,H+,1,4,5,0,1000,250.0,4,D05ND,154,train
721.2009429931641,0,1,5,3,2,4,H+,1,1,1,0,1000,250.0,1,D05ND,155,train
497.02906608581543,0,1,5,3,2,4,H+,1,1,1,0,1000,250.0,1,D05ND,156,train
416.66293144226074,0,1,5,3,2,4,H+,1,1,1,0,1000,250.0,1,D05ND,157,train
704.8969268798828,0,1,5,3,2,4,H+,1,5,2,0,1000,250.0,5,D05ND,158,train
1121.1400032043457,0,1,5,3,2,4,H+,1,3,3,0,1000,250.0,3,D05ND,159,train
1297.071933746338,0,1,5,3,2,4,H+,1,4,5,0,1000,250.0,4,D05ND,160,train
769.0169811248779,0,1,5,3,2,4,H+,1,4,5,0,1000,250.0,4,D05ND,161,train
561.0129833221436,0,1,5,3,2,4,H+,1,5,2,0,1000,250.0,5,D05ND,162,train
833.078145980835,0,1,5,3,2,4,H+,1,0,0,0,1000,250.0,0,D05ND,163,train
1025.0520706176758,0,1,5,3,2,4,H+,1,3,3,0,1000,250.0,3,D05ND,164,train
961.0610008239746,0,1,5,3,2,4,H+,1,4,5,0,1000,250.0,4,D05ND,165,train
528.864860534668,0,1,5,3,2,4,H+,1,5,2,0,1000,250.0,5,D05ND,166,train
688.5859966278076,0,1,5,3,2,4,H+,1,0,0,0,1000,250.0,0,D05ND,167,train
736.8090152740479,0,1,5,3,2,4,H+,1,0,0,0,1000,250.0,0,D05ND,168,train
1088.8011455535889,0,1,5,3,2,4,H+,1,4,5,0,1000,250.0,4,D05ND,169,train
512.7191543579102,0,1,5,3,2,4,H+,1,5,2,0,1000,250.0,5,D05ND,170,train
784.7700119018555,0,1,5,3,2,4,H+,1,1,1,0,1000,250.0,1,D05ND,171,train
720.8249568939209,0,1,5,3,2,4,H+,1,2,4,0,1000,250.0,2,D05ND,172,train
976.8271446228027,0,1,5,3,2,4,H+,1,1,1,0,1000,250.0,1,D05ND,173,train
576.801061630249,0,1,5,3,2,4,H+,1,1,1,0,1000,250.0,1,D05ND,174,train
976.7868518829346,0,1,5,3,2,4,H+,1,3,3,0,1000,250.0,3,D05ND,175,train
512.8319263458252,0,1,5,3,2,4,H+,1,3,3,0,1000,250.0,3,D05ND,176,train
528.8619995117188,0,1,5,3,2,4,H+,1,5,2,0,1000,250.0,5,D05ND,177,train
832.8530788421631,0,1,5,3,2,4,H+,1,3,3,0,1000,250.0,3,D05ND,178,train
1648.7560272216797,0,1,5,3,2,4,H+,1,0,0,0,1000,250.0,0,D05ND,179,train
496.86503410339355,0,1,5,3,2,4,H+,1,5,2,0,1000,250.0,5,D05ND,180,train
784.7089767456055,0,1,5,3,2,4,H+,1,3,3,0,1000,250.0,3,D05ND,181,train
496.70886993408203,0,1,5,3,2,4,H+,1,3,3,0,1000,250.0,3,D05ND,182,train
640.8929824829102,0,1,5,3,2,4,H+,1,2,4,0,1000,250.0,2,D05ND,183,train
816.7769908905029,0,1,5,3,2,4,H+,1,0,0,0,1000,250.0,0,D05ND,184,train
672.868013381958,0,1,5,3,2,4,H+,1,2,4,0,1000,250.0,2,D05ND,185,train
496.3879585266113,0,1,5,3,2,4,H+,1,2,4,0,1000,250.0,2,D05ND,186,train
672.9230880737305,0,1,5,3,2,4,H+,1,0,0,0,1000,250.0,0,D05ND,187,train
1024.841070175171,0,1,5,3,2,4,H+,1,0,0,0,1000,250.0,0,D05ND,188,train
512.7789974212646,0,1,5,3,2,4,H+,1,2,4,0,1000,250.0,2,D05ND,189,train
848.7138748168945,0,1,5,3,2,4,H+,1,4,5,0,1000,250.0,4,D05ND,190,train
736.8719577789307,0,1,5,3,2,4,H+,1,3,3,0,1000,250.0,3,D05ND,191,train
688.7171268463135,0,1,5,3,2,4,H+,1,1,1,0,1000,250.0,1,D05ND,192,train
800.8060455322266,0,1,5,3,2,4,H+,1,3,3,0,1000,250.0,3,D05ND,193,train
496.69599533081055,0,1,5,3,2,4,H+,1,5,2,0,1000,250.0,5,D05ND,194,train
640.7651901245117,0,1,5,3,2,4,H+,1,3,3,0,1000,250.0,3,D05ND,195,train
800.8780479431152,0,1,5,3,2,4,H+,1,1,1,0,1000,250.0,1,D05ND,196,train
608.7930202484131,0,1,5,3,2,4,H+,1,2,4,0,1000,250.0,2,D05ND,197,train
640.4359340667725,0,1,5,3,2,4,H+,1,1,1,0,1000,250.0,1,D05ND,198,train
1104.8200130462646,0,1,5,3,2,4,H+,1,4,5,0,1000,250.0,4,D05ND,199,train
640.7718658447266,0,1,5,3,2,4,H+,1,2,4,0,1000,250.0,2,D05ND,200,train
816.7550563812256,0,1,5,3,2,4,H+,1,5,2,0,1000,250.0,5,D05ND,201,train
832.7929973602295,0,1,5,3,2,4,H+,1,3,3,0,1000,250.0,3,D05ND,202,train
768.8121795654297,0,1,5,3,2,4,H+,1,4,5,0,1000,250.0,4,D05ND,203,train
704.7231197357178,0,1,5,3,2,4,H+,1,4,5,0,1000,250.0,4,D05ND,204,train
480.73315620422363,0,1,5,3,2,4,H+,1,5,2,0,1000,250.0,5,D05ND,205,train
656.7130088806152,0,1,5,3,2,4,H+,1,1,1,0,1000,250.0,1,D05ND,206,train
880.7330131530762,0,1,5,3,2,4,H+,1,3,3,0,1000,250.0,3,D05ND,207,train
512.8810405731201,0,1,5,3,2,4,H+,1,5,2,0,1000,250.0,5,D05ND,208,train
512.7429962158203,0,1,5,3,2,4,H+,1,5,2,0,1000,250.0,5,D05ND,209,train
816.493034362793,0,1,5,3,2,4,H+,1,4,5,0,1000,250.0,4,D05ND,210,train
624.8400211334229,0,1,5,3,2,4,H+,1,5,2,0,1000,250.0,5,D05ND,211,train
800.9109497070312,0,1,5,3,2,4,H+,1,4,5,0,1000,250.0,4,D05ND,212,train
464.55907821655273,0,1,5,3,2,4,H+,1,5,2,0,1000,250.0,5,D05ND,213,train
464.8721218109131,0,1,5,3,2,4,H+,1,5,2,0,1000,250.0,5,D05ND,214,train
1008.9478492736816,0,1,5,3,2,4,H+,1,3,3,0,1000,250.0,3,D05ND,215,train
400.8970260620117,0,1,5,3,2,4,H+,1,3,3,0,1000,250.0,3,D05ND,216,train
688.9009475708008,0,1,5,3,2,4,H+,1,0,0,0,1000,250.0,0,D05ND,217,train
528.8400650024414,0,1,5,3,2,4,H+,1,5,2,0,1000,250.0,5,D05ND,218,train
848.923921585083,0,1,5,3,2,4,H+,1,4,5,0,1000,250.0,4,D05ND,219,train
960.7610702514648,0,1,5,3,2,4,H+,1,1,1,0,1000,250.0,1,D05ND,220,train
800.9459972381592,0,1,5,3,2,4,H+,1,2,4,0,1000,250.0,2,D05ND,221,train
848.8650321960449,0,1,5,3,2,4,H+,1,1,1,0,1000,250.0,1,D05ND,222,train
768.8260078430176,0,1,5,3,2,4,H+,1,4,5,0,1000,250.0,4,D05ND,223,train
592.8599834442139,0,1,5,3,2,4,H+,1,1,1,0,1000,250.0,1,D05ND,224,train
896.9120979309082,0,1,5,3,2,4,H+,1,3,3,0,1000,250.0,3,D05ND,225,train
784.7709655761719,0,1,5,3,2,4,H+,1,4,5,0,1000,250.0,4,D05ND,226,train
672.9030609130859,0,1,5,3,2,4,H+,0,3,3,0,1000,250.0,4,D05ND,227,train
592.8668975830078,0,1,5,3,2,4,H+,1,3,3,0,1000,250.0,3,D05ND,228,train
736.9279861450195,0,1,5,3,2,4,H+,1,0,0,0,1000,250.0,0,D05ND,229,train
736.846923828125,0,1,5,3,2,4,H+,1,4,5,0,1000,250.0,4,D05ND,230,train
704.8869132995605,0,1,5,3,2,4,H+,1,0,0,0,1000,250.0,0,D05ND,231,train
592.9369926452637,0,1,5,3,2,4,H+,1,5,2,0,1000,250.0,5,D05ND,232,train
624.9120235443115,0,1,5,3,2,4,H+,1,1,1,0,1000,250.0,1,D05ND,233,train
1024.9390602111816,0,1,5,3,2,4,H+,1,3,3,0,1000,250.0,3,D05ND,234,train
640.8779621124268,0,1,5,3,2,4,H+,1,1,1,0,1000,250.0,1,D05ND,235,train
560.9049797058105,0,1,5,3,2,4,H+,1,5,2,0,1000,250.0,5,D05ND,236,train
608.8969707489014,0,1,5,3,2,4,H+,1,5,2,0,1000,250.0,5,D05ND,237,train
944.9172019958496,0,1,5,3,2,4,H+,1,2,4,0,1000,250.0,2,D05ND,238,train
1488.840103149414,0,1,5,3,2,4,H+,1,1,1,0,1000,250.0,1,D05ND,239,train
704.7429084777832,0,1,5,3,2,4,H+,1,2,4,0,1000,250.0,2,D05ND,240,train
704.8170566558838,0,1,5,3,2,4,H+,1,0,0,0,1000,250.0,0,D05ND,241,train
1088.7548923492432,0,1,5,3,2,4,H+,1,3,3,0,1000,250.0,3,D05ND,242,train
544.8811054229736,0,1,5,3,2,4,H+,1,5,2,0,1000,250.0,5,D05ND,243,train
496.90794944763184,0,1,5,3,2,4,H+,1,5,2,0,1000,250.0,5,D05ND,244,train
720.9048271179199,0,1,5,3,2,4,H+,1,3,3,0,1000,250.0,3,D05ND,245,train
656.7831039428711,0,1,5,3,2,4,H+,1,3,3,0,1000,250.0,3,D05ND,246,train
672.8610992431641,0,1,5,3,2,4,H+,1,5,2,0,1000,250.0,5,D05ND,247,train
720.9360599517822,0,1,5,3,2,4,H+,1,3,3,0,1000,250.0,3,D05ND,248,train
752.8510093688965,0,1,5,3,2,4,H+,1,0,0,0,1000,250.0,0,D05ND,249,train
1168.8110828399658,0,1,5,3,2,4,H+,1,3,3,0,1000,250.0,3,D05ND,250,test
512.7639770507812,0,1,5,3,2,4,H+,1,5,2,0,1000,250.0,5,D05ND,251,test
1472.7120399475098,0,1,5,3,2,4,H+,1,4,5,0,1000,250.0,4,D05ND,252,test
960.8759880065918,0,1,5,3,2,4,H+,1,1,1,0,1000,250.0,1,D05ND,253,test
1008.8419914245605,0,1,5,3,2,4,H+,1,2,4,0,1000,250.0,2,D05ND,254,test
448.55403900146484,0,1,5,3,2,4,H+,1,2,4,0,1000,250.0,2,D05ND,255,test
704.8680782318115,0,1,5,3,2,4,H+,1,1,1,0,1000,250.0,1,D05ND,256,test
800.8689880371094,0,1,5,3,2,4,H+,1,0,0,0,1000,250.0,0,D05ND,257,test
1392.8380012512207,0,1,5,3,2,4,H+,1,3,3,0,1000,250.0,3,D05ND,258,test
592.8089618682861,0,1,5,3,2,4,H+,1,0,0,0,1000,250.0,0,D05ND,259,test
544.5351600646973,0,1,5,3,2,4,H+,1,2,4,0,1000,250.0,2,D05ND,260,test
912.3868942260742,0,1,5,3,2,4,H+,1,0,0,0,1000,250.0,0,D05ND,261,test
528.8991928100586,0,1,5,3,2,4,H+,1,5,2,0,1000,250.0,5,D05ND,262,test
720.9010124206543,0,1,5,3,2,4,H+,1,4,5,0,1000,250.0,4,D05ND,263,test
672.9099750518799,0,1,5,3,2,4,H+,1,4,5,0,1000,250.0,4,D05ND,264,test
512.8881931304932,0,1,5,3,2,4,H+,1,5,2,0,1000,250.0,5,D05ND,265,test
1120.9590435028076,0,1,5,3,2,4,H+,1,4,5,0,1000,250.0,4,D05ND,266,test
416.87798500061035,0,1,5,3,2,4,H+,1,4,5,0,1000,250.0,4,D05ND,267,test
592.9269790649414,0,1,5,3,2,4,H+,1,0,0,0,1000,250.0,0,D05ND,268,test
624.7458457946777,0,1,5,3,2,4,H+,1,2,4,0,1000,250.0,2,D05ND,269,test
1040.9300327301025,0,1,5,3,2,4,H+,1,4,5,0,1000,250.0,4,D05ND,270,test
368.9749240875244,0,1,5,3,2,4,H+,1,4,5,0,1000,250.0,4,D05ND,271,test
688.8799667358398,0,1,5,3,2,4,H+,1,2,4,0,1000,250.0,2,D05ND,272,test
576.941967010498,0,1,5,3,2,4,H+,1,5,2,0,1000,250.0,5,D05ND,273,test
496.9220161437988,0,1,5,3,2,4,H+,1,5,2,0,1000,250.0,5,D05ND,274,test
1296.8909740447998,0,1,5,3,2,4,H+,1,1,1,0,1000,250.0,1,D05ND,275,test
640.9239768981934,0,1,5,3,2,4,H+,1,2,4,0,1000,250.0,2,D05ND,276,test
640.8729553222656,0,1,5,3,2,4,H+,1,0,0,0,1000,250.0,0,D05ND,277,test
944.9400901794434,0,1,5,3,2,4,H+,1,4,5,0,1000,250.0,4,D05ND,278,test
656.9070816040039,0,1,5,3,2,4,H+,1,1,1,0,1000,250.0,1,D05ND,279,test
816.9338703155518,0,1,5,3,2,4,H+,1,3,3,0,1000,250.0,3,D05ND,280,test
784.9318981170654,0,1,5,3,2,4,H+,1,2,4,0,1000,250.0,2,D05ND,281,test
592.7779674530029,0,1,5,3,2,4,H+,1,5,2,0,1000,250.0,5,D05ND,282,test
528.8910865783691,0,1,5,3,2,4,H+,1,5,2,0,1000,250.0,5,D05ND,283,test
912.9629135131836,0,1,5,3,2,4,H+,1,4,5,0,1000,250.0,4,D05ND,284,test
1024.9478816986084,0,1,5,3,2,4,H+,1,1,1,0,1000,250.0,1,D05ND,285,test
640.6850814819336,0,1,5,3,2,4,H+,1,2,4,0,1000,250.0,2,D05ND,286,test
768.6891555786133,0,1,5,3,2,4,H+,1,3,3,0,1000,250.0,3,D05ND,287,test
656.6839218139648,0,1,5,3,2,4,H+,1,1,1,0,1000,250.0,1,D05ND,288,test
1168.9820289611816,0,1,5,3,2,4,H+,1,4,5,0,1000,250.0,4,D05ND,289,test
544.7220802307129,0,1,5,3,2,4,H+,0,3,3,0,1000,250.0,4,D05ND,290,test
560.9288215637207,0,1,5,3,2,4,H+,1,1,1,0,1000,250.0,1,D05ND,291,test
672.9159355163574,0,1,5,3,2,4,H+,1,0,0,0,1000,250.0,0,D05ND,292,test
1104.9649715423584,0,1,5,3,2,4,H+,1,3,3,0,1000,250.0,3,D05ND,293,test
624.9401569366455,0,1,5,3,2,4,H+,1,3,3,0,1000,250.0,3,D05ND,294,test
720.9289073944092,0,1,5,3,2,4,H+,1,0,0,0,1000,250.0,0,D05ND,295,test
1248.9290237426758,0,1,5,3,2,4,H+,1,4,5,0,1000,250.0,4,D05ND,296,test
848.9439487457275,0,1,5,3,2,4,H+,1,1,1,0,1000,250.0,1,D05ND,297,test
528.9039611816406,0,1,5,3,2,4,H+,1,2,4,0,1000,250.0,2,D05ND,298,test
496.7498779296875,0,1,5,3,2,4,H+,1,2,4,0,1000,250.0,2,D05ND,299,test
560.9099864959717,0,1,5,3,2,4,H+,1,1,1,0,1000,250.0,1,D05ND,300,test
544.9271202087402,0,1,5,3,2,4,H+,1,0,0,0,1000,250.0,0,D05ND,301,test
656.7659378051758,0,1,5,3,2,4,H+,1,2,4,0,1000,250.0,2,D05ND,302,test
944.9470043182373,0,1,5,3,2,4,H+,1,3,3,0,1000,250.0,3,D05ND,303,test
1169.0008640289307,0,1,5,3,2,4,H+,1,4,5,0,1000,250.0,4,D05ND,304,test
1056.9519996643066,0,1,5,3,2,4,H+,1,3,3,0,1000,250.0,3,D05ND,305,test
608.9010238647461,0,1,5,3,2,4,H+,1,2,4,0,1000,250.0,2,D05ND,306,test
608.928918838501,0,1,5,3,2,4,H+,1,0,0,0,1000,250.0,0,D05ND,307,test
848.9580154418945,0,1,5,3,2,4,H+,1,3,3,0,1000,250.0,3,D05ND,308,test
608.9329719543457,0,1,5,3,2,4,H+,1,5,2,0,1000,250.0,5,D05ND,309,test
656.9108963012695,0,1,5,3,2,4,H+,1,1,1,0,1000,250.0,1,D05ND,310,test
560.8601570129395,0,1,5,3,2,4,H+,1,0,0,0,1000,250.0,0,D05ND,311,test
624.9020099639893,0,1,5,3,2,4,H+,1,5,2,0,1000,250.0,5,D05ND,312,test
992.9280281066895,0,1,5,3,2,4,H+,1,3,3,0,1000,250.0,3,D05ND,313,test
624.9210834503174,0,1,5,3,2,4,H+,1,1,1,0,1000,250.0,1,D05ND,314,test
912.8880500793457,0,1,5,3,2,4,H+,1,3,3,0,1000,250.0,3,D05ND,315,test
768.85986328125,0,1,5,3,2,4,H+,1,0,0,0,1000,250.0,0,D05ND,316,test
544.8770523071289,0,1,5,3,2,4,H+,1,5,2,0,1000,250.0,5,D05ND,317,test
432.8300952911377,0,1,5,3,2,4,H+,1,5,2,0,1000,250.0,5,D05ND,318,test
1056.7610263824463,0,1,5,3,2,4,H+,1,4,5,0,1000,250.0,4,D05ND,319,test
624.891996383667,0,1,5,3,2,4,H+,1,0,0,0,1000,250.0,0,D05ND,320,test
608.9110374450684,0,1,5,3,2,4,H+,1,1,1,0,1000,250.0,1,D05ND,321,test
1120.9299564361572,0,1,5,3,2,4,H+,1,4,5,0,1000,250.0,4,D05ND,322,test
704.9078941345215,0,1,5,3,2,4,H+,1,1,1,0,1000,250.0,1,D05ND,323,test
592.8990840911865,0,1,5,3,2,4,H+,1,5,2,0,1000,250.0,5,D05ND,324,test
544.6538925170898,0,1,5,3,2,4,H+,1,1,1,0,1000,250.0,1,D05ND,325,test
1136.9130611419678,0,1,5,3,2,4,H+,1,3,3,0,1000,250.0,3,D05ND,326,test
576.9431591033936,0,1,5,3,2,4,H+,1,1,1,0,1000,250.0,1,D05ND,327,test
1488.8858795166016,0,1,5,3,2,4,H+,1,4,5,0,1000,250.0,4,D05ND,328,test
512.7589702606201,0,1,5,3,2,4,H+,1,5,2,0,1000,250.0,5,D05ND,329,test
1072.9458332061768,0,1,5,3,2,4,H+,0,1,1,0,1000,250.0,0,D05ND,330,test
400.88605880737305,0,1,5,3,2,4,H+,1,1,1,0,1000,250.0,1,D05ND,331,test
608.9482307434082,0,1,5,3,2,4,H+,1,0,0,0,1000,250.0,0,D05ND,332,test
640.7480239868164,0,1,5,3,2,4,H+,1,0,0,0,1000,250.0,0,D05ND,333,test
496.71292304992676,0,1,5,3,2,4,H+,1,0,0,0,1000,250.0,0,D05ND,334,test
640.7239437103271,0,1,5,3,2,4,H+,1,2,4,0,1000,250.0,2,D05ND,335,test
1104.7821044921875,0,1,5,3,2,4,H+,1,4,5,0,1000,250.0,4,D05ND,336,test
640.6998634338379,0,1,5,3,2,4,H+,1,2,4,0,1000,250.0,2,D05ND,337,test
976.8879413604736,0,1,5,3,2,4,H+,1,4,5,0,1000,250.0,4,D05ND,338,test
624.8350143432617,0,1,5,3,2,4,H+,1,2,4,0,1000,250.0,2,D05ND,339,test
576.7650604248047,0,1,5,3,2,4,H+,1,1,1,0,1000,250.0,1,D05ND,340,test
528.8739204406738,0,1,5,3,2,4,H+,1,5,2,0,1000,250.0,5,D05ND,341,test
896.6641426086426,0,1,5,3,2,4,H+,1,3,3,0,1000,250.0,3,D05ND,342,test
592.9040908813477,0,1,5,3,2,4,H+,1,1,1,0,1000,250.0,1,D05ND,343,test
1024.7299671173096,0,1,5,3,2,4,H+,1,4,5,0,1000,250.0,4,D05ND,344,test
608.680009841919,0,1,5,3,2,4,H+,1,1,1,0,1000,250.0,1,D05ND,345,test
624.906063079834,0,1,5,3,2,4,H+,1,2,4,0,1000,250.0,2,D05ND,346,test
560.8639717102051,0,1,5,3,2,4,H+,1,2,4,0,1000,250.0,2,D05ND,347,test
944.7219371795654,0,1,5,3,2,4,H+,1,4,5,0,1000,250.0,4,D05ND,348,test
816.9209957122803,0,1,5,3,2,4,H+,1,1,1,0,1000,250.0,1,D05ND,349,test
608.7141036987305,0,1,5,3,2,4,H+,1,5,2,0,1000,250.0,5,D05ND,350,test
624.6910095214844,0,1,5,3,2,4,H+,1,2,4,0,1000,250.0,2,D05ND,351,test
1024.9569416046143,0,1,5,3,2,4,H+,1,0,0,0,1000,250.0,0,D05ND,352,test
1152.9550552368164,0,1,5,3,2,4,H+,1,3,3,0,1000,250.0,3,D05ND,353,test
736.9370460510254,0,1,5,3,2,4,H+,1,2,4,0,1000,250.0,2,D05ND,354,test
800.9140491485596,0,1,5,3,2,4,H+,1,0,0,0,1000,250.0,0,D05ND,355,test
912.7211570739746,0,1,5,3,2,4,H+,1,3,3,0,1000,250.0,3,D05ND,356,test
560.9188079833984,0,1,5,3,2,4,H+,1,3,3,0,1000,250.0,3,D05ND,357,test
1008.9268684387207,0,1,5,3,2,4,H+,1,1,1,0,1000,250.0,1,D05ND,358,test
528.7067890167236,0,1,5,3,2,4,H+,1,1,1,0,1000,250.0,1,D05ND,359,test
1168.8928604125977,0,1,5,3,2,4,H+,1,4,5,0,1000,250.0,4,D05ND,360,test
672.9018688201904,0,1,5,3,2,4,H+,1,1,1,0,1000,250.0,1,D05ND,361,test
688.6961460113525,0,1,5,3,2,4,H+,1,2,4,0,1000,250.0,2,D05ND,362,test
912.9490852355957,0,1,5,3,2,4,H+,1,0,0,0,1000,250.0,0,D05ND,363,test
1200.8838653564453,0,1,5,3,2,4,H+,1,2,4,0,1000,250.0,2,D05ND,364,test
816.709041595459,0,1,5,3,2,4,H+,1,0,0,0,1000,250.0,0,D05ND,365,test
976.7100811004639,0,1,5,3,2,4,H+,1,4,5,0,1000,250.0,4,D05ND,366,test
576.8811702728271,0,1,5,3,2,4,H+,1,5,2,0,1000,250.0,5,D05ND,367,test
928.9340972900391,0,1,5,3,2,4,H+,1,4,5,0,1000,250.0,4,D05ND,368,test
800.8921146392822,0,1,5,3,2,4,H+,1,2,4,0,1000,250.0,2,D05ND,369,test
560.7051849365234,0,1,5,3,2,4,H+,1,5,2,0,1000,250.0,5,D05ND,370,test
640.8951282501221,0,1,5,3,2,4,H+,1,0,0,0,1000,250.0,0,D05ND,371,test
592.7000045776367,0,1,5,3,2,4,H+,1,0,0,0,1000,250.0,0,D05ND,372,test
464.87903594970703,0,1,5,3,2,4,H+,1,0,0,0,1000,250.0,0,D05ND,373,test
512.8870010375977,0,1,5,3,2,4,H+,1,5,2,0,1000,250.0,5,D05ND,374,test
1264.909029006958,0,1,5,3,2,4,H+,1,3,3,0,1000,250.0,3,D05ND,375,test
688.8689994812012,0,1,5,3,2,4,H+,1,2,4,0,1000,250.0,2,D05ND,376,test
816.9119358062744,0,1,5,3,2,4,H+,1,1,1,0,1000,250.0,1,D05ND,377,test
608.9050769805908,0,1,5,3,2,4,H+,1,5,2,0,1000,250.0,5,D05ND,378,test
448.7459659576416,0,1,5,3,2,4,H+,1,5,2,0,1000,250.0,5,D05ND,379,test
1088.7539386749268,0,1,5,3,2,4,H+,1,3,3,0,1000,250.0,3,D05ND,380,test
1552.8919696807861,0,1,5,3,2,4,H+,1,4,5,0,1000,250.0,4,D05ND,381,test
704.7388553619385,0,1,5,3,2,4,H+,1,2,4,0,1000,250.0,2,D05ND,382,test
576.8921375274658,0,1,5,3,2,4,H+,1,5,2,0,1000,250.0,5,D05ND,383,test
720.8888530731201,0,1,5,3,2,4,H+,1,0,0,0,1000,250.0,0,D05ND,384,test
560.725212097168,0,1,5,3,2,4,H+,1,5,2,0,1000,250.0,5,D05ND,385,test
432.88707733154297,0,1,5,3,2,4,H+,1,5,2,0,1000,250.0,5,D05ND,386,test
864.8350238800049,0,1,5,3,2,4,H+,1,4,5,0,1000,250.0,4,D05ND,387,test
480.52096366882324,0,1,5,3,2,4,H+,1,4,5,0,1000,250.0,4,D05ND,388,test
624.824047088623,0,1,5,3,2,4,H+,1,2,4,0,1000,250.0,2,D05ND,389,test
800.9259700775146,0,1,5,3,2,4,H+,1,4,5,0,1000,250.0,4,D05ND,390,test
736.8838787078857,0,1,5,3,2,4,H+,1,3,3,0,1000,250.0,3,D05ND,391,test
656.9399833679199,0,1,5,3,2,4,H+,1,1,1,0,1000,250.0,1,D05ND,392,test
672.9030609130859,0,1,5,3,2,4,H+,1,2,4,0,1000,250.0,2,D05ND,393,test
816.9429302215576,0,1,5,3,2,4,H+,1,4,5,0,1000,250.0,4,D05ND,394,test
544.8758602142334,0,1,5,3,2,4,H+,1,1,1,0,1000,250.0,1,D05ND,395,test
688.7779235839844,0,1,5,3,2,4,H+,1,0,0,0,1000,250.0,0,D05ND,396,test
992.8500652313232,0,1,5,3,2,4,H+,1,2,4,0,1000,250.0,2,D05ND,397,test
512.8870010375977,0,1,5,3,2,4,H+,1,2,4,0,1000,250.0,2,D05ND,398,test
448.8568305969238,0,1,5,3,2,4,H+,1,2,4,0,1000,250.0,2,D05ND,399,test
976.9589900970459,0,1,5,3,2,4,H+,1,0,0,0,1000,250.0,0,D05ND,400,test
544.8200702667236,0,1,5,3,2,4,H+,1,5,2,0,1000,250.0,5,D05ND,401,test
816.7040348052979,0,1,5,3,2,4,H+,1,3,3,0,1000,250.0,3,D05ND,402,test
816.9419765472412,0,1,5,3,2,4,H+,1,2,4,0,1000,250.0,2,D05ND,403,test
800.8918762207031,0,1,5,3,2,4,H+,1,0,0,0,1000,250.0,0,D05ND,404,test
912.8880500793457,0,1,5,3,2,4,H+,0,4,5,0,1000,250.0,0,D05ND,405,test
544.9180603027344,0,1,5,3,2,4,H+,1,5,2,0,1000,250.0,5,D05ND,406,test
816.7300224304199,0,1,5,3,2,4,H+,1,0,0,0,1000,250.0,0,D05ND,407,test
480.816125869751,0,1,5,3,2,4,H+,1,0,0,0,1000,250.0,0,D05ND,408,test
1040.9619808197021,0,1,5,3,2,4,H+,1,4,5,0,1000,250.0,4,D05ND,409,test
496.8900680541992,0,1,5,3,2,4,H+,1,4,5,0,1000,250.0,4,D05ND,410,test
512.7038955688477,0,1,5,3,2,4,H+,1,0,0,0,1000,250.0,0,D05ND,411,test
528.6960601806641,0,1,5,3,2,4,H+,1,5,2,0,1000,250.0,5,D05ND,412,test
864.9430274963379,0,1,5,3,2,4,H+,1,3,3,0,1000,250.0,3,D05ND,413,test
1088.9778137207031,0,1,5,3,2,4,H+,1,2,4,0,1000,250.0,2,D05ND,414,test
560.5628490447998,0,1,5,3,2,4,H+,1,1,1,0,1000,250.0,1,D05ND,415,test
880.7098865509033,0,1,5,3,2,4,H+,1,3,3,0,1000,250.0,3,D05ND,416,test
544.8899269104004,0,1,5,3,2,4,H+,1,3,3,0,1000,250.0,3,D05ND,417,test
1152.951955795288,0,1,5,3,2,4,H+,1,4,5,0,1000,250.0,4,D05ND,418,test
1120.8429336547852,0,1,5,3,2,4,H+,1,1,1,0,1000,250.0,1,D05ND,419,test
560.7240200042725,0,1,5,3,2,4,H+,1,1,1,0,1000,250.0,1,D05ND,420,test
496.9141483306885,0,1,5,3,2,4,H+,1,5,2,0,1000,250.0,5,D05ND,421,test
672.9109287261963,0,1,5,3,2,4,H+,1,3,3,0,1000,250.0,3,D05ND,422,test
512.9261016845703,0,1,5,3,2,4,H+,1,5,2,0,1000,250.0,5,D05ND,423,test
704.8900127410889,0,1,5,3,2,4,H+,1,0,0,0,1000,250.0,0,D05ND,424,test
1040.7438278198242,0,1,5,3,2,4,H+,1,4,5,0,1000,250.0,4,D05ND,425,test
592.8590297698975,0,1,5,3,2,4,H+,1,2,4,0,1000,250.0,2,D05ND,426,test
1120.7561492919922,0,1,5,3,2,4,H+,1,4,5,0,1000,250.0,4,D05ND,427,test
640.9018039703369,0,1,5,3,2,4,H+,1,3,3,0,1000,250.0,3,D05ND,428,test
544.9109077453613,0,1,5,3,2,4,H+,1,3,3,0,1000,250.0,3,D05ND,429,test
656.627893447876,0,1,5,3,2,4,H+,1,1,1,0,1000,250.0,1,D05ND,430,test
416.9149398803711,0,1,5,3,2,4,H+,1,1,1,0,1000,250.0,1,D05ND,431,test
848.8569259643555,0,1,5,3,2,4,H+,1,3,3,0,1000,250.0,3,D05ND,432,test
592.8208827972412,0,1,5,3,2,4,H+,1,5,2,0,1000,250.0,5,D05ND,433,test
832.9548835754395,0,1,5,3,2,4,H+,1,0,0,0,1000,250.0,0,D05ND,434,test
528.8949012756348,0,1,5,3,2,4,H+,1,5,2,0,1000,250.0,5,D05ND,435,test
432.9090118408203,0,1,5,3,2,4,H+,1,5,2,0,1000,250.0,5,D05ND,436,test
736.8960380554199,0,1,5,3,2,4,H+,1,0,0,0,1000,250.0,0,D05ND,437,test
480.90505599975586,0,1,5,3,2,4,H+,1,5,2,0,1000,250.0,5,D05ND,438,test
704.8051357269287,0,1,5,3,2,4,H+,1,3,3,0,1000,250.0,3,D05ND,439,test
800.879955291748,0,1,5,3,2,4,H+,1,0,0,0,1000,250.0,0,D05ND,440,test
976.9251346588135,0,1,5,3,2,4,H+,1,2,4,0,1000,250.0,2,D05ND,441,test
592.7989482879639,0,1,5,3,2,4,H+,1,1,1,0,1000,250.0,1,D05ND,442,test
896.8770503997803,0,1,5,3,2,4,H+,1,0,0,0,1000,250.0,0,D05ND,443,test
880.8860778808594,0,1,5,3,2,4,H+,1,3,3,0,1000,250.0,3,D05ND,444,test
656.9559574127197,0,1,5,3,2,4,H+,1,2,4,0,1000,250.0,2,D05ND,445,test
480.9460639953613,0,1,5,3,2,4,H+,1,2,4,0,1000,250.0,2,D05ND,446,test
416.88990592956543,0,1,5,3,2,4,H+,1,2,4,0,1000,250.0,2,D05ND,447,test
816.9119358062744,0,1,5,3,2,4,H+,1,0,0,0,1000,250.0,0,D05ND,448,test
560.7490539550781,0,1,5,3,2,4,H+,1,5,2,0,1000,250.0,5,D05ND,449,test
464.89906311035156,0,1,5,3,2,4,H+,1,5,2,0,1000,250.0,5,D05ND,450,test
1632.9009532928467,0,1,5,3,2,4,H+,1,0,0,0,1000,250.0,0,D05ND,451,test
672.9438304901123,0,1,5,3,2,4,H+,1,1,1,0,1000,250.0,1,D05ND,452,test
384.9141597747803,0,1,5,3,2,4,H+,1,1,1,0,1000,250.0,1,D05ND,453,test
816.9307708740234,0,1,5,3,2,4,H+,1,0,0,0,1000,250.0,0,D05ND,454,test
432.8761100769043,0,1,5,3,2,4,H+,1,0,0,0,1000,250.0,0,D05ND,455,test
512.9289627075195,0,1,5,3,2,4,H+,1,1,1,0,1000,250.0,1,D05ND,456,test
912.9660129547119,0,1,5,3,2,4,H+,1,3,3,0,1000,250.0,3,D05ND,457,test
432.8269958496094,0,1,5,3,2,4,H+,1,3,3,0,1000,250.0,3,D05ND,458,test
1008.9540481567383,0,1,5,3,2,4,H+,1,4,5,0,1000,250.0,4,D05ND,459,test
384.85002517700195,0,1,5,3,2,4,H+,1,4,5,0,1000,250.0,4,D05ND,460,test
912.9180908203125,0,1,5,3,2,4,H+,1,0,0,0,1000,250.0,0,D05ND,461,test
1056.90598487854,0,1,5,3,2,4,H+,1,4,5,0,1000,250.0,4,D05ND,462,test
608.8829040527344,0,1,5,3,2,4,H+,1,1,1,0,1000,250.0,1,D05ND,463,test
528.9018154144287,0,1,5,3,2,4,H+,1,5,2,0,1000,250.0,5,D05ND,464,test
640.902042388916,0,1,5,3,2,4,H+,1,3,3,0,1000,250.0,3,D05ND,465,test
496.92821502685547,0,1,5,3,2,4,H+,1,3,3,0,1000,250.0,3,D05ND,466,test
480.87596893310547,0,1,5,3,2,4,H+,1,5,2,0,1000,250.0,5,D05ND,467,test
368.91698837280273,0,1,5,3,2,4,H+,1,5,2,0,1000,250.0,5,D05ND,468,test
576.9059658050537,0,1,5,3,2,4,H+,1,1,1,0,1000,250.0,1,D05ND,469,test
576.9081115722656,0,1,5,3,2,4,H+,1,2,4,0,1000,250.0,2,D05ND,470,test
544.9120998382568,0,1,5,3,2,4,H+,1,1,1,0,1000,250.0,1,D05ND,471,test
704.9441337585449,0,1,5,3,2,4,H+,1,3,3,0,1000,250.0,3,D05ND,472,test
720.9229469299316,0,1,5,3,2,4,H+,1,4,5,0,1000,250.0,4,D05ND,473,test
672.9049682617188,0,1,5,3,2,4,H+,1,0,0,0,1000,250.0,0,D05ND,474,test
1056.62202835083,0,1,5,3,2,4,H+,1,4,5,0,1000,250.0,4,D05ND,475,test
496.9019889831543,0,1,5,3,2,4,H+,1,5,2,0,1000,250.0,5,D05ND,476,test
704.9999237060547,0,1,5,3,2,4,H+,1,2,4,0,1000,250.0,2,D05ND,477,test
752.8889179229736,0,1,5,3,2,4,H+,1,1,1,0,1000,250.0,1,D05ND,478,test
832.8068256378174,0,1,5,3,2,4,H+,1,3,3,0,1000,250.0,3,D05ND,479,test
464.8880958557129,0,1,5,3,2,4,H+,1,3,3,0,1000,250.0,3,D05ND,480,test
848.9120006561279,0,1,5,3,2,4,H+,1,0,0,0,1000,250.0,0,D05ND,481,test
928.8680553436279,0,1,5,3,2,4,H+,1,4,5,0,1000,250.0,4,D05ND,482,test
480.88812828063965,0,1,5,3,2,4,H+,1,4,5,0,1000,250.0,4,D05ND,483,test
480.76391220092773,0,1,5,3,2,4,H+,1,4,5,0,1000,250.0,4,D05ND,484,test
528.9402008056641,0,1,5,3,2,4,H+,1,5,2,0,1000,250.0,5,D05ND,485,test
688.9200210571289,0,1,5,3,2,4,H+,1,4,5,0,1000,250.0,4,D05ND,486,test
768.9511775970459,0,1,5,3,2,4,H+,1,0,0,0,1000,250.0,0,D05ND,487,test
720.937967300415,0,1,5,3,2,4,H+,1,1,1,0,1000,250.0,1,D05ND,488,test
688.8859272003174,0,1,5,3,2,4,H+,1,3,3,0,1000,250.0,3,D05ND,489,test
880.9740543365479,0,1,5,3,2,4,H+,1,4,5,0,1000,250.0,4,D05ND,490,test
672.9640960693359,0,1,5,3,2,4,H+,1,1,1,0,1000,250.0,1,D05ND,491,test
720.8919525146484,0,1,5,3,2,4,H+,1,0,0,0,1000,250.0,0,D05ND,492,test
544.5640087127686,0,1,5,3,2,4,H+,1,0,0,0,1000,250.0,0,D05ND,493,test
528.9769172668457,0,1,5,3,2,4,H+,1,1,1,0,1000,250.0,1,D05ND,494,test
528.9340019226074,0,1,5,3,2,4,H+,1,5,2,0,1000,250.0,5,D05ND,495,test
464.8609161376953,0,1,5,3,2,4,H+,1,5,2,0,1000,250.0,5,D05ND,496,test
656.9168567657471,0,1,5,3,2,4,H+,1,3,3,0,1000,250.0,3,D05ND,497,test
608.9279651641846,0,1,5,3,2,4,H+,1,5,2,0,1000,250.0,5,D05ND,498,test
560.9340667724609,0,1,5,3,2,4,H+,1,1,1,0,1000,250.0,1,D05ND,499,test
