RT,SRmap_0,SRmap_1,SRmap_2,SRmap_3,SRmap_4,SRmap_5,condition,correct,correct_response,curstim,ms-precue,ms-prestimblank,ntrials,response,subject,trial,type
1231.7790985107422,3,4,1,2,5,0,M,1,1,2,0,1000,250.0,1,e09ch,0,train
816.8258666992188,3,4,1,2,5,0,M,1,3,0,0,1000,250.0,3,e09ch,1,train
592.5459861755371,3,4,1,2,5,0,M,1,0,5,0,1000,250.0,0,e09ch,2,train
960.5422019958496,3,4,1,2,5,0,M,1,4,1,0,1000,250.0,4,e09ch,3,train
528.8341045379639,3,4,1,2,5,0,M,1,4,1,0,1000,250.0,4,e09ch,4,train
576.5039920806885,3,4,1,2,5,0,M,1,5,4,0,1000,250.0,5,e09ch,5,train
560.5311393737793,3,4,1,2,5,0,M,1,2,3,0,1000,250.0,2,e09ch,6,train
528.1789302825928,3,4,1,2,5,0,M,1,4,1,0,1000,250.0,4,e09ch,7,train
400.59590339660645,3,4,1,2,5,0,M,1,5,4,0,1000,250.0,5,e09ch,8,train
528.5739898681641,3,4,1,2,5,0,M,1,4,1,0,1000,250.0,4,e09ch,9,train
560.5669021606445,3,4,1,2,5,0,M,1,1,2,0,1000,250.0,1,e09ch,10,train
512.5889778137207,3,4,1,2,5,0,M,1,2,3,0,1000,250.0,2,e09ch,11,train
417.0219898223877,3,4,1,2,5,0,M,1,0,5,0,1000,250.0,0,e09ch,12,train
592.6339626312256,3,4,1,2,5,0,M,1,4,1,0,1000,250.0,4,e09ch,13,train
448.5909938812256,3,4,1,2,5,0,M,1,5,4,0,1000,250.0,5,e09ch,14,train
432.64293670654297,3,4,1,2,5,0,M,1,4,1,0,1000,250.0,4,e09ch,15,train
416.3691997528076,3,4,1,2,5,0,M,0,2,3,0,1000,250.0,3,e09ch,16,train
832.5679302215576,3,4,1,2,5,0,M,1,1,2,0,1000,250.0,1,e09ch,17,train
496.5860843658447,3,4,1,2,5,0,M,1,1,2,0,1000,250.0,1,e09ch,18,train
432.19995498657227,3,4,1,2,5,0,M,1,1,2,0,1000,250.0,1,e09ch,19,train
624.5551109313965,3,4,1,2,5,0,M,1,5,4,0,1000,250.0,5,e09ch,20,train
768.63694190979,3,4,1,2,5,0,M,1,3,0,0,1000,250.0,3,e09ch,21,train
512.5670433044434,3,4,1,2,5,0,M,1,1,2,0,1000,250.0,1,e09ch,22,train
416.68701171875,3,4,1,2,5,0,M,1,1,2,0,1000,250.0,1,e09ch,23,train
480.5469512939453,3,4,1,2,5,0,M,1,4,1,0,1000,250.0,4,e09ch,24,train
496.5949058532715,3,4,1,2,5,0,M,1,1,2,0,1000,250.0,1,e09ch,25,train
496.5088367462158,3,4,1,2,5,0,M,1,0,5,0,1000,250.0,0,e09ch,26,train
656.6369533538818,3,4,1,2,5,0,M,1,3,0,0,1000,250.0,3,e09ch,27,train
416.5370464324951,3,4,1,2,5,0,M,1,3,0,0,1000,250.0,3,e09ch,28,train
656.620979309082,3,4,1,2,5,0,M,1,3,0,0,1000,250.0,3,e09ch,29,train
528.5570621490479,3,4,1,2,5,0,M,1,1,2,0,1000,250.0,1,e09ch,30,train
512.6349925994873,3,4,1,2,5,0,M,1,2,3,0,1000,250.0,2,e09ch,31,train
656.6610336303711,3,4,1,2,5,0,M,1,5,4,0,1000,250.0,5,e09ch,32,train
624.6590614318848,3,4,1,2,5,0,M,1,2,3,0,1000,250.0,2,e09ch,33,train
496.3669776916504,3,4,1,2,5,0,M,0,5,4,0,1000,250.0,2,e09ch,34,train
608.6440086364746,3,4,1,2,5,0,M,1,0,5,0,1000,250.0,0,e09ch,35,train
880.5530071258545,3,4,1,2,5,0,M,1,3,0,0,1000,250.0,3,e09ch,36,train
512.6228332519531,3,4,1,2,5,0,M,1,5,4,0,1000,250.0,5,e09ch,37,train
528.731107711792,3,4,1,2,5,0,M,1,0,5,0,1000,250.0,0,e09ch,38,train
464.62011337280273,3,4,1,2,5,0,M,1,0,5,0,1000,250.0,0,e09ch,39,train
576.5590667724609,3,4,1,2,5,0,M,0,2,3,0,1000,250.0,3,e09ch,40,train
544.8670387268066,3,4,1,2,5,0,M,1,0,5,0,1000,250.0,0,e09ch,41,train
624.6359348297119,3,4,1,2,5,0,M,1,2,3,0,1000,250.0,2,e09ch,42,train
512.6240253448486,3,4,1,2,5,0,M,1,1,2,0,1000,250.0,1,e09ch,43,train
544.5828437805176,3,4,1,2,5,0,M,1,3,0,0,1000,250.0,3,e09ch,44,train
592.6859378814697,3,4,1,2,5,0,M,1,0,5,0,1000,250.0,0,e09ch,45,train
464.5869731903076,3,4,1,2,5,0,M,1,2,3,0,1000,250.0,2,e09ch,46,train
512.5930309295654,3,4,1,2,5,0,M,1,0,5,0,1000,250.0,0,e09ch,47,train
592.5309658050537,3,4,1,2,5,0,M,1,5,4,0,1000,250.0,5,e09ch,48,train
496.6239929199219,3,4,1,2,5,0,M,1,0,5,0,1000,250.0,0,e09ch,49,train
464.5559787750244,3,4,1,2,5,0,M,1,2,3,0,1000,250.0,2,e09ch,50,train
448.6689567565918,3,4,1,2,5,0,M,0,3,0,0,1000,250.0,2,e09ch,51,train
608.551025390625,3,4,1,2,5,0,M,1,3,0,0,1000,250.0,3,e09ch,52,train
512.4750137329102,3,4,1,2,5,0,M,1,0,5,0,1000,250.0,0,e09ch,53,train
544.5730686187744,3,4,1,2,5,0,M,1,5,4,0,1000,250.0,5,e09ch,54,train
528.8369655609131,3,4,1,2,5,0,M,1,5,4,0,1000,250.0,5,e09ch,55,train
624.614953994751,3,4,1,2,5,0,M,1,1,2,0,1000,250.0,1,e09ch,56,train
1056.8830966949463,3,4,1,2,5,0,M,1,3,0,0,1000,250.0,3,e09ch,57,train
640.5909061431885,3,4,1,2,5,0,M,1,2,3,0,1000,250.0,2,e09ch,58,train
704.9360275268555,3,4,1,2,5,0,M,1,1,2,0,1000,250.0,1,e09ch,59,train
576.4110088348389,3,4,1,2,5,0,M,1,2,3,0,1000,250.0,2,e09ch,60,train
704.6990394592285,3,4,1,2,5,0,M,1,5,4,0,1000,250.0,5,e09ch,61,train
640.7220363616943,3,4,1,2,5,0,M,1,4,1,0,1000,250.0,4,e09ch,62,train
512.6538276672363,3,4,1,2,5,0,M,1,5,4,0,1000,250.0,5,e09ch,63,train
544.7080135345459,3,4,1,2,5,0,M,1,3,0,0,1000,250.0,3,e09ch,64,train
512.6590728759766,3,4,1,2,5,0,M,1,5,4,0,1000,250.0,5,e09ch,65,train
560.5041980743408,3,4,1,2,5,0,M,0,2,3,0,1000,250.0,1,e09ch,66,train
576.8940448760986,3,4,1,2,5,0,M,1,2,3,0,1000,250.0,2,e09ch,67,train
544.8851585388184,3,4,1,2,5,0,M,1,1,2,0,1000,250.0,1,e09ch,68,train
528.6440849304199,3,4,1,2,5,0,M,1,2,3,0,1000,250.0,2,e09ch,69,train
512.9339694976807,3,4,1,2,5,0,M,1,3,0,0,1000,250.0,3,e09ch,70,train
672.583818435669,3,4,1,2,5,0,M,1,2,3,0,1000,250.0,2,e09ch,71,train
528.6300182342529,3,4,1,2,5,0,M,1,0,5,0,1000,250.0,0,e09ch,72,train
688.5769367218018,3,4,1,2,5,0,M,1,5,4,0,1000,250.0,5,e09ch,73,train
608.6211204528809,3,4,1,2,5,0,M,1,4,1,0,1000,250.0,4,e09ch,74,train
576.5950679779053,3,4,1,2,5,0,M,1,2,3,0,1000,250.0,2,e09ch,75,train
753.0560493469238,3,4,1,2,5,0,M,1,5,4,0,1000,250.0,5,e09ch,76,train
529.0548801422119,3,4,1,2,5,0,M,1,5,4,0,1000,250.0,5,e09ch,77,train
673.0549335479736,3,4,1,2,5,0,M,1,1,2,0,1000,250.0,1,e09ch,78,train
448.95315170288086,3,4,1,2,5,0,M,1,2,3,0,1000,250.0,2,e09ch,79,train
561.0370635986328,3,4,1,2,5,0,M,1,0,5,0,1000,250.0,0,e09ch,80,train
497.14088439941406,3,4,1,2,5,0,M,1,5,4,0,1000,250.0,5,e09ch,81,train
544.7831153869629,3,4,1,2,5,0,M,1,1,2,0,1000,250.0,1,e09ch,82,train
577.0390033721924,3,4,1,2,5,0,M,1,1,2,0,1000,250.0,1,e09ch,83,train
481.01091384887695,3,4,1,2,5,0,M,1,0,5,0,1000,250.0,0,e09ch,84,train
465.04902839660645,3,4,1,2,5,0,M,1,0,5,0,1000,250.0,0,e09ch,85,train
433.0568313598633,3,4,1,2,5,0,M,1,0,5,0,1000,250.0,0,e09ch,86,train
417.072057723999,3,4,1,2,5,0,M,1,0,5,0,1000,250.0,0,e09ch,87,train
672.7609634399414,3,4,1,2,5,0,M,1,4,1,0,1000,250.0,4,e09ch,88,train
817.0299530029297,3,4,1,2,5,0,M,1,3,0,0,1000,250.0,3,e09ch,89,train
449.07617568969727,3,4,1,2,5,0,M,1,3,0,0,1000,250.0,3,e09ch,90,train
464.28394317626953,3,4,1,2,5,0,M,1,4,1,0,1000,250.0,4,e09ch,91,train
417.07706451416016,3,4,1,2,5,0,M,1,5,4,0,1000,250.0,5,e09ch,92,train
625.0770092010498,3,4,1,2,5,0,M,1,2,3,0,1000,250.0,2,e09ch,93,train
353.06286811828613,3,4,1,2,5,0,M,1,1,2,0,1000,250.0,1,e09ch,94,train
592.756986618042,3,4,1,2,5,0,M,1,2,3,0,1000,250.0,2,e09ch,95,train
512.9978656768799,3,4,1,2,5,0,M,1,5,4,0,1000,250.0,5,e09ch,96,train
529.055118560791,3,4,1,2,5,0,M,1,3,0,0,1000,250.0,3,e09ch,97,train
577.0189762115479,3,4,1,2,5,0,M,1,2,3,0,1000,250.0,2,e09ch,98,train
401.04007720947266,3,4,1,2,5,0,M,1,2,3,0,1000,250.0,2,e09ch,99,train
401.090145111084,3,4,1,2,5,0,M,1,1,2,0,1000,250.0,1,e09ch,100,train
497.04790115356445,3,4,1,2,5,0,M,1,2,3,0,1000,250.0,2,e09ch,101,train
544.8729991912842,3,4,1,2,5,0,M,1,4,1,0,1000,250.0,4,e09ch,102,train
656.9948196411133,3,4,1,2,5,0,M,1,0,5,0,1000,250.0,0,e09ch,103,train
689.1109943389893,3,4,1,2,5,0,M,1,3,0,0,1000,250.0,3,e09ch,104,train
497.0369338989258,3,4,1,2,5,0,M,1,3,0,0,1000,250.0,3,e09ch,105,train
465.0609493255615,3,4,1,2,5,0,M,0,2,3,0,1000,250.0,1,e09ch,106,train
752.9909610748291,3,4,1,2,5,0,M,1,1,2,0,1000,250.0,1,e09ch,107,train
544.9550151824951,3,4,1,2,5,0,M,1,2,3,0,1000,250.0,2,e09ch,108,train
784.6798896789551,3,4,1,2,5,0,M,1,5,4,0,1000,250.0,5,e09ch,109,train
561.0740184783936,3,4,1,2,5,0,M,1,5,4,0,1000,250.0,5,e09ch,110,train
577.0390033721924,3,4,1,2,5,0,M,1,4,1,0,1000,250.0,4,e09ch,111,train
608.9398860931396,3,4,1,2,5,0,M,1,4,1,0,1000,250.0,4,e09ch,112,train
449.1920471191406,3,4,1,2,5,0,M,1,5,4,0,1000,250.0,5,e09ch,113,train
529.0560722351074,3,4,1,2,5,0,M,1,3,0,0,1000,250.0,3,e09ch,114,train
561.0721111297607,3,4,1,2,5,0,M,1,0,5,0,1000,250.0,0,e09ch,115,train
641.077995300293,3,4,1,2,5,0,M,1,3,0,0,1000,250.0,3,e09ch,116,train
448.976993560791,3,4,1,2,5,0,M,1,0,5,0,1000,250.0,0,e09ch,117,train
592.7619934082031,3,4,1,2,5,0,M,1,2,3,0,1000,250.0,2,e09ch,118,train
577.003002166748,3,4,1,2,5,0,M,1,0,5,0,1000,250.0,0,e09ch,119,train
545.0470447540283,3,4,1,2,5,0,M,1,2,3,0,1000,250.0,2,e09ch,120,train
480.96299171447754,3,4,1,2,5,0,M,1,0,5,0,1000,250.0,0,e09ch,121,train
497.0710277557373,3,4,1,2,5,0,M,1,5,4,0,1000,250.0,5,e09ch,122,train
561.1250400543213,3,4,1,2,5,0,M,1,3,0,0,1000,250.0,3,e09ch,123,train
529.0830135345459,3,4,1,2,5,0,M,1,1,2,0,1000,250.0,1,e09ch,124,train
433.0790042877197,3,4,1,2,5,0,M,1,1,2,0,1000,250.0,1,e09ch,125,train
529.0398597717285,3,4,1,2,5,0,M,0,0,5,0,1000,250.0,2,e09ch,126,train
654.4449329376221,3,4,1,2,5,0,M,1,2,3,0,1000,250.0,2,e09ch,127,train
464.522123336792,3,4,1,2,5,0,M,1,2,3,0,1000,250.0,2,e09ch,128,train
544.5761680603027,3,4,1,2,5,0,M,1,1,2,0,1000,250.0,1,e09ch,129,train
544.6140766143799,3,4,1,2,5,0,M,1,0,5,0,1000,250.0,0,e09ch,130,train
720.5860614776611,3,4,1,2,5,0,M,1,3,0,0,1000,250.0,3,e09ch,131,train
576.5969753265381,3,4,1,2,5,0,M,1,1,2,0,1000,250.0,1,e09ch,132,train
480.61609268188477,3,4,1,2,5,0,M,1,2,3,0,1000,250.0,2,e09ch,133,train
592.566967010498,3,4,1,2,5,0,M,0,4,1,0,1000,250.0,5,e09ch,134,train
672.5800037384033,3,4,1,2,5,0,M,1,3,0,0,1000,250.0,3,e09ch,135,train
576.6830444335938,3,4,1,2,5,0,M,1,2,3,0,1000,250.0,2,e09ch,136,train
544.605016708374,3,4,1,2,5,0,M,1,2,3,0,1000,250.0,2,e09ch,137,train
448.55189323425293,3,4,1,2,5,0,M,1,2,3,0,1000,250.0,2,e09ch,138,train
576.6489505767822,3,4,1,2,5,0,M,1,0,5,0,1000,250.0,0,e09ch,139,train
656.65602684021,3,4,1,2,5,0,M,1,2,3,0,1000,250.0,2,e09ch,140,train
512.6008987426758,3,4,1,2,5,0,M,1,1,2,0,1000,250.0,1,e09ch,141,train
608.5870265960693,3,4,1,2,5,0,M,1,3,0,0,1000,250.0,3,e09ch,142,train
928.7190437316895,3,4,1,2,5,0,M,1,4,1,0,1000,250.0,4,e09ch,143,train
721.0829257965088,3,4,1,2,5,0,M,1,2,3,0,1000,250.0,2,e09ch,144,train
656.702995300293,3,4,1,2,5,0,M,1,3,0,0,1000,250.0,3,e09ch,145,train
560.9490871429443,3,4,1,2,5,0,M,1,0,5,0,1000,250.0,0,e09ch,146,train
464.99085426330566,3,4,1,2,5,0,M,1,1,2,0,1000,250.0,1,e09ch,147,train
657.0448875427246,3,4,1,2,5,0,M,1,4,1,0,1000,250.0,4,e09ch,148,train
704.9288749694824,3,4,1,2,5,0,M,1,4,1,0,1000,250.0,4,e09ch,149,train
576.9190788269043,3,4,1,2,5,0,M,1,0,5,0,1000,250.0,0,e09ch,150,train
513.0829811096191,3,4,1,2,5,0,M,1,4,1,0,1000,250.0,4,e09ch,151,train
529.0100574493408,3,4,1,2,5,0,M,1,1,2,0,1000,250.0,1,e09ch,152,train
497.03407287597656,3,4,1,2,5,0,M,1,0,5,0,1000,250.0,0,e09ch,153,train
496.87695503234863,3,4,1,2,5,0,M,1,2,3,0,1000,250.0,2,e09ch,154,train
465.06595611572266,3,4,1,2,5,0,M,1,3,0,0,1000,250.0,3,e09ch,155,train
481.0371398925781,3,4,1,2,5,0,M,1,3,0,0,1000,250.0,3,e09ch,156,train
529.0980339050293,3,4,1,2,5,0,M,1,0,5,0,1000,250.0,0,e09ch,157,train
624.9101161956787,3,4,1,2,5,0,M,1,4,1,0,1000,250.0,4,e09ch,158,train
657.3309898376465,3,4,1,2,5,0,M,1,5,4,0,1000,250.0,5,e09ch,159,train
593.0020809173584,3,4,1,2,5,0,M,1,2,3,0,1000,250.0,2,e09ch,160,train
465.0709629058838,3,4,1,2,5,0,M,0,4,1,0,1000,250.0,2,e09ch,161,train
576.9979953765869,3,4,1,2,5,0,M,1,1,2,0,1000,250.0,1,e09ch,162,train
641.0748958587646,3,4,1,2,5,0,M,1,4,1,0,1000,250.0,4,e09ch,163,train
625.0441074371338,3,4,1,2,5,0,M,1,5,4,0,1000,250.0,5,e09ch,164,train
512.8579139709473,3,4,1,2,5,0,M,1,1,2,0,1000,250.0,1,e09ch,165,train
561.1310005187988,3,4,1,2,5,0,M,1,4,1,0,1000,250.0,4,e09ch,166,train
768.639087677002,3,4,1,2,5,0,M,1,3,0,0,1000,250.0,3,e09ch,167,train
560.920000076294,3,4,1,2,5,0,M,0,0,5,0,1000,250.0,1,e09ch,168,train
544.5449352264404,3,4,1,2,5,0,M,1,0,5,0,1000,250.0,0,e09ch,169,train
544.6009635925293,3,4,1,2,5,0,M,1,1,2,0,1000,250.0,1,e09ch,170,train
544.6498394012451,3,4,1,2,5,0,M,1,4,1,0,1000,250.0,4,e09ch,171,train
560.5740547180176,3,4,1,2,5,0,M,1,3,0,0,1000,250.0,3,e09ch,172,train
560.6470108032227,3,4,1,2,5,0,M,1,4,1,0,1000,250.0,4,e09ch,173,train
704.6020030975342,3,4,1,2,5,0,M,1,2,3,0,1000,250.0,2,e09ch,174,train
576.5590667724609,3,4,1,2,5,0,M,1,4,1,0,1000,250.0,4,e09ch,175,train
592.5891399383545,3,4,1,2,5,0,M,1,3,0,0,1000,250.0,3,e09ch,176,train
544.5759296417236,3,4,1,2,5,0,M,1,3,0,0,1000,250.0,3,e09ch,177,train
496.59204483032227,3,4,1,2,5,0,M,1,1,2,0,1000,250.0,1,e09ch,178,train
561.0218048095703,3,4,1,2,5,0,M,1,0,5,0,1000,250.0,0,e09ch,179,train
577.0659446716309,3,4,1,2,5,0,M,1,2,3,0,1000,250.0,2,e09ch,180,train
593.0778980255127,3,4,1,2,5,0,M,1,3,0,0,1000,250.0,3,e09ch,181,train
496.6590404510498,3,4,1,2,5,0,M,1,0,5,0,1000,250.0,0,e09ch,182,train
625.0388622283936,3,4,1,2,5,0,M,1,4,1,0,1000,250.0,4,e09ch,183,train
480.53479194641113,3,4,1,2,5,0,M,1,1,2,0,1000,250.0,1,e09ch,184,train
545.0091361999512,3,4,1,2,5,0,M,0,5,4,0,1000,250.0,3,e09ch,185,train
496.7389106750488,3,4,1,2,5,0,M,1,5,4,0,1000,250.0,5,e09ch,186,train
641.0281658172607,3,4,1,2,5,0,M,0,2,3,0,1000,250.0,3,e09ch,187,train
545.0689792633057,3,4,1,2,5,0,M,0,3,0,0,1000,250.0,4,e09ch,188,train
529.0250778198242,3,4,1,2,5,0,M,1,3,0,0,1000,250.0,3,e09ch,189,train
449.0690231323242,3,4,1,2,5,0,M,1,3,0,0,1000,250.0,3,e09ch,190,train
449.0499496459961,3,4,1,2,5,0,M,1,4,1,0,1000,250.0,4,e09ch,191,train
528.6619663238525,3,4,1,2,5,0,M,1,0,5,0,1000,250.0,0,e09ch,192,train
481.04095458984375,3,4,1,2,5,0,M,1,0,5,0,1000,250.0,0,e09ch,193,train
577.0378112792969,3,4,1,2,5,0,M,1,5,4,0,1000,250.0,5,e09ch,194,train
448.90809059143066,3,4,1,2,5,0,M,1,5,4,0,1000,250.0,5,e09ch,195,train
465.0769233703613,3,4,1,2,5,0,M,1,5,4,0,1000,250.0,5,e09ch,196,train
513.0529403686523,3,4,1,2,5,0,M,1,1,2,0,1000,250.0,1,e09ch,197,train
673.1240749359131,3,4,1,2,5,0,M,1,4,1,0,1000,250.0,4,e09ch,198,train
609.0641021728516,3,4,1,2,5,0,M,1,4,1,0,1000,250.0,4,e09ch,199,train
640.9909725189209,3,4,1,2,5,0,M,1,4,1,0,1000,250.0,4,e09ch,200,train
705.085039138794,3,4,1,2,5,0,M,1,3,0,0,1000,250.0,3,e09ch,201,train
464.857816696167,3,4,1,2,5,0,M,1,3,0,0,1000,250.0,3,e09ch,202,train
577.0049095153809,3,4,1,2,5,0,M,1,0,5,0,1000,250.0,0,e09ch,203,train
560.7161521911621,3,4,1,2,5,0,M,1,2,3,0,1000,250.0,2,e09ch,204,train
449.0070343017578,3,4,1,2,5,0,M,1,0,5,0,1000,250.0,0,e09ch,205,train
577.0261287689209,3,4,1,2,5,0,M,1,4,1,0,1000,250.0,4,e09ch,206,train
513.1180286407471,3,4,1,2,5,0,M,1,0,5,0,1000,250.0,0,e09ch,207,train
449.0089416503906,3,4,1,2,5,0,M,1,0,5,0,1000,250.0,0,e09ch,208,train
592.9689407348633,3,4,1,2,5,0,M,1,5,4,0,1000,250.0,5,e09ch,209,train
593.0430889129639,3,4,1,2,5,0,M,1,3,0,0,1000,250.0,3,e09ch,210,train
465.0089740753174,3,4,1,2,5,0,M,1,5,4,0,1000,250.0,5,e09ch,211,train
497.081995010376,3,4,1,2,5,0,M,1,0,5,0,1000,250.0,0,e09ch,212,train
449.0780830383301,3,4,1,2,5,0,M,1,0,5,0,1000,250.0,0,e09ch,213,train
465.0239944458008,3,4,1,2,5,0,M,0,4,1,0,1000,250.0,2,e09ch,214,train
561.0630512237549,3,4,1,2,5,0,M,1,1,2,0,1000,250.0,1,e09ch,215,train
513.049840927124,3,4,1,2,5,0,M,1,0,5,0,1000,250.0,0,e09ch,216,train
529.123067855835,3,4,1,2,5,0,M,1,3,0,0,1000,250.0,3,e09ch,217,train
464.95795249938965,3,4,1,2,5,0,M,1,0,5,0,1000,250.0,0,e09ch,218,train
545.0229644775391,3,4,1,2,5,0,M,1,4,1,0,1000,250.0,4,e09ch,219,train
720.9680080413818,3,4,1,2,5,0,M,1,2,3,0,1000,250.0,2,e09ch,220,train
625.0791549682617,3,4,1,2,5,0,M,1,4,1,0,1000,250.0,4,e09ch,221,train
561.1820220947266,3,4,1,2,5,0,M,1,3,0,0,1000,250.0,3,e09ch,222,train
465.0740623474121,3,4,1,2,5,0,M,1,4,1,0,1000,250.0,4,e09ch,223,train
560.7931613922119,3,4,1,2,5,0,M,1,2,3,0,1000,250.0,2,e09ch,224,train
753.0121803283691,3,4,1,2,5,0,M,0,5,4,0,1000,250.0,4,e09ch,225,train
785.0749492645264,3,4,1,2,5,0,M,1,0,5,0,1000,250.0,0,e09ch,226,train
529.0510654449463,3,4,1,2,5,0,M,1,5,4,0,1000,250.0,5,e09ch,227,train
625.053882598877,3,4,1,2,5,0,M,1,5,4,0,1000,250.0,5,e09ch,228,train
657.1178436279297,3,4,1,2,5,0,M,1,3,0,0,1000,250.0,3,e09ch,229,train
848.7470149993896,3,4,1,2,5,0,M,1,1,2,0,1000,250.0,1,e09ch,230,train
608.9498996734619,3,4,1,2,5,0,M,1,2,3,0,1000,250.0,2,e09ch,231,train
512.9930973052979,3,4,1,2,5,0,M,1,0,5,0,1000,250.0,0,e09ch,232,train
625.0278949737549,3,4,1,2,5,0,M,1,5,4,0,1000,250.0,5,e09ch,233,train
449.0189552307129,3,4,1,2,5,0,M,1,5,4,0,1000,250.0,5,e09ch,234,train
529.1070938110352,3,4,1,2,5,0,M,1,0,5,0,1000,250.0,0,e09ch,235,train
608.8669300079346,3,4,1,2,5,0,M,1,4,1,0,1000,250.0,4,e09ch,236,train
913.0489826202393,3,4,1,2,5,0,M,1,2,3,0,1000,250.0,2,e09ch,237,train
673.022985458374,3,4,1,2,5,0,M,1,1,2,0,1000,250.0,1,e09ch,238,train
560.9879493713379,3,4,1,2,5,0,M,1,1,2,0,1000,250.0,1,e09ch,239,train
545.1560020446777,3,4,1,2,5,0,M,1,2,3,0,1000,250.0,2,e09ch,240,train
480.90100288391113,3,4,1,2,5,0,M,1,1,2,0,1000,250.0,1,e09ch,241,train
529.1221141815186,3,4,1,2,5,0,M,1,2,3,0,1000,250.0,2,e09ch,242,train
529.07395362854,3,4,1,2,5,0,M,1,0,5,0,1000,250.0,0,e09ch,243,train
641.1070823669434,3,4,1,2,5,0,M,1,0,5,0,1000,250.0,0,e09ch,244,train
705.1141262054443,3,4,1,2,5,0,M,1,4,1,0,1000,250.0,4,e09ch,245,train
545.036792755127,3,4,1,2,5,0,M,1,4,1,0,1000,250.0,4,e09ch,246,train
881.1590671539307,3,4,1,2,5,0,M,1,2,3,0,1000,250.0,2,e09ch,247,train
560.9841346740723,3,4,1,2,5,0,M,1,1,2,0,1000,250.0,1,e09ch,248,train
801.0737895965576,3,4,1,2,5,0,M,1,3,0,0,1000,250.0,3,e09ch,249,train
2272.822141647339,3,4,1,2,5,0,M,1,1,2,0,1000,250.0,1,e09ch,250,test
1472.7730751037598,3,4,1,2,5,0,M,0,3,0,0,1000,250.0,4,e09ch,251,test
2592.9369926452637,3,4,1,2,5,0,M,1,1,2,0,1000,250.0,1,e09ch,252,test
1056.9779872894287,3,4,1,2,5,0,M,1,3,0,0,1000,250.0,3,e09ch,253,test
816.9708251953125,3,4,1,2,5,0,M,1,5,4,0,1000,250.0,5,e09ch,254,test
960.6380462646484,3,4,1,2,5,0,M,1,3,0,0,1000,250.0,3,e09ch,255,test
864.9559020996094,3,4,1,2,5,0,M,1,4,1,0,1000,250.0,4,e09ch,256,test
624.9589920043945,3,4,1,2,5,0,M,1,4,1,0,1000,250.0,4,e09ch,257,test
881.0288906097412,3,4,1,2,5,0,M,1,3,0,0,1000,250.0,3,e09ch,258,test
528.947114944458,3,4,1,2,5,0,M,1,0,5,0,1000,250.0,0,e09ch,259,test
576.9789218902588,3,4,1,2,5,0,M,1,2,3,0,1000,250.0,2,e09ch,260,test
592.9949283599854,3,4,1,2,5,0,M,1,2,3,0,1000,250.0,2,e09ch,261,test
689.0368461608887,3,4,1,2,5,0,M,1,3,0,0,1000,250.0,3,e09ch,262,test
656.9781303405762,3,4,1,2,5,0,M,1,3,0,0,1000,250.0,3,e09ch,263,test
672.9249954223633,3,4,1,2,5,0,M,1,0,5,0,1000,250.0,0,e09ch,264,test
816.5371417999268,3,4,1,2,5,0,M,1,5,4,0,1000,250.0,5,e09ch,265,test
593.0838584899902,3,4,1,2,5,0,M,1,3,0,0,1000,250.0,3,e09ch,266,test
478.2600402832031,3,4,1,2,5,0,M,1,0,5,0,1000,250.0,0,e09ch,267,test
480.89599609375,3,4,1,2,5,0,M,1,0,5,0,1000,250.0,0,e09ch,268,test
865.0860786437988,3,4,1,2,5,0,M,1,4,1,0,1000,250.0,4,e09ch,269,test
656.9919586181641,3,4,1,2,5,0,M,1,3,0,0,1000,250.0,3,e09ch,270,test
672.9240417480469,3,4,1,2,5,0,M,1,4,1,0,1000,250.0,4,e09ch,271,test
561.007022857666,3,4,1,2,5,0,M,1,5,4,0,1000,250.0,5,e09ch,272,test
768.9180374145508,3,4,1,2,5,0,M,1,0,5,0,1000,250.0,0,e09ch,273,test
544.9509620666504,3,4,1,2,5,0,M,1,0,5,0,1000,250.0,0,e09ch,274,test
896.9619274139404,3,4,1,2,5,0,M,1,2,3,0,1000,250.0,2,e09ch,275,test
688.9040470123291,3,4,1,2,5,0,M,1,0,5,0,1000,250.0,0,e09ch,276,test
513.1080150604248,3,4,1,2,5,0,M,1,5,4,0,1000,250.0,5,e09ch,277,test
528.9149284362793,3,4,1,2,5,0,M,1,5,4,0,1000,250.0,5,e09ch,278,test
864.7210597991943,3,4,1,2,5,0,M,1,2,3,0,1000,250.0,2,e09ch,279,test
592.8888320922852,3,4,1,2,5,0,M,1,4,1,0,1000,250.0,4,e09ch,280,test
784.9798202514648,3,4,1,2,5,0,M,1,0,5,0,1000,250.0,0,e09ch,281,test
496.9489574432373,3,4,1,2,5,0,M,1,3,0,0,1000,250.0,3,e09ch,282,test
784.9400043487549,3,4,1,2,5,0,M,1,0,5,0,1000,250.0,0,e09ch,283,test
497.06411361694336,3,4,1,2,5,0,M,1,3,0,0,1000,250.0,3,e09ch,284,test
544.9039936065674,3,4,1,2,5,0,M,1,5,4,0,1000,250.0,5,e09ch,285,test
448.8859176635742,3,4,1,2,5,0,M,1,4,1,0,1000,250.0,4,e09ch,286,test
512.9730701446533,3,4,1,2,5,0,M,1,2,3,0,1000,250.0,2,e09ch,287,test
608.7348461151123,3,4,1,2,5,0,M,1,5,4,0,1000,250.0,5,e09ch,288,test
528.9361476898193,3,4,1,2,5,0,M,1,4,1,0,1000,250.0,4,e09ch,289,test
560.9180927276611,3,4,1,2,5,0,M,1,4,1,0,1000,250.0,4,e09ch,290,test
768.9402103424072,3,4,1,2,5,0,M,1,1,2,0,1000,250.0,1,e09ch,291,test
625.0879764556885,3,4,1,2,5,0,M,1,5,4,0,1000,250.0,5,e09ch,292,test
640.8660411834717,3,4,1,2,5,0,M,1,1,2,0,1000,250.0,1,e09ch,293,test
592.9539203643799,3,4,1,2,5,0,M,1,3,0,0,1000,250.0,3,e09ch,294,test
576.9779682159424,3,4,1,2,5,0,M,1,3,0,0,1000,250.0,3,e09ch,295,test
624.8948574066162,3,4,1,2,5,0,M,1,1,2,0,1000,250.0,1,e09ch,296,test
529.0899276733398,3,4,1,2,5,0,M,1,1,2,0,1000,250.0,1,e09ch,297,test
560.9519481658936,3,4,1,2,5,0,M,1,1,2,0,1000,250.0,1,e09ch,298,test
801.0380268096924,3,4,1,2,5,0,M,1,2,3,0,1000,250.0,2,e09ch,299,test
897.0539569854736,3,4,1,2,5,0,M,1,3,0,0,1000,250.0,3,e09ch,300,test
624.9451637268066,3,4,1,2,5,0,M,1,2,3,0,1000,250.0,2,e09ch,301,test
464.9779796600342,3,4,1,2,5,0,M,1,2,3,0,1000,250.0,2,e09ch,302,test
560.9240531921387,3,4,1,2,5,0,M,0,3,0,0,1000,250.0,4,e09ch,303,test
577.0490169525146,3,4,1,2,5,0,M,1,2,3,0,1000,250.0,2,e09ch,304,test
609.0090274810791,3,4,1,2,5,0,M,1,5,4,0,1000,250.0,5,e09ch,305,test
608.9291572570801,3,4,1,2,5,0,M,1,4,1,0,1000,250.0,4,e09ch,306,test
528.7671089172363,3,4,1,2,5,0,M,1,4,1,0,1000,250.0,4,e09ch,307,test
624.9339580535889,3,4,1,2,5,0,M,1,1,2,0,1000,250.0,1,e09ch,308,test
561.2668991088867,3,4,1,2,5,0,M,1,2,3,0,1000,250.0,2,e09ch,309,test
704.9641609191895,3,4,1,2,5,0,M,1,3,0,0,1000,250.0,3,e09ch,310,test
512.488842010498,3,4,1,2,5,0,M,1,3,0,0,1000,250.0,3,e09ch,311,test
736.5720272064209,3,4,1,2,5,0,M,1,0,5,0,1000,250.0,0,e09ch,312,test
624.7811317443848,3,4,1,2,5,0,M,1,4,1,0,1000,250.0,4,e09ch,313,test
528.4879207611084,3,4,1,2,5,0,M,1,4,1,0,1000,250.0,4,e09ch,314,test
592.7610397338867,3,4,1,2,5,0,M,1,1,2,0,1000,250.0,1,e09ch,315,test
672.490119934082,3,4,1,2,5,0,M,1,1,2,0,1000,250.0,1,e09ch,316,test
560.4979991912842,3,4,1,2,5,0,M,1,3,0,0,1000,250.0,3,e09ch,317,test
544.6419715881348,3,4,1,2,5,0,M,1,3,0,0,1000,250.0,3,e09ch,318,test
576.5891075134277,3,4,1,2,5,0,M,1,5,4,0,1000,250.0,5,e09ch,319,test
496.4630603790283,3,4,1,2,5,0,M,1,5,4,0,1000,250.0,5,e09ch,320,test
416.55588150024414,3,4,1,2,5,0,M,1,5,4,0,1000,250.0,5,e09ch,321,test
480.5469512939453,3,4,1,2,5,0,M,0,4,1,0,1000,250.0,5,e09ch,322,test
720.6518650054932,3,4,1,2,5,0,M,1,0,5,0,1000,250.0,0,e09ch,323,test
592.5378799438477,3,4,1,2,5,0,M,1,4,1,0,1000,250.0,4,e09ch,324,test
544.5799827575684,3,4,1,2,5,0,M,1,5,4,0,1000,250.0,5,e09ch,325,test
624.5310306549072,3,4,1,2,5,0,M,1,0,5,0,1000,250.0,0,e09ch,326,test
592.63014793396,3,4,1,2,5,0,M,1,4,1,0,1000,250.0,4,e09ch,327,test
560.4889392852783,3,4,1,2,5,0,M,1,1,2,0,1000,250.0,1,e09ch,328,test
576.6561031341553,3,4,1,2,5,0,M,1,1,2,0,1000,250.0,1,e09ch,329,test
592.5769805908203,3,4,1,2,5,0,M,1,5,4,0,1000,250.0,5,e09ch,330,test
608.8249683380127,3,4,1,2,5,0,M,1,1,2,0,1000,250.0,1,e09ch,331,test
544.5759296417236,3,4,1,2,5,0,M,1,5,4,0,1000,250.0,5,e09ch,332,test
736.4938259124756,3,4,1,2,5,0,M,1,0,5,0,1000,250.0,0,e09ch,333,test
560.5769157409668,3,4,1,2,5,0,M,1,1,2,0,1000,250.0,1,e09ch,334,test
832.6830863952637,3,4,1,2,5,0,M,1,3,0,0,1000,250.0,3,e09ch,335,test
448.5759735107422,3,4,1,2,5,0,M,1,0,5,0,1000,250.0,0,e09ch,336,test
560.5549812316895,3,4,1,2,5,0,M,1,4,1,0,1000,250.0,4,e09ch,337,test
576.4899253845215,3,4,1,2,5,0,M,1,0,5,0,1000,250.0,0,e09ch,338,test
576.5061378479004,3,4,1,2,5,0,M,1,1,2,0,1000,250.0,1,e09ch,339,test
592.5140380859375,3,4,1,2,5,0,M,1,3,0,0,1000,250.0,3,e09ch,340,test
672.590970993042,3,4,1,2,5,0,M,0,2,3,0,1000,250.0,1,e09ch,341,test
512.4640464782715,3,4,1,2,5,0,M,1,4,1,0,1000,250.0,4,e09ch,342,test
608.5309982299805,3,4,1,2,5,0,M,1,5,4,0,1000,250.0,5,e09ch,343,test
736.5460395812988,3,4,1,2,5,0,M,1,0,5,0,1000,250.0,0,e09ch,344,test
704.5559883117676,3,4,1,2,5,0,M,1,2,3,0,1000,250.0,2,e09ch,345,test
544.5189476013184,3,4,1,2,5,0,M,1,5,4,0,1000,250.0,5,e09ch,346,test
544.658899307251,3,4,1,2,5,0,M,1,5,4,0,1000,250.0,5,e09ch,347,test
608.5638999938965,3,4,1,2,5,0,M,1,3,0,0,1000,250.0,3,e09ch,348,test
624.8390674591064,3,4,1,2,5,0,M,1,2,3,0,1000,250.0,2,e09ch,349,test
624.4959831237793,3,4,1,2,5,0,M,1,1,2,0,1000,250.0,1,e09ch,350,test
560.4991912841797,3,4,1,2,5,0,M,1,4,1,0,1000,250.0,4,e09ch,351,test
864.5122051239014,3,4,1,2,5,0,M,1,0,5,0,1000,250.0,0,e09ch,352,test
1152.574062347412,3,4,1,2,5,0,M,1,0,5,0,1000,250.0,0,e09ch,353,test
640.5069828033447,3,4,1,2,5,0,M,1,3,0,0,1000,250.0,3,e09ch,354,test
448.5177993774414,3,4,1,2,5,0,M,1,4,1,0,1000,250.0,4,e09ch,355,test
592.3640727996826,3,4,1,2,5,0,M,1,0,5,0,1000,250.0,0,e09ch,356,test
640.6071186065674,3,4,1,2,5,0,M,1,2,3,0,1000,250.0,2,e09ch,357,test
544.517993927002,3,4,1,2,5,0,M,1,5,4,0,1000,250.0,5,e09ch,358,test
560.4770183563232,3,4,1,2,5,0,M,1,1,2,0,1000,250.0,1,e09ch,359,test
672.5718975067139,3,4,1,2,5,0,M,1,0,5,0,1000,250.0,0,e09ch,360,test
544.241189956665,3,4,1,2,5,0,M,1,5,4,0,1000,250.0,5,e09ch,361,test
576.5049457550049,3,4,1,2,5,0,M,1,0,5,0,1000,250.0,0,e09ch,362,test
544.5528030395508,3,4,1,2,5,0,M,1,5,4,0,1000,250.0,5,e09ch,363,test
576.6050815582275,3,4,1,2,5,0,M,1,3,0,0,1000,250.0,3,e09ch,364,test
784.6860885620117,3,4,1,2,5,0,M,1,4,1,0,1000,250.0,4,e09ch,365,test
576.4000415802002,3,4,1,2,5,0,M,1,1,2,0,1000,250.0,1,e09ch,366,test
592.473030090332,3,4,1,2,5,0,M,1,1,2,0,1000,250.0,1,e09ch,367,test
512.5200748443604,3,4,1,2,5,0,M,1,5,4,0,1000,250.0,5,e09ch,368,test
592.5500392913818,3,4,1,2,5,0,M,1,2,3,0,1000,250.0,2,e09ch,369,test
528.5091400146484,3,4,1,2,5,0,M,1,5,4,0,1000,250.0,5,e09ch,370,test
816.6000843048096,3,4,1,2,5,0,M,1,3,0,0,1000,250.0,3,e09ch,371,test
576.591968536377,3,4,1,2,5,0,M,1,5,4,0,1000,250.0,5,e09ch,372,test
512.5617980957031,3,4,1,2,5,0,M,1,5,4,0,1000,250.0,5,e09ch,373,test
800.5709648132324,3,4,1,2,5,0,M,1,0,5,0,1000,250.0,0,e09ch,374,test
512.6020908355713,3,4,1,2,5,0,M,1,4,1,0,1000,250.0,4,e09ch,375,test
512.5060081481934,3,4,1,2,5,0,M,1,5,4,0,1000,250.0,5,e09ch,376,test
576.5571594238281,3,4,1,2,5,0,M,1,2,3,0,1000,250.0,2,e09ch,377,test
496.4900016784668,3,4,1,2,5,0,M,1,2,3,0,1000,250.0,2,e09ch,378,test
528.5801887512207,3,4,1,2,5,0,M,1,4,1,0,1000,250.0,4,e09ch,379,test
704.5791149139404,3,4,1,2,5,0,M,1,1,2,0,1000,250.0,1,e09ch,380,test
529.0849208831787,3,4,1,2,5,0,M,1,5,4,0,1000,250.0,5,e09ch,381,test
809.2269897460938,3,4,1,2,5,0,M,1,5,4,0,1000,250.0,5,e09ch,382,test
576.6358375549316,3,4,1,2,5,0,M,1,0,5,0,1000,250.0,0,e09ch,383,test
624.5689392089844,3,4,1,2,5,0,M,1,3,0,0,1000,250.0,3,e09ch,384,test
544.5971488952637,3,4,1,2,5,0,M,1,5,4,0,1000,250.0,5,e09ch,385,test
528.4590721130371,3,4,1,2,5,0,M,1,4,1,0,1000,250.0,4,e09ch,386,test
656.6641330718994,3,4,1,2,5,0,M,1,0,5,0,1000,250.0,0,e09ch,387,test
560.9109401702881,3,4,1,2,5,0,M,1,4,1,0,1000,250.0,4,e09ch,388,test
512.8660202026367,3,4,1,2,5,0,M,0,4,1,0,1000,250.0,5,e09ch,389,test
545.0220108032227,3,4,1,2,5,0,M,1,5,4,0,1000,250.0,5,e09ch,390,test
577.0089626312256,3,4,1,2,5,0,M,1,1,2,0,1000,250.0,1,e09ch,391,test
624.9270439147949,3,4,1,2,5,0,M,1,0,5,0,1000,250.0,0,e09ch,392,test
384.8898410797119,3,4,1,2,5,0,M,1,3,0,0,1000,250.0,3,e09ch,393,test
561.0110759735107,3,4,1,2,5,0,M,1,1,2,0,1000,250.0,1,e09ch,394,test
560.9610080718994,3,4,1,2,5,0,M,1,2,3,0,1000,250.0,2,e09ch,395,test
561.1228942871094,3,4,1,2,5,0,M,1,1,2,0,1000,250.0,1,e09ch,396,test
512.9878520965576,3,4,1,2,5,0,M,1,4,1,0,1000,250.0,4,e09ch,397,test
705.1100730895996,3,4,1,2,5,0,M,1,3,0,0,1000,250.0,3,e09ch,398,test
384.8440647125244,3,4,1,2,5,0,M,1,3,0,0,1000,250.0,3,e09ch,399,test
432.99007415771484,3,4,1,2,5,0,M,1,3,0,0,1000,250.0,3,e09ch,400,test
480.95107078552246,3,4,1,2,5,0,M,1,4,1,0,1000,250.0,4,e09ch,401,test
560.9951019287109,3,4,1,2,5,0,M,1,2,3,0,1000,250.0,2,e09ch,402,test
592.980146408081,3,4,1,2,5,0,M,0,0,5,0,1000,250.0,2,e09ch,403,test
576.9438743591309,3,4,1,2,5,0,M,1,1,2,0,1000,250.0,1,e09ch,404,test
576.7848491668701,3,4,1,2,5,0,M,1,5,4,0,1000,250.0,5,e09ch,405,test
608.954906463623,3,4,1,2,5,0,M,1,3,0,0,1000,250.0,3,e09ch,406,test
544.8582172393799,3,4,1,2,5,0,M,1,4,1,0,1000,250.0,4,e09ch,407,test
592.9770469665527,3,4,1,2,5,0,M,1,0,5,0,1000,250.0,0,e09ch,408,test
512.9439830780029,3,4,1,2,5,0,M,1,5,4,0,1000,250.0,5,e09ch,409,test
496.9820976257324,3,4,1,2,5,0,M,1,3,0,0,1000,250.0,3,e09ch,410,test
576.9510269165039,3,4,1,2,5,0,M,1,2,3,0,1000,250.0,2,e09ch,411,test
544.8989868164062,3,4,1,2,5,0,M,1,1,2,0,1000,250.0,1,e09ch,412,test
544.9321269989014,3,4,1,2,5,0,M,1,3,0,0,1000,250.0,3,e09ch,413,test
496.98591232299805,3,4,1,2,5,0,M,1,4,1,0,1000,250.0,4,e09ch,414,test
560.9340667724609,3,4,1,2,5,0,M,1,3,0,0,1000,250.0,3,e09ch,415,test
673.1140613555908,3,4,1,2,5,0,M,1,0,5,0,1000,250.0,0,e09ch,416,test
560.9800815582275,3,4,1,2,5,0,M,1,1,2,0,1000,250.0,1,e09ch,417,test
704.9269676208496,3,4,1,2,5,0,M,1,1,2,0,1000,250.0,1,e09ch,418,test
624.93896484375,3,4,1,2,5,0,M,1,3,0,0,1000,250.0,3,e09ch,419,test
560.9400272369385,3,4,1,2,5,0,M,1,5,4,0,1000,250.0,5,e09ch,420,test
944.9589252471924,3,4,1,2,5,0,M,1,0,5,0,1000,250.0,0,e09ch,421,test
592.9958820343018,3,4,1,2,5,0,M,1,2,3,0,1000,250.0,2,e09ch,422,test
576.9569873809814,3,4,1,2,5,0,M,1,0,5,0,1000,250.0,0,e09ch,423,test
577.1150588989258,3,4,1,2,5,0,M,1,5,4,0,1000,250.0,5,e09ch,424,test
608.9279651641846,3,4,1,2,5,0,M,1,2,3,0,1000,250.0,2,e09ch,425,test
512.9389762878418,3,4,1,2,5,0,M,1,0,5,0,1000,250.0,0,e09ch,426,test
465.5439853668213,3,4,1,2,5,0,M,1,4,1,0,1000,250.0,4,e09ch,427,test
656.9750308990479,3,4,1,2,5,0,M,1,0,5,0,1000,250.0,0,e09ch,428,test
464.8919105529785,3,4,1,2,5,0,M,1,5,4,0,1000,250.0,5,e09ch,429,test
592.9439067840576,3,4,1,2,5,0,M,1,0,5,0,1000,250.0,0,e09ch,430,test
528.9969444274902,3,4,1,2,5,0,M,1,1,2,0,1000,250.0,1,e09ch,431,test
529.0279388427734,3,4,1,2,5,0,M,1,0,5,0,1000,250.0,0,e09ch,432,test
512.3851299285889,3,4,1,2,5,0,M,1,3,0,0,1000,250.0,3,e09ch,433,test
448.46105575561523,3,4,1,2,5,0,M,1,3,0,0,1000,250.0,3,e09ch,434,test
592.573881149292,3,4,1,2,5,0,M,1,2,3,0,1000,250.0,2,e09ch,435,test
480.5741310119629,3,4,1,2,5,0,M,1,4,1,0,1000,250.0,4,e09ch,436,test
512.5060081481934,3,4,1,2,5,0,M,1,2,3,0,1000,250.0,2,e09ch,437,test
576.5140056610107,3,4,1,2,5,0,M,1,1,2,0,1000,250.0,1,e09ch,438,test
576.6310691833496,3,4,1,2,5,0,M,1,0,5,0,1000,250.0,0,e09ch,439,test
544.5091724395752,3,4,1,2,5,0,M,1,4,1,0,1000,250.0,4,e09ch,440,test
560.4920387268066,3,4,1,2,5,0,M,1,5,4,0,1000,250.0,5,e09ch,441,test
512.4771595001221,3,4,1,2,5,0,M,1,4,1,0,1000,250.0,4,e09ch,442,test
544.6648597717285,3,4,1,2,5,0,M,1,2,3,0,1000,250.0,2,e09ch,443,test
560.3389739990234,3,4,1,2,5,0,M,1,2,3,0,1000,250.0,2,e09ch,444,test
576.4980316162109,3,4,1,2,5,0,M,1,5,4,0,1000,250.0,5,e09ch,445,test
560.8479976654053,3,4,1,2,5,0,M,1,5,4,0,1000,250.0,5,e09ch,446,test
592.5760269165039,3,4,1,2,5,0,M,1,2,3,0,1000,250.0,2,e09ch,447,test
576.5700340270996,3,4,1,2,5,0,M,1,1,2,0,1000,250.0,1,e09ch,448,test
560.7700347900391,3,4,1,2,5,0,M,1,5,4,0,1000,250.0,5,e09ch,449,test
512.5141143798828,3,4,1,2,5,0,M,1,4,1,0,1000,250.0,4,e09ch,450,test
512.5699043273926,3,4,1,2,5,0,M,1,5,4,0,1000,250.0,5,e09ch,451,test
737.0951175689697,3,4,1,2,5,0,M,1,0,5,0,1000,250.0,0,e09ch,452,test
529.0920734405518,3,4,1,2,5,0,M,1,3,0,0,1000,250.0,3,e09ch,453,test
576.4338970184326,3,4,1,2,5,0,M,1,2,3,0,1000,250.0,2,e09ch,454,test
640.5220031738281,3,4,1,2,5,0,M,1,3,0,0,1000,250.0,3,e09ch,455,test
672.4920272827148,3,4,1,2,5,0,M,0,0,5,0,1000,250.0,2,e09ch,456,test
688.7929439544678,3,4,1,2,5,0,M,1,1,2,0,1000,250.0,1,e09ch,457,test
480.5600643157959,3,4,1,2,5,0,M,1,1,2,0,1000,250.0,1,e09ch,458,test
992.5181865692139,3,4,1,2,5,0,M,0,0,5,0,1000,250.0,2,e09ch,459,test
640.4731273651123,3,4,1,2,5,0,M,1,5,4,0,1000,250.0,5,e09ch,460,test
624.5560646057129,3,4,1,2,5,0,M,1,2,3,0,1000,250.0,2,e09ch,461,test
608.5419654846191,3,4,1,2,5,0,M,1,1,2,0,1000,250.0,1,e09ch,462,test
608.583927154541,3,4,1,2,5,0,M,1,1,2,0,1000,250.0,1,e09ch,463,test
592.587947845459,3,4,1,2,5,0,M,1,2,3,0,1000,250.0,2,e09ch,464,test
576.5740871429443,3,4,1,2,5,0,M,1,3,0,0,1000,250.0,3,e09ch,465,test
432.4979782104492,3,4,1,2,5,0,M,1,3,0,0,1000,250.0,3,e09ch,466,test
576.5671730041504,3,4,1,2,5,0,M,1,2,3,0,1000,250.0,2,e09ch,467,test
624.4721412658691,3,4,1,2,5,0,M,1,5,4,0,1000,250.0,5,e09ch,468,test
656.5461158752441,3,4,1,2,5,0,M,1,2,3,0,1000,250.0,2,e09ch,469,test
560.2691173553467,3,4,1,2,5,0,M,1,4,1,0,1000,250.0,4,e09ch,470,test
736.4349365234375,3,4,1,2,5,0,M,1,1,2,0,1000,250.0,1,e09ch,471,test
464.52903747558594,3,4,1,2,5,0,M,1,1,2,0,1000,250.0,1,e09ch,472,test
528.5701751708984,3,4,1,2,5,0,M,1,5,4,0,1000,250.0,5,e09ch,473,test
448.65894317626953,3,4,1,2,5,0,M,1,5,4,0,1000,250.0,5,e09ch,474,test
768.5410976409912,3,4,1,2,5,0,M,1,2,3,0,1000,250.0,2,e09ch,475,test
608.6211204528809,3,4,1,2,5,0,M,1,3,0,0,1000,250.0,3,e09ch,476,test
464.56193923950195,3,4,1,2,5,0,M,1,3,0,0,1000,250.0,3,e09ch,477,test
528.5539627075195,3,4,1,2,5,0,M,1,5,4,0,1000,250.0,5,e09ch,478,test
592.5650596618652,3,4,1,2,5,0,M,0,0,5,0,1000,250.0,2,e09ch,479,test
592.5238132476807,3,4,1,2,5,0,M,1,5,4,0,1000,250.0,5,e09ch,480,test
608.4909439086914,3,4,1,2,5,0,M,1,2,3,0,1000,250.0,2,e09ch,481,test
560.4679584503174,3,4,1,2,5,0,M,1,4,1,0,1000,250.0,4,e09ch,482,test
593.0118560791016,3,4,1,2,5,0,M,1,2,3,0,1000,250.0,2,e09ch,483,test
641.6311264038086,3,4,1,2,5,0,M,1,1,2,0,1000,250.0,1,e09ch,484,test
593.6048030853271,3,4,1,2,5,0,M,0,0,5,0,1000,250.0,2,e09ch,485,test
545.1188087463379,3,4,1,2,5,0,M,1,4,1,0,1000,250.0,4,e09ch,486,test
561.2931251525879,3,4,1,2,5,0,M,1,0,5,0,1000,250.0,0,e09ch,487,test
576.6019821166992,3,4,1,2,5,0,M,1,3,0,0,1000,250.0,3,e09ch,488,test
624.9418258666992,3,4,1,2,5,0,M,1,2,3,0,1000,250.0,2,e09ch,489,test
608.9460849761963,3,4,1,2,5,0,M,1,3,0,0,1000,250.0,3,e09ch,490,test
640.8298015594482,3,4,1,2,5,0,M,1,5,4,0,1000,250.0,5,e09ch,491,test
640.9339904785156,3,4,1,2,5,0,M,0,3,0,0,1000,250.0,2,e09ch,492,test
608.834981918335,3,4,1,2,5,0,M,1,4,1,0,1000,250.0,4,e09ch,493,test
512.937068939209,3,4,1,2,5,0,M,1,4,1,0,1000,250.0,4,e09ch,494,test
849.0028381347656,3,4,1,2,5,0,M,1,2,3,0,1000,250.0,2,e09ch,495,test
544.9419021606445,3,4,1,2,5,0,M,1,3,0,0,1000,250.0,3,e09ch,496,test
704.927921295166,3,4,1,2,5,0,M,1,2,3,0,1000,250.0,2,e09ch,497,test
768.9769268035889,3,4,1,2,5,0,M,1,4,1,0,1000,250.0,4,e09ch,498,test
784.95192527771,3,4,1,2,5,0,M,0,2,3,0,1000,250.0,0,e09ch,499,test
