RT,SRmap_0,SRmap_1,SRmap_2,SRmap_3,SRmap_4,SRmap_5,condition,correct,correct_response,curstim,ms-precue,ms-prestimblank,ntrials,response,subject,trial,type
1984.3440055847168,0,2,5,4,3,1,H-,1,4,3,0,1000,250.0,4,C35YL,0,train
1184.493064880371,0,2,5,4,3,1,H-,1,3,4,0,1000,250.0,3,C35YL,1,train
928.9638996124268,0,2,5,4,3,1,H-,1,4,3,0,1000,250.0,4,C35YL,2,train
1408.5719585418701,0,2,5,4,3,1,H-,1,4,3,0,1000,250.0,4,C35YL,3,train
1008.3909034729004,0,2,5,4,3,1,H-,1,4,3,0,1000,250.0,4,C35YL,4,train
624.3181228637695,0,2,5,4,3,1,H-,1,4,3,0,1000,250.0,4,C35YL,5,train
880.5010318756104,0,2,5,4,3,1,H-,1,3,4,0,1000,250.0,3,C35YL,6,train
880.4469108581543,0,2,5,4,3,1,H-,1,5,2,0,1000,250.0,5,C35YL,7,train
1232.464075088501,0,2,5,4,3,1,H-,1,0,0,0,1000,250.0,0,C35YL,8,train
1392.6060199737549,0,2,5,4,3,1,H-,1,5,2,0,1000,250.0,5,C35YL,9,train
784.390926361084,0,2,5,4,3,1,H-,1,1,5,0,1000,250.0,1,C35YL,10,train
1088.932991027832,0,2,5,4,3,1,H-,1,2,1,0,1000,250.0,2,C35YL,11,train
689.094066619873,0,2,5,4,3,1,H-,1,3,4,0,1000,250.0,3,C35YL,12,train
1504.6288967132568,0,2,5,4,3,1,H-,1,2,1,0,1000,250.0,2,C35YL,13,train
929.8810958862305,0,2,5,4,3,1,H-,1,2,1,0,1000,250.0,2,C35YL,14,train
769.3028450012207,0,2,5,4,3,1,H-,1,3,4,0,1000,250.0,3,C35YL,15,train
752.7999877929688,0,2,5,4,3,1,H-,1,5,2,0,1000,250.0,5,C35YL,16,train
624.614953994751,0,2,5,4,3,1,H-,1,4,3,0,1000,250.0,4,C35YL,17,train
751.309871673584,0,2,5,4,3,1,H-,1,2,1,0,1000,250.0,2,C35YL,18,train
704.4808864593506,0,2,5,4,3,1,H-,1,3,4,0,1000,250.0,3,C35YL,19,train
992.7101135253906,0,2,5,4,3,1,H-,1,3,4,0,1000,250.0,3,C35YL,20,train
1504.6088695526123,0,2,5,4,3,1,H-,1,2,1,0,1000,250.0,2,C35YL,21,train
1088.5298252105713,0,2,5,4,3,1,H-,1,5,2,0,1000,250.0,5,C35YL,22,train
1088.2749557495117,0,2,5,4,3,1,H-,0,1,5,0,1000,250.0,2,C35YL,23,train
752.7339458465576,0,2,5,4,3,1,H-,1,2,1,0,1000,250.0,2,C35YL,24,train
1376.2259483337402,0,2,5,4,3,1,H-,1,1,5,0,1000,250.0,1,C35YL,25,train
960.7131481170654,0,2,5,4,3,1,H-,1,4,3,0,1000,250.0,4,C35YL,26,train
704.6070098876953,0,2,5,4,3,1,H-,1,2,1,0,1000,250.0,2,C35YL,27,train
736.3519668579102,0,2,5,4,3,1,H-,1,1,5,0,1000,250.0,1,C35YL,28,train
928.4119606018066,0,2,5,4,3,1,H-,1,2,1,0,1000,250.0,2,C35YL,29,train
1136.1610889434814,0,2,5,4,3,1,H-,1,3,4,0,1000,250.0,3,C35YL,30,train
656.0277938842773,0,2,5,4,3,1,H-,1,3,4,0,1000,250.0,3,C35YL,31,train
768.4731483459473,0,2,5,4,3,1,H-,1,5,2,0,1000,250.0,5,C35YL,32,train
686.7060661315918,0,2,5,4,3,1,H-,1,5,2,0,1000,250.0,5,C35YL,33,train
784.757137298584,0,2,5,4,3,1,H-,1,4,3,0,1000,250.0,4,C35YL,34,train
881.2129497528076,0,2,5,4,3,1,H-,1,0,0,0,1000,250.0,0,C35YL,35,train
800.3380298614502,0,2,5,4,3,1,H-,1,5,2,0,1000,250.0,5,C35YL,36,train
672.1811294555664,0,2,5,4,3,1,H-,1,5,2,0,1000,250.0,5,C35YL,37,train
624.3851184844971,0,2,5,4,3,1,H-,1,1,5,0,1000,250.0,1,C35YL,38,train
608.6220741271973,0,2,5,4,3,1,H-,1,1,5,0,1000,250.0,1,C35YL,39,train
720.1418876647949,0,2,5,4,3,1,H-,0,0,0,0,1000,250.0,3,C35YL,40,train
816.4780139923096,0,2,5,4,3,1,H-,1,3,4,0,1000,250.0,3,C35YL,41,train
1040.9162044525146,0,2,5,4,3,1,H-,1,4,3,0,1000,250.0,4,C35YL,42,train
976.5839576721191,0,2,5,4,3,1,H-,1,0,0,0,1000,250.0,0,C35YL,43,train
736.5179061889648,0,2,5,4,3,1,H-,1,5,2,0,1000,250.0,5,C35YL,44,train
641.09206199646,0,2,5,4,3,1,H-,1,4,3,0,1000,250.0,4,C35YL,45,train
752.3729801177979,0,2,5,4,3,1,H-,1,4,3,0,1000,250.0,4,C35YL,46,train
736.4311218261719,0,2,5,4,3,1,H-,1,3,4,0,1000,250.0,3,C35YL,47,train
1072.4260807037354,0,2,5,4,3,1,H-,1,0,0,0,1000,250.0,0,C35YL,48,train
736.6929054260254,0,2,5,4,3,1,H-,1,2,1,0,1000,250.0,2,C35YL,49,train
672.4429130554199,0,2,5,4,3,1,H-,1,3,4,0,1000,250.0,3,C35YL,50,train
719.7709083557129,0,2,5,4,3,1,H-,1,4,3,0,1000,250.0,4,C35YL,51,train
641.132116317749,0,2,5,4,3,1,H-,1,1,5,0,1000,250.0,1,C35YL,52,train
670.6039905548096,0,2,5,4,3,1,H-,1,4,3,0,1000,250.0,4,C35YL,53,train
638.5769844055176,0,2,5,4,3,1,H-,1,2,1,0,1000,250.0,2,C35YL,54,train
1008.6169242858887,0,2,5,4,3,1,H-,1,2,1,0,1000,250.0,2,C35YL,55,train
862.5869750976562,0,2,5,4,3,1,H-,1,5,2,0,1000,250.0,5,C35YL,56,train
640.5930519104004,0,2,5,4,3,1,H-,1,3,4,0,1000,250.0,3,C35YL,57,train
672.8100776672363,0,2,5,4,3,1,H-,1,1,5,0,1000,250.0,1,C35YL,58,train
640.7370567321777,0,2,5,4,3,1,H-,1,2,1,0,1000,250.0,2,C35YL,59,train
944.4379806518555,0,2,5,4,3,1,H-,1,1,5,0,1000,250.0,1,C35YL,60,train
961.0631465911865,0,2,5,4,3,1,H-,1,5,2,0,1000,250.0,5,C35YL,61,train
640.4080390930176,0,2,5,4,3,1,H-,1,1,5,0,1000,250.0,1,C35YL,62,train
446.64692878723145,0,2,5,4,3,1,H-,1,4,3,0,1000,250.0,4,C35YL,63,train
528.2611846923828,0,2,5,4,3,1,H-,1,1,5,0,1000,250.0,1,C35YL,64,train
1265.1398181915283,0,2,5,4,3,1,H-,1,5,2,0,1000,250.0,5,C35YL,65,train
864.5679950714111,0,2,5,4,3,1,H-,1,4,3,0,1000,250.0,4,C35YL,66,train
512.8209590911865,0,2,5,4,3,1,H-,1,3,4,0,1000,250.0,3,C35YL,67,train
624.4809627532959,0,2,5,4,3,1,H-,1,4,3,0,1000,250.0,4,C35YL,68,train
736.4790439605713,0,2,5,4,3,1,H-,1,2,1,0,1000,250.0,2,C35YL,69,train
640.5220031738281,0,2,5,4,3,1,H-,0,0,0,0,1000,250.0,2,C35YL,70,train
1024.6291160583496,0,2,5,4,3,1,H-,1,5,2,0,1000,250.0,5,C35YL,71,train
1040.5628681182861,0,2,5,4,3,1,H-,1,0,0,0,1000,250.0,0,C35YL,72,train
656.1598777770996,0,2,5,4,3,1,H-,1,0,0,0,1000,250.0,0,C35YL,73,train
688.6329650878906,0,2,5,4,3,1,H-,1,5,2,0,1000,250.0,5,C35YL,74,train
560.4310035705566,0,2,5,4,3,1,H-,1,1,5,0,1000,250.0,1,C35YL,75,train
560.452938079834,0,2,5,4,3,1,H-,1,1,5,0,1000,250.0,1,C35YL,76,train
704.9238681793213,0,2,5,4,3,1,H-,1,2,1,0,1000,250.0,2,C35YL,77,train
528.4228324890137,0,2,5,4,3,1,H-,1,1,5,0,1000,250.0,1,C35YL,78,train
480.5738925933838,0,2,5,4,3,1,H-,1,3,4,0,1000,250.0,3,C35YL,79,train
560.316801071167,0,2,5,4,3,1,H-,1,5,2,0,1000,250.0,5,C35YL,80,train
496.4721202850342,0,2,5,4,3,1,H-,1,5,2,0,1000,250.0,5,C35YL,81,train
480.5610179901123,0,2,5,4,3,1,H-,1,1,5,0,1000,250.0,1,C35YL,82,train
336.7960453033447,0,2,5,4,3,1,H-,1,1,5,0,1000,250.0,1,C35YL,83,train
496.5360164642334,0,2,5,4,3,1,H-,1,1,5,0,1000,250.0,1,C35YL,84,train
512.408971786499,0,2,5,4,3,1,H-,0,5,2,0,1000,250.0,2,C35YL,85,train
672.2679138183594,0,2,5,4,3,1,H-,1,4,3,0,1000,250.0,4,C35YL,86,train
544.4481372833252,0,2,5,4,3,1,H-,1,5,2,0,1000,250.0,5,C35YL,87,train
480.38482666015625,0,2,5,4,3,1,H-,1,4,3,0,1000,250.0,4,C35YL,88,train
991.2540912628174,0,2,5,4,3,1,H-,1,0,0,0,1000,250.0,0,C35YL,89,train
480.44800758361816,0,2,5,4,3,1,H-,1,4,3,0,1000,250.0,4,C35YL,90,train
352.4658679962158,0,2,5,4,3,1,H-,1,4,3,0,1000,250.0,4,C35YL,91,train
512.3369693756104,0,2,5,4,3,1,H-,0,3,4,0,1000,250.0,2,C35YL,92,train
960.425853729248,0,2,5,4,3,1,H-,1,0,0,0,1000,250.0,0,C35YL,93,train
528.3520221710205,0,2,5,4,3,1,H-,1,5,2,0,1000,250.0,5,C35YL,94,train
529.0219783782959,0,2,5,4,3,1,H-,1,1,5,0,1000,250.0,1,C35YL,95,train
352.60796546936035,0,2,5,4,3,1,H-,1,1,5,0,1000,250.0,1,C35YL,96,train
1024.947166442871,0,2,5,4,3,1,H-,1,2,1,0,1000,250.0,2,C35YL,97,train
544.5621013641357,0,2,5,4,3,1,H-,1,4,3,0,1000,250.0,4,C35YL,98,train
752.3641586303711,0,2,5,4,3,1,H-,1,5,2,0,1000,250.0,5,C35YL,99,train
352.63705253601074,0,2,5,4,3,1,H-,1,4,3,0,1000,250.0,4,C35YL,100,train
465.12794494628906,0,2,5,4,3,1,H-,1,1,5,0,1000,250.0,1,C35YL,101,train
896.3391780853271,0,2,5,4,3,1,H-,1,0,0,0,1000,250.0,0,C35YL,102,train
544.3861484527588,0,2,5,4,3,1,H-,1,3,4,0,1000,250.0,3,C35YL,103,train
720.6041812896729,0,2,5,4,3,1,H-,1,2,1,0,1000,250.0,2,C35YL,104,train
608.4771156311035,0,2,5,4,3,1,H-,1,4,3,0,1000,250.0,4,C35YL,105,train
560.5111122131348,0,2,5,4,3,1,H-,0,2,1,0,1000,250.0,5,C35YL,106,train
592.6601886749268,0,2,5,4,3,1,H-,1,2,1,0,1000,250.0,2,C35YL,107,train
481.15086555480957,0,2,5,4,3,1,H-,1,5,2,0,1000,250.0,5,C35YL,108,train
576.5330791473389,0,2,5,4,3,1,H-,1,3,4,0,1000,250.0,3,C35YL,109,train
816.4830207824707,0,2,5,4,3,1,H-,1,2,1,0,1000,250.0,2,C35YL,110,train
560.6629848480225,0,2,5,4,3,1,H-,1,5,2,0,1000,250.0,5,C35YL,111,train
447.24202156066895,0,2,5,4,3,1,H-,1,4,3,0,1000,250.0,4,C35YL,112,train
656.3060283660889,0,2,5,4,3,1,H-,1,0,0,0,1000,250.0,0,C35YL,113,train
528.048038482666,0,2,5,4,3,1,H-,1,0,0,0,1000,250.0,0,C35YL,114,train
592.9129123687744,0,2,5,4,3,1,H-,1,0,0,0,1000,250.0,0,C35YL,115,train
640.6290531158447,0,2,5,4,3,1,H-,1,1,5,0,1000,250.0,1,C35YL,116,train
512.476921081543,0,2,5,4,3,1,H-,1,1,5,0,1000,250.0,1,C35YL,117,train
513.1680965423584,0,2,5,4,3,1,H-,1,4,3,0,1000,250.0,4,C35YL,118,train
1120.8901405334473,0,2,5,4,3,1,H-,0,3,4,0,1000,250.0,0,C35YL,119,train
656.3498973846436,0,2,5,4,3,1,H-,1,1,5,0,1000,250.0,1,C35YL,120,train
624.2828369140625,0,2,5,4,3,1,H-,1,2,1,0,1000,250.0,2,C35YL,121,train
896.6209888458252,0,2,5,4,3,1,H-,1,5,2,0,1000,250.0,5,C35YL,122,train
784.3661308288574,0,2,5,4,3,1,H-,1,3,4,0,1000,250.0,3,C35YL,123,train
688.4698867797852,0,2,5,4,3,1,H-,1,4,3,0,1000,250.0,4,C35YL,124,train
624.2239475250244,0,2,5,4,3,1,H-,1,5,2,0,1000,250.0,5,C35YL,125,train
704.8969268798828,0,2,5,4,3,1,H-,1,1,5,0,1000,250.0,1,C35YL,126,train
592.6189422607422,0,2,5,4,3,1,H-,1,0,0,0,1000,250.0,0,C35YL,127,train
992.225170135498,0,2,5,4,3,1,H-,1,3,4,0,1000,250.0,3,C35YL,128,train
961.1167907714844,0,2,5,4,3,1,H-,1,2,1,0,1000,250.0,2,C35YL,129,train
528.4409523010254,0,2,5,4,3,1,H-,1,2,1,0,1000,250.0,2,C35YL,130,train
480.9150695800781,0,2,5,4,3,1,H-,1,4,3,0,1000,250.0,4,C35YL,131,train
576.6100883483887,0,2,5,4,3,1,H-,1,1,5,0,1000,250.0,1,C35YL,132,train
448.9591121673584,0,2,5,4,3,1,H-,1,1,5,0,1000,250.0,1,C35YL,133,train
496.5970516204834,0,2,5,4,3,1,H-,1,4,3,0,1000,250.0,4,C35YL,134,train
592.4351215362549,0,2,5,4,3,1,H-,1,3,4,0,1000,250.0,3,C35YL,135,train
528.5658836364746,0,2,5,4,3,1,H-,1,1,5,0,1000,250.0,1,C35YL,136,train
416.6698455810547,0,2,5,4,3,1,H-,1,4,3,0,1000,250.0,4,C35YL,137,train
672.5430488586426,0,2,5,4,3,1,H-,1,2,1,0,1000,250.0,2,C35YL,138,train
496.4630603790283,0,2,5,4,3,1,H-,1,2,1,0,1000,250.0,2,C35YL,139,train
641.8468952178955,0,2,5,4,3,1,H-,1,0,0,0,1000,250.0,0,C35YL,140,train
720.6540107727051,0,2,5,4,3,1,H-,1,2,1,0,1000,250.0,2,C35YL,141,train
608.8521480560303,0,2,5,4,3,1,H-,1,1,5,0,1000,250.0,1,C35YL,142,train
544.5530414581299,0,2,5,4,3,1,H-,1,4,3,0,1000,250.0,4,C35YL,143,train
544.9259281158447,0,2,5,4,3,1,H-,1,2,1,0,1000,250.0,2,C35YL,144,train
465.8491611480713,0,2,5,4,3,1,H-,1,4,3,0,1000,250.0,4,C35YL,145,train
529.0019512176514,0,2,5,4,3,1,H-,1,1,5,0,1000,250.0,1,C35YL,146,train
544.9278354644775,0,2,5,4,3,1,H-,1,5,2,0,1000,250.0,5,C35YL,147,train
608.5231304168701,0,2,5,4,3,1,H-,1,2,1,0,1000,250.0,2,C35YL,148,train
544.5859432220459,0,2,5,4,3,1,H-,1,2,1,0,1000,250.0,2,C35YL,149,train
592.5459861755371,0,2,5,4,3,1,H-,1,3,4,0,1000,250.0,3,C35YL,150,train
624.8459815979004,0,2,5,4,3,1,H-,1,2,1,0,1000,250.0,2,C35YL,151,train
624.384880065918,0,2,5,4,3,1,H-,1,5,2,0,1000,250.0,5,C35YL,152,train
560.4410171508789,0,2,5,4,3,1,H-,1,5,2,0,1000,250.0,5,C35YL,153,train
496.6311454772949,0,2,5,4,3,1,H-,1,3,4,0,1000,250.0,3,C35YL,154,train
592.5710201263428,0,2,5,4,3,1,H-,1,4,3,0,1000,250.0,4,C35YL,155,train
640.2168273925781,0,2,5,4,3,1,H-,1,5,2,0,1000,250.0,5,C35YL,156,train
560.4028701782227,0,2,5,4,3,1,H-,1,3,4,0,1000,250.0,3,C35YL,157,train
544.8460578918457,0,2,5,4,3,1,H-,1,0,0,0,1000,250.0,0,C35YL,158,train
480.0829887390137,0,2,5,4,3,1,H-,1,4,3,0,1000,250.0,4,C35YL,159,train
480.5409908294678,0,2,5,4,3,1,H-,1,3,4,0,1000,250.0,3,C35YL,160,train
462.054967880249,0,2,5,4,3,1,H-,1,4,3,0,1000,250.0,4,C35YL,161,train
465.1608467102051,0,2,5,4,3,1,H-,1,5,2,0,1000,250.0,5,C35YL,162,train
768.0580615997314,0,2,5,4,3,1,H-,0,1,5,0,1000,250.0,0,C35YL,163,train
704.6949863433838,0,2,5,4,3,1,H-,1,1,5,0,1000,250.0,1,C35YL,164,train
544.6479320526123,0,2,5,4,3,1,H-,1,0,0,0,1000,250.0,0,C35YL,165,train
528.3739566802979,0,2,5,4,3,1,H-,1,2,1,0,1000,250.0,2,C35YL,166,train
512.476921081543,0,2,5,4,3,1,H-,1,5,2,0,1000,250.0,5,C35YL,167,train
480.67522048950195,0,2,5,4,3,1,H-,1,1,5,0,1000,250.0,1,C35YL,168,train
513.0829811096191,0,2,5,4,3,1,H-,1,3,4,0,1000,250.0,3,C35YL,169,train
510.46109199523926,0,2,5,4,3,1,H-,1,5,2,0,1000,250.0,5,C35YL,170,train
528.6428928375244,0,2,5,4,3,1,H-,1,2,1,0,1000,250.0,2,C35YL,171,train
480.53693771362305,0,2,5,4,3,1,H-,1,3,4,0,1000,250.0,3,C35YL,172,train
560.1749420166016,0,2,5,4,3,1,H-,1,0,0,0,1000,250.0,0,C35YL,173,train
463.7279510498047,0,2,5,4,3,1,H-,1,5,2,0,1000,250.0,5,C35YL,174,train
528.9440155029297,0,2,5,4,3,1,H-,1,1,5,0,1000,250.0,1,C35YL,175,train
575.1829147338867,0,2,5,4,3,1,H-,1,0,0,0,1000,250.0,0,C35YL,176,train
513.1039619445801,0,2,5,4,3,1,H-,1,2,1,0,1000,250.0,2,C35YL,177,train
576.4811038970947,0,2,5,4,3,1,H-,1,4,3,0,1000,250.0,4,C35YL,178,train
1136.9128227233887,0,2,5,4,3,1,H-,1,3,4,0,1000,250.0,3,C35YL,179,train
368.3428764343262,0,2,5,4,3,1,H-,1,4,3,0,1000,250.0,4,C35YL,180,train
496.1409568786621,0,2,5,4,3,1,H-,1,2,1,0,1000,250.0,2,C35YL,181,train
512.6910209655762,0,2,5,4,3,1,H-,1,0,0,0,1000,250.0,0,C35YL,182,train
528.4268856048584,0,2,5,4,3,1,H-,1,2,1,0,1000,250.0,2,C35YL,183,train
480.37099838256836,0,2,5,4,3,1,H-,1,2,1,0,1000,250.0,2,C35YL,184,train
513.1950378417969,0,2,5,4,3,1,H-,1,5,2,0,1000,250.0,5,C35YL,185,train
574.7458934783936,0,2,5,4,3,1,H-,1,1,5,0,1000,250.0,1,C35YL,186,train
382.46989250183105,0,2,5,4,3,1,H-,1,1,5,0,1000,250.0,1,C35YL,187,train
368.419885635376,0,2,5,4,3,1,H-,1,1,5,0,1000,250.0,1,C35YL,188,train
544.75998878479,0,2,5,4,3,1,H-,1,0,0,0,1000,250.0,0,C35YL,189,train
448.6880302429199,0,2,5,4,3,1,H-,1,4,3,0,1000,250.0,4,C35YL,190,train
496.3951110839844,0,2,5,4,3,1,H-,1,4,3,0,1000,250.0,4,C35YL,191,train
512.0680332183838,0,2,5,4,3,1,H-,1,2,1,0,1000,250.0,2,C35YL,192,train
495.69201469421387,0,2,5,4,3,1,H-,1,3,4,0,1000,250.0,3,C35YL,193,train
512.732982635498,0,2,5,4,3,1,H-,1,2,1,0,1000,250.0,2,C35YL,194,train
416.1350727081299,0,2,5,4,3,1,H-,1,4,3,0,1000,250.0,4,C35YL,195,train
384.58800315856934,0,2,5,4,3,1,H-,0,1,5,0,1000,250.0,2,C35YL,196,train
544.503927230835,0,2,5,4,3,1,H-,1,2,1,0,1000,250.0,2,C35YL,197,train
480.8509349822998,0,2,5,4,3,1,H-,1,3,4,0,1000,250.0,3,C35YL,198,train
415.46010971069336,0,2,5,4,3,1,H-,1,4,3,0,1000,250.0,4,C35YL,199,train
400.4509449005127,0,2,5,4,3,1,H-,1,2,1,0,1000,250.0,2,C35YL,200,train
496.51122093200684,0,2,5,4,3,1,H-,1,2,1,0,1000,250.0,2,C35YL,201,train
477.7188301086426,0,2,5,4,3,1,H-,1,5,2,0,1000,250.0,5,C35YL,202,train
480.58390617370605,0,2,5,4,3,1,H-,1,3,4,0,1000,250.0,3,C35YL,203,train
561.0311031341553,0,2,5,4,3,1,H-,1,5,2,0,1000,250.0,5,C35YL,204,train
624.9938011169434,0,2,5,4,3,1,H-,1,1,5,0,1000,250.0,1,C35YL,205,train
577.0359039306641,0,2,5,4,3,1,H-,1,2,1,0,1000,250.0,2,C35YL,206,train
496.54483795166016,0,2,5,4,3,1,H-,1,3,4,0,1000,250.0,3,C35YL,207,train
545.1951026916504,0,2,5,4,3,1,H-,1,0,0,0,1000,250.0,0,C35YL,208,train
1088.7207984924316,0,2,5,4,3,1,H-,1,0,0,0,1000,250.0,0,C35YL,209,train
513.2222175598145,0,2,5,4,3,1,H-,1,5,2,0,1000,250.0,5,C35YL,210,train
416.3548946380615,0,2,5,4,3,1,H-,1,5,2,0,1000,250.0,5,C35YL,211,train
481.0190200805664,0,2,5,4,3,1,H-,1,3,4,0,1000,250.0,3,C35YL,212,train
512.444019317627,0,2,5,4,3,1,H-,1,1,5,0,1000,250.0,1,C35YL,213,train
464.58888053894043,0,2,5,4,3,1,H-,1,4,3,0,1000,250.0,4,C35YL,214,train
528.8050174713135,0,2,5,4,3,1,H-,1,0,0,0,1000,250.0,0,C35YL,215,train
558.7329864501953,0,2,5,4,3,1,H-,0,3,4,0,1000,250.0,2,C35YL,216,train
400.67195892333984,0,2,5,4,3,1,H-,1,3,4,0,1000,250.0,3,C35YL,217,train
494.63391304016113,0,2,5,4,3,1,H-,1,2,1,0,1000,250.0,2,C35YL,218,train
497.0841407775879,0,2,5,4,3,1,H-,1,5,2,0,1000,250.0,5,C35YL,219,train
416.2468910217285,0,2,5,4,3,1,H-,1,4,3,0,1000,250.0,4,C35YL,220,train
400.20012855529785,0,2,5,4,3,1,H-,1,1,5,0,1000,250.0,1,C35YL,221,train
512.3229026794434,0,2,5,4,3,1,H-,1,0,0,0,1000,250.0,0,C35YL,222,train
512.2580528259277,0,2,5,4,3,1,H-,1,2,1,0,1000,250.0,2,C35YL,223,train
449.07402992248535,0,2,5,4,3,1,H-,1,3,4,0,1000,250.0,3,C35YL,224,train
544.2860126495361,0,2,5,4,3,1,H-,1,4,3,0,1000,250.0,4,C35YL,225,train
352.9529571533203,0,2,5,4,3,1,H-,1,1,5,0,1000,250.0,1,C35YL,226,train
384.5329284667969,0,2,5,4,3,1,H-,1,4,3,0,1000,250.0,4,C35YL,227,train
352.4620532989502,0,2,5,4,3,1,H-,1,4,3,0,1000,250.0,4,C35YL,228,train
480.32093048095703,0,2,5,4,3,1,H-,1,5,2,0,1000,250.0,5,C35YL,229,train
433.1681728363037,0,2,5,4,3,1,H-,1,2,1,0,1000,250.0,2,C35YL,230,train
320.29199600219727,0,2,5,4,3,1,H-,1,4,3,0,1000,250.0,4,C35YL,231,train
448.6119747161865,0,2,5,4,3,1,H-,1,3,4,0,1000,250.0,3,C35YL,232,train
369.0030574798584,0,2,5,4,3,1,H-,1,4,3,0,1000,250.0,4,C35YL,233,train
496.6108798980713,0,2,5,4,3,1,H-,1,5,2,0,1000,250.0,5,C35YL,234,train
384.2339515686035,0,2,5,4,3,1,H-,1,5,2,0,1000,250.0,5,C35YL,235,train
561.1109733581543,0,2,5,4,3,1,H-,1,1,5,0,1000,250.0,1,C35YL,236,train
528.8708209991455,0,2,5,4,3,1,H-,0,2,1,0,1000,250.0,3,C35YL,237,train
496.46997451782227,0,2,5,4,3,1,H-,1,1,5,0,1000,250.0,1,C35YL,238,train
512.5269889831543,0,2,5,4,3,1,H-,1,3,4,0,1000,250.0,3,C35YL,239,train
336.55810356140137,0,2,5,4,3,1,H-,1,4,3,0,1000,250.0,4,C35YL,240,train
494.66705322265625,0,2,5,4,3,1,H-,1,3,4,0,1000,250.0,3,C35YL,241,train
320.9660053253174,0,2,5,4,3,1,H-,1,1,5,0,1000,250.0,1,C35YL,242,train
464.30110931396484,0,2,5,4,3,1,H-,1,5,2,0,1000,250.0,5,C35YL,243,train
480.56697845458984,0,2,5,4,3,1,H-,1,5,2,0,1000,250.0,5,C35YL,244,train
464.38002586364746,0,2,5,4,3,1,H-,1,5,2,0,1000,250.0,5,C35YL,245,train
400.2881050109863,0,2,5,4,3,1,H-,1,1,5,0,1000,250.0,1,C35YL,246,train
592.0379161834717,0,2,5,4,3,1,H-,1,0,0,0,1000,250.0,0,C35YL,247,train
448.8348960876465,0,2,5,4,3,1,H-,1,5,2,0,1000,250.0,5,C35YL,248,train
448.9891529083252,0,2,5,4,3,1,H-,1,0,0,0,1000,250.0,0,C35YL,249,train
1200.9642124176025,2,5,4,0,3,1,H-,1,0,3,0,1000,250.0,0,C35YL,250,test
1408.9069366455078,2,5,4,0,3,1,H-,1,5,1,0,1000,250.0,5,C35YL,251,test
529.3729305267334,2,5,4,0,3,1,H-,1,5,1,0,1000,250.0,5,C35YL,252,test
496.5050220489502,2,5,4,0,3,1,H-,1,1,5,0,1000,250.0,1,C35YL,253,test
512.3839378356934,2,5,4,0,3,1,H-,1,0,3,0,1000,250.0,0,C35YL,254,test
784.3821048736572,2,5,4,0,3,1,H-,1,3,4,0,1000,250.0,3,C35YL,255,test
767.8868770599365,2,5,4,0,3,1,H-,0,2,0,0,1000,250.0,1,C35YL,256,test
577.0871639251709,2,5,4,0,3,1,H-,1,5,1,0,1000,250.0,5,C35YL,257,test
496.6309070587158,2,5,4,0,3,1,H-,1,5,1,0,1000,250.0,5,C35YL,258,test
641.1700248718262,2,5,4,0,3,1,H-,1,2,0,0,1000,250.0,2,C35YL,259,test
736.6468906402588,2,5,4,0,3,1,H-,1,4,2,0,1000,250.0,4,C35YL,260,test
624.4678497314453,2,5,4,0,3,1,H-,1,2,0,0,1000,250.0,2,C35YL,261,test
1216.5710926055908,2,5,4,0,3,1,H-,1,5,1,0,1000,250.0,5,C35YL,262,test
672.7559566497803,2,5,4,0,3,1,H-,1,1,5,0,1000,250.0,1,C35YL,263,test
752.8889179229736,2,5,4,0,3,1,H-,1,0,3,0,1000,250.0,0,C35YL,264,test
704.8959732055664,2,5,4,0,3,1,H-,1,2,0,0,1000,250.0,2,C35YL,265,test
624.4239807128906,2,5,4,0,3,1,H-,1,1,5,0,1000,250.0,1,C35YL,266,test
896.3840007781982,2,5,4,0,3,1,H-,1,3,4,0,1000,250.0,3,C35YL,267,test
1040.9951210021973,2,5,4,0,3,1,H-,1,0,3,0,1000,250.0,0,C35YL,268,test
672.0471382141113,2,5,4,0,3,1,H-,0,4,2,0,1000,250.0,5,C35YL,269,test
704.582929611206,2,5,4,0,3,1,H-,1,1,5,0,1000,250.0,1,C35YL,270,test
496.5238571166992,2,5,4,0,3,1,H-,1,1,5,0,1000,250.0,1,C35YL,271,test
624.2740154266357,2,5,4,0,3,1,H-,1,2,0,0,1000,250.0,2,C35YL,272,test
624.9010562896729,2,5,4,0,3,1,H-,1,4,2,0,1000,250.0,4,C35YL,273,test
720.1850414276123,2,5,4,0,3,1,H-,1,2,0,0,1000,250.0,2,C35YL,274,test
704.2989730834961,2,5,4,0,3,1,H-,1,4,2,0,1000,250.0,4,C35YL,275,test
560.8720779418945,2,5,4,0,3,1,H-,1,4,2,0,1000,250.0,4,C35YL,276,test
576.3659477233887,2,5,4,0,3,1,H-,1,2,0,0,1000,250.0,2,C35YL,277,test
544.2519187927246,2,5,4,0,3,1,H-,1,4,2,0,1000,250.0,4,C35YL,278,test
528.9599895477295,2,5,4,0,3,1,H-,1,3,4,0,1000,250.0,3,C35YL,279,test
528.4531116485596,2,5,4,0,3,1,H-,1,1,5,0,1000,250.0,1,C35YL,280,test
513.0300521850586,2,5,4,0,3,1,H-,1,1,5,0,1000,250.0,1,C35YL,281,test
577.1570205688477,2,5,4,0,3,1,H-,0,4,2,0,1000,250.0,5,C35YL,282,test
592.3848152160645,2,5,4,0,3,1,H-,1,3,4,0,1000,250.0,3,C35YL,283,test
656.296968460083,2,5,4,0,3,1,H-,1,5,1,0,1000,250.0,5,C35YL,284,test
624.4089603424072,2,5,4,0,3,1,H-,1,2,0,0,1000,250.0,2,C35YL,285,test
2768.65291595459,2,5,4,0,3,1,H-,1,4,2,0,1000,250.0,4,C35YL,286,test
638.6301517486572,2,5,4,0,3,1,H-,1,2,0,0,1000,250.0,2,C35YL,287,test
608.9239120483398,2,5,4,0,3,1,H-,1,4,2,0,1000,250.0,4,C35YL,288,test
720.4151153564453,2,5,4,0,3,1,H-,1,0,3,0,1000,250.0,0,C35YL,289,test
592.9610729217529,2,5,4,0,3,1,H-,1,3,4,0,1000,250.0,3,C35YL,290,test
496.9789981842041,2,5,4,0,3,1,H-,1,0,3,0,1000,250.0,0,C35YL,291,test
448.9169120788574,2,5,4,0,3,1,H-,1,1,5,0,1000,250.0,1,C35YL,292,test
448.8258361816406,2,5,4,0,3,1,H-,1,1,5,0,1000,250.0,1,C35YL,293,test
641.1588191986084,2,5,4,0,3,1,H-,1,4,2,0,1000,250.0,4,C35YL,294,test
478.6210060119629,2,5,4,0,3,1,H-,1,4,2,0,1000,250.0,4,C35YL,295,test
608.1089973449707,2,5,4,0,3,1,H-,1,2,0,0,1000,250.0,2,C35YL,296,test
592.3030376434326,2,5,4,0,3,1,H-,1,0,3,0,1000,250.0,0,C35YL,297,test
512.6597881317139,2,5,4,0,3,1,H-,1,1,5,0,1000,250.0,1,C35YL,298,test
528.601884841919,2,5,4,0,3,1,H-,1,0,3,0,1000,250.0,0,C35YL,299,test
1121.1211681365967,2,5,4,0,3,1,H-,1,4,2,0,1000,250.0,4,C35YL,300,test
576.6220092773438,2,5,4,0,3,1,H-,1,5,1,0,1000,250.0,5,C35YL,301,test
526.7720222473145,2,5,4,0,3,1,H-,1,0,3,0,1000,250.0,0,C35YL,302,test
640.3110027313232,2,5,4,0,3,1,H-,1,5,1,0,1000,250.0,5,C35YL,303,test
417.01412200927734,2,5,4,0,3,1,H-,1,5,1,0,1000,250.0,5,C35YL,304,test
464.832067489624,2,5,4,0,3,1,H-,1,1,5,0,1000,250.0,1,C35YL,305,test
446.6710090637207,2,5,4,0,3,1,H-,1,0,3,0,1000,250.0,0,C35YL,306,test
529.1311740875244,2,5,4,0,3,1,H-,1,1,5,0,1000,250.0,1,C35YL,307,test
400.4969596862793,2,5,4,0,3,1,H-,0,0,3,0,1000,250.0,1,C35YL,308,test
576.3280391693115,2,5,4,0,3,1,H-,1,2,0,0,1000,250.0,2,C35YL,309,test
464.57409858703613,2,5,4,0,3,1,H-,1,2,0,0,1000,250.0,2,C35YL,310,test
801.292896270752,2,5,4,0,3,1,H-,1,4,2,0,1000,250.0,4,C35YL,311,test
496.4570999145508,2,5,4,0,3,1,H-,1,2,0,0,1000,250.0,2,C35YL,312,test
640.2020454406738,2,5,4,0,3,1,H-,0,1,5,0,1000,250.0,0,C35YL,313,test
561.0260963439941,2,5,4,0,3,1,H-,1,2,0,0,1000,250.0,2,C35YL,314,test
464.45202827453613,2,5,4,0,3,1,H-,1,2,0,0,1000,250.0,2,C35YL,315,test
608.5569858551025,2,5,4,0,3,1,H-,1,4,2,0,1000,250.0,4,C35YL,316,test
497.0250129699707,2,5,4,0,3,1,H-,1,2,0,0,1000,250.0,2,C35YL,317,test
672.2910404205322,2,5,4,0,3,1,H-,1,1,5,0,1000,250.0,1,C35YL,318,test
704.3991088867188,2,5,4,0,3,1,H-,1,2,0,0,1000,250.0,2,C35YL,319,test
640.9730911254883,2,5,4,0,3,1,H-,1,1,5,0,1000,250.0,1,C35YL,320,test
1200.5760669708252,2,5,4,0,3,1,H-,1,2,0,0,1000,250.0,2,C35YL,321,test
512.6621723175049,2,5,4,0,3,1,H-,1,4,2,0,1000,250.0,4,C35YL,322,test
512.470006942749,2,5,4,0,3,1,H-,1,2,0,0,1000,250.0,2,C35YL,323,test
480.8530807495117,2,5,4,0,3,1,H-,1,3,4,0,1000,250.0,3,C35YL,324,test
544.5389747619629,2,5,4,0,3,1,H-,0,0,3,0,1000,250.0,1,C35YL,325,test
529.0210247039795,2,5,4,0,3,1,H-,1,3,4,0,1000,250.0,3,C35YL,326,test
608.6559295654297,2,5,4,0,3,1,H-,1,4,2,0,1000,250.0,4,C35YL,327,test
576.2500762939453,2,5,4,0,3,1,H-,1,0,3,0,1000,250.0,0,C35YL,328,test
480.6489944458008,2,5,4,0,3,1,H-,1,0,3,0,1000,250.0,0,C35YL,329,test
639.4820213317871,2,5,4,0,3,1,H-,1,4,2,0,1000,250.0,4,C35YL,330,test
560.9490871429443,2,5,4,0,3,1,H-,1,0,3,0,1000,250.0,0,C35YL,331,test
496.87695503234863,2,5,4,0,3,1,H-,1,3,4,0,1000,250.0,3,C35YL,332,test
897.0680236816406,2,5,4,0,3,1,H-,1,4,2,0,1000,250.0,4,C35YL,333,test
608.5479259490967,2,5,4,0,3,1,H-,1,3,4,0,1000,250.0,3,C35YL,334,test
832.4489593505859,2,5,4,0,3,1,H-,1,5,1,0,1000,250.0,5,C35YL,335,test
512.7830505371094,2,5,4,0,3,1,H-,1,2,0,0,1000,250.0,2,C35YL,336,test
640.6998634338379,2,5,4,0,3,1,H-,1,5,1,0,1000,250.0,5,C35YL,337,test
576.9610404968262,2,5,4,0,3,1,H-,1,4,2,0,1000,250.0,4,C35YL,338,test
544.8050498962402,2,5,4,0,3,1,H-,1,2,0,0,1000,250.0,2,C35YL,339,test
448.7740993499756,2,5,4,0,3,1,H-,1,3,4,0,1000,250.0,3,C35YL,340,test
513.0729675292969,2,5,4,0,3,1,H-,1,2,0,0,1000,250.0,2,C35YL,341,test
448.6050605773926,2,5,4,0,3,1,H-,1,3,4,0,1000,250.0,3,C35YL,342,test
417.1450138092041,2,5,4,0,3,1,H-,0,2,0,0,1000,250.0,3,C35YL,343,test
656.9740772247314,2,5,4,0,3,1,H-,1,1,5,0,1000,250.0,1,C35YL,344,test
480.75413703918457,2,5,4,0,3,1,H-,1,3,4,0,1000,250.0,3,C35YL,345,test
625.0190734863281,2,5,4,0,3,1,H-,1,0,3,0,1000,250.0,0,C35YL,346,test
784.714937210083,2,5,4,0,3,1,H-,1,0,3,0,1000,250.0,0,C35YL,347,test
512.4509334564209,2,5,4,0,3,1,H-,1,2,0,0,1000,250.0,2,C35YL,348,test
513.0190849304199,2,5,4,0,3,1,H-,1,1,5,0,1000,250.0,1,C35YL,349,test
481.0309410095215,2,5,4,0,3,1,H-,1,3,4,0,1000,250.0,3,C35YL,350,test
640.6419277191162,2,5,4,0,3,1,H-,1,2,0,0,1000,250.0,2,C35YL,351,test
1104.1960716247559,2,5,4,0,3,1,H-,1,4,2,0,1000,250.0,4,C35YL,352,test
513.0100250244141,2,5,4,0,3,1,H-,1,3,4,0,1000,250.0,3,C35YL,353,test
624.9840259552002,2,5,4,0,3,1,H-,1,2,0,0,1000,250.0,2,C35YL,354,test
481.0161590576172,2,5,4,0,3,1,H-,1,2,0,0,1000,250.0,2,C35YL,355,test
496.77395820617676,2,5,4,0,3,1,H-,1,5,1,0,1000,250.0,5,C35YL,356,test
513.098955154419,2,5,4,0,3,1,H-,1,1,5,0,1000,250.0,1,C35YL,357,test
416.64600372314453,2,5,4,0,3,1,H-,0,3,4,0,1000,250.0,2,C35YL,358,test
656.9809913635254,2,5,4,0,3,1,H-,1,1,5,0,1000,250.0,1,C35YL,359,test
688.9908313751221,2,5,4,0,3,1,H-,1,4,2,0,1000,250.0,4,C35YL,360,test
577.0211219787598,2,5,4,0,3,1,H-,1,5,1,0,1000,250.0,5,C35YL,361,test
480.61299324035645,2,5,4,0,3,1,H-,1,1,5,0,1000,250.0,1,C35YL,362,test
592.8421020507812,2,5,4,0,3,1,H-,1,0,3,0,1000,250.0,0,C35YL,363,test
496.86694145202637,2,5,4,0,3,1,H-,1,2,0,0,1000,250.0,2,C35YL,364,test
544.9831485748291,2,5,4,0,3,1,H-,1,1,5,0,1000,250.0,1,C35YL,365,test
480.816125869751,2,5,4,0,3,1,H-,1,0,3,0,1000,250.0,0,C35YL,366,test
527.3518562316895,2,5,4,0,3,1,H-,1,1,5,0,1000,250.0,1,C35YL,367,test
432.1610927581787,2,5,4,0,3,1,H-,1,1,5,0,1000,250.0,1,C35YL,368,test
529.0138721466064,2,5,4,0,3,1,H-,1,5,1,0,1000,250.0,5,C35YL,369,test
561.0489845275879,2,5,4,0,3,1,H-,1,1,5,0,1000,250.0,1,C35YL,370,test
510.5621814727783,2,5,4,0,3,1,H-,1,5,1,0,1000,250.0,5,C35YL,371,test
623.8138675689697,2,5,4,0,3,1,H-,1,4,2,0,1000,250.0,4,C35YL,372,test
476.7591953277588,2,5,4,0,3,1,H-,1,4,2,0,1000,250.0,4,C35YL,373,test
464.709997177124,2,5,4,0,3,1,H-,1,2,0,0,1000,250.0,2,C35YL,374,test
480.8070659637451,2,5,4,0,3,1,H-,0,0,3,0,1000,250.0,1,C35YL,375,test
574.8529434204102,2,5,4,0,3,1,H-,1,0,3,0,1000,250.0,0,C35YL,376,test
416.827917098999,2,5,4,0,3,1,H-,1,1,5,0,1000,250.0,1,C35YL,377,test
496.3409900665283,2,5,4,0,3,1,H-,1,2,0,0,1000,250.0,2,C35YL,378,test
368.6408996582031,2,5,4,0,3,1,H-,1,2,0,0,1000,250.0,2,C35YL,379,test
416.90516471862793,2,5,4,0,3,1,H-,1,3,4,0,1000,250.0,3,C35YL,380,test
447.7250576019287,2,5,4,0,3,1,H-,1,2,0,0,1000,250.0,2,C35YL,381,test
609.5559597015381,2,5,4,0,3,1,H-,0,4,2,0,1000,250.0,5,C35YL,382,test
449.19681549072266,2,5,4,0,3,1,H-,1,2,0,0,1000,250.0,2,C35YL,383,test
384.99999046325684,2,5,4,0,3,1,H-,1,2,0,0,1000,250.0,2,C35YL,384,test
416.9631004333496,2,5,4,0,3,1,H-,0,0,3,0,1000,250.0,4,C35YL,385,test
496.8428611755371,2,5,4,0,3,1,H-,1,1,5,0,1000,250.0,1,C35YL,386,test
481.0059070587158,2,5,4,0,3,1,H-,0,2,0,0,1000,250.0,1,C35YL,387,test
529.1831493377686,2,5,4,0,3,1,H-,1,0,3,0,1000,250.0,0,C35YL,388,test
800.2369403839111,2,5,4,0,3,1,H-,1,4,2,0,1000,250.0,4,C35YL,389,test
369.14706230163574,2,5,4,0,3,1,H-,1,4,2,0,1000,250.0,4,C35YL,390,test
608.9019775390625,2,5,4,0,3,1,H-,1,0,3,0,1000,250.0,0,C35YL,391,test
368.82710456848145,2,5,4,0,3,1,H-,1,0,3,0,1000,250.0,0,C35YL,392,test
703.4890651702881,2,5,4,0,3,1,H-,1,5,1,0,1000,250.0,5,C35YL,393,test
480.4720878601074,2,5,4,0,3,1,H-,1,0,3,0,1000,250.0,0,C35YL,394,test
401.0481834411621,2,5,4,0,3,1,H-,1,1,5,0,1000,250.0,1,C35YL,395,test
433.00604820251465,2,5,4,0,3,1,H-,0,5,1,0,1000,250.0,2,C35YL,396,test
672.5490093231201,2,5,4,0,3,1,H-,1,5,1,0,1000,250.0,5,C35YL,397,test
544.4130897521973,2,5,4,0,3,1,H-,1,0,3,0,1000,250.0,0,C35YL,398,test
449.0630626678467,2,5,4,0,3,1,H-,1,0,3,0,1000,250.0,0,C35YL,399,test
416.65101051330566,2,5,4,0,3,1,H-,1,2,0,0,1000,250.0,2,C35YL,400,test
545.0539588928223,2,5,4,0,3,1,H-,1,4,2,0,1000,250.0,4,C35YL,401,test
640.9058570861816,2,5,4,0,3,1,H-,1,5,1,0,1000,250.0,5,C35YL,402,test
560.9750747680664,2,5,4,0,3,1,H-,1,1,5,0,1000,250.0,1,C35YL,403,test
432.89899826049805,2,5,4,0,3,1,H-,1,5,1,0,1000,250.0,5,C35YL,404,test
512.6490592956543,2,5,4,0,3,1,H-,1,4,2,0,1000,250.0,4,C35YL,405,test
512.6540660858154,2,5,4,0,3,1,H-,1,3,4,0,1000,250.0,3,C35YL,406,test
512.9389762878418,2,5,4,0,3,1,H-,1,0,3,0,1000,250.0,0,C35YL,407,test
465.0850296020508,2,5,4,0,3,1,H-,1,3,4,0,1000,250.0,3,C35YL,408,test
528.8600921630859,2,5,4,0,3,1,H-,1,5,1,0,1000,250.0,5,C35YL,409,test
449.10407066345215,2,5,4,0,3,1,H-,1,2,0,0,1000,250.0,2,C35YL,410,test
545.0220108032227,2,5,4,0,3,1,H-,0,2,0,0,1000,250.0,3,C35YL,411,test
544.94309425354,2,5,4,0,3,1,H-,1,3,4,0,1000,250.0,3,C35YL,412,test
560.7218742370605,2,5,4,0,3,1,H-,1,5,1,0,1000,250.0,5,C35YL,413,test
480.9091091156006,2,5,4,0,3,1,H-,1,2,0,0,1000,250.0,2,C35YL,414,test
577.0800113677979,2,5,4,0,3,1,H-,1,0,3,0,1000,250.0,0,C35YL,415,test
464.86592292785645,2,5,4,0,3,1,H-,1,5,1,0,1000,250.0,5,C35YL,416,test
881.1368942260742,2,5,4,0,3,1,H-,1,1,5,0,1000,250.0,1,C35YL,417,test
496.03986740112305,2,5,4,0,3,1,H-,1,5,1,0,1000,250.0,5,C35YL,418,test
833.0478668212891,2,5,4,0,3,1,H-,1,5,1,0,1000,250.0,5,C35YL,419,test
496.9208240509033,2,5,4,0,3,1,H-,1,3,4,0,1000,250.0,3,C35YL,420,test
497.15209007263184,2,5,4,0,3,1,H-,1,0,3,0,1000,250.0,0,C35YL,421,test
448.915958404541,2,5,4,0,3,1,H-,1,1,5,0,1000,250.0,1,C35YL,422,test
464.90001678466797,2,5,4,0,3,1,H-,0,4,2,0,1000,250.0,5,C35YL,423,test
529.0970802307129,2,5,4,0,3,1,H-,1,0,3,0,1000,250.0,0,C35YL,424,test
464.9388790130615,2,5,4,0,3,1,H-,1,1,5,0,1000,250.0,1,C35YL,425,test
529.0849208831787,2,5,4,0,3,1,H-,0,4,2,0,1000,250.0,5,C35YL,426,test
512.8250122070312,2,5,4,0,3,1,H-,1,0,3,0,1000,250.0,0,C35YL,427,test
512.8700733184814,2,5,4,0,3,1,H-,1,3,4,0,1000,250.0,3,C35YL,428,test
513.0670070648193,2,5,4,0,3,1,H-,0,2,0,0,1000,250.0,1,C35YL,429,test
544.7750091552734,2,5,4,0,3,1,H-,1,3,4,0,1000,250.0,3,C35YL,430,test
720.9479808807373,2,5,4,0,3,1,H-,1,1,5,0,1000,250.0,1,C35YL,431,test
704.9179077148438,2,5,4,0,3,1,H-,1,5,1,0,1000,250.0,5,C35YL,432,test
496.9170093536377,2,5,4,0,3,1,H-,1,3,4,0,1000,250.0,3,C35YL,433,test
544.9800491333008,2,5,4,0,3,1,H-,1,2,0,0,1000,250.0,2,C35YL,434,test
497.15113639831543,2,5,4,0,3,1,H-,0,4,2,0,1000,250.0,5,C35YL,435,test
512.991189956665,2,5,4,0,3,1,H-,1,3,4,0,1000,250.0,3,C35YL,436,test
641.0388946533203,2,5,4,0,3,1,H-,0,0,3,0,1000,250.0,1,C35YL,437,test
608.9169979095459,2,5,4,0,3,1,H-,1,0,3,0,1000,250.0,0,C35YL,438,test
448.9889144897461,2,5,4,0,3,1,H-,1,2,0,0,1000,250.0,2,C35YL,439,test
624.514102935791,2,5,4,0,3,1,H-,1,4,2,0,1000,250.0,4,C35YL,440,test
513.2908821105957,2,5,4,0,3,1,H-,1,3,4,0,1000,250.0,3,C35YL,441,test
576.2619972229004,2,5,4,0,3,1,H-,1,0,3,0,1000,250.0,0,C35YL,442,test
464.92695808410645,2,5,4,0,3,1,H-,1,1,5,0,1000,250.0,1,C35YL,443,test
432.94215202331543,2,5,4,0,3,1,H-,1,1,5,0,1000,250.0,1,C35YL,444,test
544.7030067443848,2,5,4,0,3,1,H-,1,3,4,0,1000,250.0,3,C35YL,445,test
544.9600219726562,2,5,4,0,3,1,H-,1,5,1,0,1000,250.0,5,C35YL,446,test
400.7899761199951,2,5,4,0,3,1,H-,1,5,1,0,1000,250.0,5,C35YL,447,test
513.0860805511475,2,5,4,0,3,1,H-,1,2,0,0,1000,250.0,2,C35YL,448,test
528.8748741149902,2,5,4,0,3,1,H-,1,5,1,0,1000,250.0,5,C35YL,449,test
494.7078227996826,2,5,4,0,3,1,H-,1,4,2,0,1000,250.0,4,C35YL,450,test
609.0700626373291,2,5,4,0,3,1,H-,1,0,3,0,1000,250.0,0,C35YL,451,test
528.9149284362793,2,5,4,0,3,1,H-,1,4,2,0,1000,250.0,4,C35YL,452,test
401.1340141296387,2,5,4,0,3,1,H-,0,0,3,0,1000,250.0,4,C35YL,453,test
593.005895614624,2,5,4,0,3,1,H-,1,0,3,0,1000,250.0,0,C35YL,454,test
752.8488636016846,2,5,4,0,3,1,H-,1,4,2,0,1000,250.0,4,C35YL,455,test
545.0961589813232,2,5,4,0,3,1,H-,0,3,4,0,1000,250.0,2,C35YL,456,test
1041.0759449005127,2,5,4,0,3,1,H-,1,4,2,0,1000,250.0,4,C35YL,457,test
496.9911575317383,2,5,4,0,3,1,H-,1,5,1,0,1000,250.0,5,C35YL,458,test
624.7708797454834,2,5,4,0,3,1,H-,1,2,0,0,1000,250.0,2,C35YL,459,test
497.1339702606201,2,5,4,0,3,1,H-,1,3,4,0,1000,250.0,3,C35YL,460,test
448.991060256958,2,5,4,0,3,1,H-,1,5,1,0,1000,250.0,5,C35YL,461,test
512.9828453063965,2,5,4,0,3,1,H-,1,0,3,0,1000,250.0,0,C35YL,462,test
462.80598640441895,2,5,4,0,3,1,H-,1,5,1,0,1000,250.0,5,C35YL,463,test
512.8860473632812,2,5,4,0,3,1,H-,1,2,0,0,1000,250.0,2,C35YL,464,test
449.1009712219238,2,5,4,0,3,1,H-,0,3,4,0,1000,250.0,2,C35YL,465,test
608.8941097259521,2,5,4,0,3,1,H-,1,2,0,0,1000,250.0,2,C35YL,466,test
689.1820430755615,2,5,4,0,3,1,H-,1,4,2,0,1000,250.0,4,C35YL,467,test
497.1270561218262,2,5,4,0,3,1,H-,1,2,0,0,1000,250.0,2,C35YL,468,test
416.8360233306885,2,5,4,0,3,1,H-,1,2,0,0,1000,250.0,2,C35YL,469,test
561.0229969024658,2,5,4,0,3,1,H-,1,0,3,0,1000,250.0,0,C35YL,470,test
465.0149345397949,2,5,4,0,3,1,H-,1,5,1,0,1000,250.0,5,C35YL,471,test
561.1679553985596,2,5,4,0,3,1,H-,1,3,4,0,1000,250.0,3,C35YL,472,test
543.0500507354736,2,5,4,0,3,1,H-,1,4,2,0,1000,250.0,4,C35YL,473,test
496.97017669677734,2,5,4,0,3,1,H-,1,5,1,0,1000,250.0,5,C35YL,474,test
656.9879055023193,2,5,4,0,3,1,H-,1,2,0,0,1000,250.0,2,C35YL,475,test
641.0050392150879,2,5,4,0,3,1,H-,1,2,0,0,1000,250.0,2,C35YL,476,test
1201.1139392852783,2,5,4,0,3,1,H-,1,1,5,0,1000,250.0,1,C35YL,477,test
512.8719806671143,2,5,4,0,3,1,H-,1,5,1,0,1000,250.0,5,C35YL,478,test
448.43482971191406,2,5,4,0,3,1,H-,1,5,1,0,1000,250.0,5,C35YL,479,test
801.0959625244141,2,5,4,0,3,1,H-,1,2,0,0,1000,250.0,2,C35YL,480,test
513.1089687347412,2,5,4,0,3,1,H-,1,5,1,0,1000,250.0,5,C35YL,481,test
657.1400165557861,2,5,4,0,3,1,H-,1,4,2,0,1000,250.0,4,C35YL,482,test
545.1068878173828,2,5,4,0,3,1,H-,1,5,1,0,1000,250.0,5,C35YL,483,test
465.22021293640137,2,5,4,0,3,1,H-,0,3,4,0,1000,250.0,2,C35YL,484,test
608.9489459991455,2,5,4,0,3,1,H-,1,4,2,0,1000,250.0,4,C35YL,485,test
465.03400802612305,2,5,4,0,3,1,H-,1,5,1,0,1000,250.0,5,C35YL,486,test
430.65500259399414,2,5,4,0,3,1,H-,1,5,1,0,1000,250.0,5,C35YL,487,test
481.10294342041016,2,5,4,0,3,1,H-,1,2,0,0,1000,250.0,2,C35YL,488,test
657.1869850158691,2,5,4,0,3,1,H-,1,2,0,0,1000,250.0,2,C35YL,489,test
511.6610527038574,2,5,4,0,3,1,H-,1,5,1,0,1000,250.0,5,C35YL,490,test
719.4900512695312,2,5,4,0,3,1,H-,1,1,5,0,1000,250.0,1,C35YL,491,test
593.5139656066895,2,5,4,0,3,1,H-,0,2,0,0,1000,250.0,3,C35YL,492,test
513.1168365478516,2,5,4,0,3,1,H-,0,0,3,0,1000,250.0,3,C35YL,493,test
497.17092514038086,2,5,4,0,3,1,H-,1,1,5,0,1000,250.0,1,C35YL,494,test
544.8980331420898,2,5,4,0,3,1,H-,1,2,0,0,1000,250.0,2,C35YL,495,test
497.01714515686035,2,5,4,0,3,1,H-,1,3,4,0,1000,250.0,3,C35YL,496,test
529.0069580078125,2,5,4,0,3,1,H-,1,2,0,0,1000,250.0,2,C35YL,497,test
529.2308330535889,2,5,4,0,3,1,H-,1,5,1,0,1000,250.0,5,C35YL,498,test
673.1381416320801,2,5,4,0,3,1,H-,1,1,5,0,1000,250.0,1,C35YL,499,test
