RT,SRmap_0,SRmap_1,SRmap_2,SRmap_3,SRmap_4,SRmap_5,condition,correct,correct_response,curstim,ms-precue,ms-prestimblank,ntrials,response,subject,trial,type
10192.150831222534,0,4,1,5,2,3,H+,1,3,5,0,1000,250.0,3,c04rh,0,train
5440.982103347778,0,4,1,5,2,3,H+,1,4,1,0,1000,250.0,4,c04rh,1,train
2288.5119915008545,0,4,1,5,2,3,H+,1,3,5,0,1000,250.0,3,c04rh,2,train
5040.79008102417,0,4,1,5,2,3,H+,1,2,4,0,1000,250.0,2,c04rh,3,train
5712.551832199097,0,4,1,5,2,3,H+,1,0,0,0,1000,250.0,0,c04rh,4,train
3166.9681072235107,0,4,1,5,2,3,H+,1,5,3,0,1000,250.0,5,c04rh,5,train
2016.6199207305908,0,4,1,5,2,3,H+,1,0,0,0,1000,250.0,0,c04rh,6,train
1984.821081161499,0,4,1,5,2,3,H+,1,1,2,0,1000,250.0,1,c04rh,7,train
1505.4569244384766,0,4,1,5,2,3,H+,1,0,0,0,1000,250.0,0,c04rh,8,train
2126.840114593506,0,4,1,5,2,3,H+,1,4,1,0,1000,250.0,4,c04rh,9,train
1345.6380367279053,0,4,1,5,2,3,H+,1,0,0,0,1000,250.0,0,c04rh,10,train
1969.0721035003662,0,4,1,5,2,3,H+,1,3,5,0,1000,250.0,3,c04rh,11,train
1457.2370052337646,0,4,1,5,2,3,H+,1,3,5,0,1000,250.0,3,c04rh,12,train
2064.689874649048,0,4,1,5,2,3,H+,1,4,1,0,1000,250.0,4,c04rh,13,train
2000.1840591430664,0,4,1,5,2,3,H+,1,5,3,0,1000,250.0,5,c04rh,14,train
1696.3629722595215,0,4,1,5,2,3,H+,1,3,5,0,1000,250.0,3,c04rh,15,train
1569.4279670715332,0,4,1,5,2,3,H+,1,1,2,0,1000,250.0,1,c04rh,16,train
1984.6410751342773,0,4,1,5,2,3,H+,1,4,1,0,1000,250.0,4,c04rh,17,train
1376.4140605926514,0,4,1,5,2,3,H+,1,1,2,0,1000,250.0,1,c04rh,18,train
1024.2562294006348,0,4,1,5,2,3,H+,1,1,2,0,1000,250.0,1,c04rh,19,train
929.3439388275146,0,4,1,5,2,3,H+,1,1,2,0,1000,250.0,1,c04rh,20,train
1169.1181659698486,0,4,1,5,2,3,H+,1,0,0,0,1000,250.0,0,c04rh,21,train
1968.756914138794,0,4,1,5,2,3,H+,0,5,3,0,1000,250.0,4,c04rh,22,train
1296.4417934417725,0,4,1,5,2,3,H+,1,0,0,0,1000,250.0,0,c04rh,23,train
2896.0750102996826,0,4,1,5,2,3,H+,1,3,5,0,1000,250.0,3,c04rh,24,train
2112.4041080474854,0,4,1,5,2,3,H+,1,4,1,0,1000,250.0,4,c04rh,25,train
1953.4180164337158,0,4,1,5,2,3,H+,1,5,3,0,1000,250.0,5,c04rh,26,train
912.6431941986084,0,4,1,5,2,3,H+,1,0,0,0,1000,250.0,0,c04rh,27,train
2016.3941383361816,0,4,1,5,2,3,H+,1,4,1,0,1000,250.0,4,c04rh,28,train
3168.5760021209717,0,4,1,5,2,3,H+,1,1,2,0,1000,250.0,1,c04rh,29,train
1953.1128406524658,0,4,1,5,2,3,H+,1,4,1,0,1000,250.0,4,c04rh,30,train
1040.3621196746826,0,4,1,5,2,3,H+,1,0,0,0,1000,250.0,0,c04rh,31,train
1617.1798706054688,0,4,1,5,2,3,H+,1,4,1,0,1000,250.0,4,c04rh,32,train
1585.1199626922607,0,4,1,5,2,3,H+,1,1,2,0,1000,250.0,1,c04rh,33,train
2000.6740093231201,0,4,1,5,2,3,H+,1,5,3,0,1000,250.0,5,c04rh,34,train
2128.351926803589,0,4,1,5,2,3,H+,1,3,5,0,1000,250.0,3,c04rh,35,train
1313.00687789917,0,4,1,5,2,3,H+,1,1,2,0,1000,250.0,1,c04rh,36,train
1521.1551189422607,0,4,1,5,2,3,H+,1,5,3,0,1000,250.0,5,c04rh,37,train
1312.5059604644775,0,4,1,5,2,3,H+,1,0,0,0,1000,250.0,0,c04rh,38,train
1280.663013458252,0,4,1,5,2,3,H+,1,5,3,0,1000,250.0,5,c04rh,39,train
1264.211893081665,0,4,1,5,2,3,H+,1,5,3,0,1000,250.0,5,c04rh,40,train
961.0741138458252,0,4,1,5,2,3,H+,1,5,3,0,1000,250.0,5,c04rh,41,train
2257.0691108703613,0,4,1,5,2,3,H+,1,1,2,0,1000,250.0,1,c04rh,42,train
1646.733045578003,0,4,1,5,2,3,H+,1,4,1,0,1000,250.0,4,c04rh,43,train
1280.5218696594238,0,4,1,5,2,3,H+,1,1,2,0,1000,250.0,1,c04rh,44,train
592.6918983459473,0,4,1,5,2,3,H+,1,1,2,0,1000,250.0,1,c04rh,45,train
640.718936920166,0,4,1,5,2,3,H+,1,1,2,0,1000,250.0,1,c04rh,46,train
1329.0579319000244,0,4,1,5,2,3,H+,1,5,3,0,1000,250.0,5,c04rh,47,train
2768.3188915252686,0,4,1,5,2,3,H+,1,3,5,0,1000,250.0,3,c04rh,48,train
1521.09694480896,0,4,1,5,2,3,H+,1,0,0,0,1000,250.0,0,c04rh,49,train
1488.3620738983154,0,4,1,5,2,3,H+,1,3,5,0,1000,250.0,3,c04rh,50,train
1153.2912254333496,0,4,1,5,2,3,H+,1,1,2,0,1000,250.0,1,c04rh,51,train
641.5309906005859,0,4,1,5,2,3,H+,1,1,2,0,1000,250.0,1,c04rh,52,train
1088.5488986968994,0,4,1,5,2,3,H+,1,3,5,0,1000,250.0,3,c04rh,53,train
4048.7301349639893,0,4,1,5,2,3,H+,1,4,1,0,1000,250.0,4,c04rh,54,train
1184.3769550323486,0,4,1,5,2,3,H+,1,3,5,0,1000,250.0,3,c04rh,55,train
1217.1430587768555,0,4,1,5,2,3,H+,1,5,3,0,1000,250.0,5,c04rh,56,train
1089.176893234253,0,4,1,5,2,3,H+,1,3,5,0,1000,250.0,3,c04rh,57,train
1104.1991710662842,0,4,1,5,2,3,H+,1,4,1,0,1000,250.0,4,c04rh,58,train
1152.435064315796,0,4,1,5,2,3,H+,1,0,0,0,1000,250.0,0,c04rh,59,train
608.4301471710205,0,4,1,5,2,3,H+,1,0,0,0,1000,250.0,0,c04rh,60,train
497.204065322876,0,4,1,5,2,3,H+,1,0,0,0,1000,250.0,0,c04rh,61,train
1248.4948635101318,0,4,1,5,2,3,H+,1,5,3,0,1000,250.0,5,c04rh,62,train
1328.7439346313477,0,4,1,5,2,3,H+,1,1,2,0,1000,250.0,1,c04rh,63,train
1264.3218040466309,0,4,1,5,2,3,H+,1,4,1,0,1000,250.0,4,c04rh,64,train
1201.084852218628,0,4,1,5,2,3,H+,1,5,3,0,1000,250.0,5,c04rh,65,train
992.6681518554688,0,4,1,5,2,3,H+,1,0,0,0,1000,250.0,0,c04rh,66,train
1824.1510391235352,0,4,1,5,2,3,H+,1,4,1,0,1000,250.0,4,c04rh,67,train
848.6359119415283,0,4,1,5,2,3,H+,1,4,1,0,1000,250.0,4,c04rh,68,train
1056.3790798187256,0,4,1,5,2,3,H+,1,5,3,0,1000,250.0,5,c04rh,69,train
1185.0841045379639,0,4,1,5,2,3,H+,1,3,5,0,1000,250.0,3,c04rh,70,train
800.3199100494385,0,4,1,5,2,3,H+,0,2,4,0,1000,250.0,0,c04rh,71,train
2192.3999786376953,0,4,1,5,2,3,H+,1,2,4,0,1000,250.0,2,c04rh,72,train
1792.9561138153076,0,4,1,5,2,3,H+,1,4,1,0,1000,250.0,4,c04rh,73,train
1472.533941268921,0,4,1,5,2,3,H+,1,4,1,0,1000,250.0,4,c04rh,74,train
2049.21817779541,0,4,1,5,2,3,H+,1,5,3,0,1000,250.0,5,c04rh,75,train
3024.5039463043213,0,4,1,5,2,3,H+,1,1,2,0,1000,250.0,1,c04rh,76,train
1184.9889755249023,0,4,1,5,2,3,H+,1,2,4,0,1000,250.0,2,c04rh,77,train
2752.4871826171875,0,4,1,5,2,3,H+,1,1,2,0,1000,250.0,1,c04rh,78,train
1278.630018234253,0,4,1,5,2,3,H+,1,4,1,0,1000,250.0,4,c04rh,79,train
1089.3690586090088,0,4,1,5,2,3,H+,1,1,2,0,1000,250.0,1,c04rh,80,train
1568.634033203125,0,4,1,5,2,3,H+,1,3,5,0,1000,250.0,3,c04rh,81,train
2257.114887237549,0,4,1,5,2,3,H+,1,1,2,0,1000,250.0,1,c04rh,82,train
881.1569213867188,0,4,1,5,2,3,H+,1,1,2,0,1000,250.0,1,c04rh,83,train
1248.2030391693115,0,4,1,5,2,3,H+,1,4,1,0,1000,250.0,4,c04rh,84,train
1616.671085357666,0,4,1,5,2,3,H+,1,0,0,0,1000,250.0,0,c04rh,85,train
704.3280601501465,0,4,1,5,2,3,H+,1,0,0,0,1000,250.0,0,c04rh,86,train
1264.9860382080078,0,4,1,5,2,3,H+,1,5,3,0,1000,250.0,5,c04rh,87,train
1201.0998725891113,0,4,1,5,2,3,H+,1,3,5,0,1000,250.0,3,c04rh,88,train
2289.048910140991,0,4,1,5,2,3,H+,1,2,4,0,1000,250.0,2,c04rh,89,train
672.2910404205322,0,4,1,5,2,3,H+,1,2,4,0,1000,250.0,2,c04rh,90,train
2832.940101623535,0,4,1,5,2,3,H+,1,1,2,0,1000,250.0,1,c04rh,91,train
1232.6149940490723,0,4,1,5,2,3,H+,1,4,1,0,1000,250.0,4,c04rh,92,train
1582.6659202575684,0,4,1,5,2,3,H+,1,2,4,0,1000,250.0,2,c04rh,93,train
753.1700134277344,0,4,1,5,2,3,H+,1,2,4,0,1000,250.0,2,c04rh,94,train
1649.0850448608398,0,4,1,5,2,3,H+,1,3,5,0,1000,250.0,3,c04rh,95,train
1265.1360034942627,0,4,1,5,2,3,H+,1,4,1,0,1000,250.0,4,c04rh,96,train
1712.3541831970215,0,4,1,5,2,3,H+,1,5,3,0,1000,250.0,5,c04rh,97,train
1728.4209728240967,0,4,1,5,2,3,H+,1,3,5,0,1000,250.0,3,c04rh,98,train
1841.1431312561035,0,4,1,5,2,3,H+,1,4,1,0,1000,250.0,4,c04rh,99,train
672.3499298095703,0,4,1,5,2,3,H+,1,4,1,0,1000,250.0,4,c04rh,100,train
1328.5489082336426,0,4,1,5,2,3,H+,1,3,5,0,1000,250.0,3,c04rh,101,train
1600.1968383789062,0,4,1,5,2,3,H+,1,0,0,0,1000,250.0,0,c04rh,102,train
1023.5848426818848,0,4,1,5,2,3,H+,1,0,0,0,1000,250.0,0,c04rh,103,train
1440.5150413513184,0,4,1,5,2,3,H+,1,3,5,0,1000,250.0,3,c04rh,104,train
1136.868953704834,0,4,1,5,2,3,H+,1,0,0,0,1000,250.0,0,c04rh,105,train
657.0298671722412,0,4,1,5,2,3,H+,1,0,0,0,1000,250.0,0,c04rh,106,train
1504.3938159942627,0,4,1,5,2,3,H+,1,3,5,0,1000,250.0,3,c04rh,107,train
1249.1881847381592,0,4,1,5,2,3,H+,1,4,1,0,1000,250.0,4,c04rh,108,train
1730.0550937652588,0,4,1,5,2,3,H+,1,1,2,0,1000,250.0,1,c04rh,109,train
1377.121925354004,0,4,1,5,2,3,H+,1,2,4,0,1000,250.0,2,c04rh,110,train
737.1838092803955,0,4,1,5,2,3,H+,1,2,4,0,1000,250.0,2,c04rh,111,train
1825.005054473877,0,4,1,5,2,3,H+,1,5,3,0,1000,250.0,5,c04rh,112,train
992.4299716949463,0,4,1,5,2,3,H+,1,2,4,0,1000,250.0,2,c04rh,113,train
1040.0190353393555,0,4,1,5,2,3,H+,1,0,0,0,1000,250.0,0,c04rh,114,train
1137.0861530303955,0,4,1,5,2,3,H+,1,5,3,0,1000,250.0,5,c04rh,115,train
784.7039699554443,0,4,1,5,2,3,H+,1,0,0,0,1000,250.0,0,c04rh,116,train
1150.6760120391846,0,4,1,5,2,3,H+,1,2,4,0,1000,250.0,2,c04rh,117,train
737.1509075164795,0,4,1,5,2,3,H+,1,2,4,0,1000,250.0,2,c04rh,118,train
1633.1100463867188,0,4,1,5,2,3,H+,1,5,3,0,1000,250.0,5,c04rh,119,train
912.9941463470459,0,4,1,5,2,3,H+,1,0,0,0,1000,250.0,0,c04rh,120,train
1472.6269245147705,0,4,1,5,2,3,H+,1,1,2,0,1000,250.0,1,c04rh,121,train
1025.041103363037,0,4,1,5,2,3,H+,1,2,4,0,1000,250.0,2,c04rh,122,train
769.2029476165771,0,4,1,5,2,3,H+,1,0,0,0,1000,250.0,0,c04rh,123,train
1345.1151847839355,0,4,1,5,2,3,H+,1,3,5,0,1000,250.0,3,c04rh,124,train
721.1508750915527,0,4,1,5,2,3,H+,1,0,0,0,1000,250.0,0,c04rh,125,train
2192.640781402588,0,4,1,5,2,3,H+,1,1,2,0,1000,250.0,1,c04rh,126,train
577.0719051361084,0,4,1,5,2,3,H+,1,1,2,0,1000,250.0,1,c04rh,127,train
688.4109973907471,0,4,1,5,2,3,H+,1,0,0,0,1000,250.0,0,c04rh,128,train
1649.2419242858887,0,4,1,5,2,3,H+,1,2,4,0,1000,250.0,2,c04rh,129,train
654.8178195953369,0,4,1,5,2,3,H+,1,2,4,0,1000,250.0,2,c04rh,130,train
1904.6680927276611,0,4,1,5,2,3,H+,1,1,2,0,1000,250.0,1,c04rh,131,train
1121.0908889770508,0,4,1,5,2,3,H+,1,2,4,0,1000,250.0,2,c04rh,132,train
1760.9431743621826,0,4,1,5,2,3,H+,1,4,1,0,1000,250.0,4,c04rh,133,train
1152.7090072631836,0,4,1,5,2,3,H+,1,0,0,0,1000,250.0,0,c04rh,134,train
1216.5489196777344,0,4,1,5,2,3,H+,1,5,3,0,1000,250.0,5,c04rh,135,train
2144.9949741363525,0,4,1,5,2,3,H+,1,5,3,0,1000,250.0,5,c04rh,136,train
1824.2812156677246,0,4,1,5,2,3,H+,1,4,1,0,1000,250.0,4,c04rh,137,train
1041.3661003112793,0,4,1,5,2,3,H+,1,0,0,0,1000,250.0,0,c04rh,138,train
1041.1419868469238,0,4,1,5,2,3,H+,1,5,3,0,1000,250.0,5,c04rh,139,train
1824.9049186706543,0,4,1,5,2,3,H+,1,4,1,0,1000,250.0,4,c04rh,140,train
800.4419803619385,0,4,1,5,2,3,H+,1,5,3,0,1000,250.0,5,c04rh,141,train
1200.4868984222412,0,4,1,5,2,3,H+,1,3,5,0,1000,250.0,3,c04rh,142,train
817.0890808105469,0,4,1,5,2,3,H+,1,0,0,0,1000,250.0,0,c04rh,143,train
928.4341335296631,0,4,1,5,2,3,H+,1,2,4,0,1000,250.0,2,c04rh,144,train
1008.6829662322998,0,4,1,5,2,3,H+,1,5,3,0,1000,250.0,5,c04rh,145,train
733.9138984680176,0,4,1,5,2,3,H+,1,1,2,0,1000,250.0,1,c04rh,146,train
592.5679206848145,0,4,1,5,2,3,H+,1,0,0,0,1000,250.0,0,c04rh,147,train
1086.963176727295,0,4,1,5,2,3,H+,1,4,1,0,1000,250.0,4,c04rh,148,train
1136.4789009094238,0,4,1,5,2,3,H+,1,1,2,0,1000,250.0,1,c04rh,149,train
768.4848308563232,0,4,1,5,2,3,H+,1,4,1,0,1000,250.0,4,c04rh,150,train
913.0518436431885,0,4,1,5,2,3,H+,1,4,1,0,1000,250.0,4,c04rh,151,train
848.527193069458,0,4,1,5,2,3,H+,1,5,3,0,1000,250.0,5,c04rh,152,train
961.0190391540527,0,4,1,5,2,3,H+,1,1,2,0,1000,250.0,1,c04rh,153,train
864.7921085357666,0,4,1,5,2,3,H+,1,3,5,0,1000,250.0,3,c04rh,154,train
1088.2649421691895,0,4,1,5,2,3,H+,1,0,0,0,1000,250.0,0,c04rh,155,train
864.3579483032227,0,4,1,5,2,3,H+,1,5,3,0,1000,250.0,5,c04rh,156,train
656.8050384521484,0,4,1,5,2,3,H+,1,4,1,0,1000,250.0,4,c04rh,157,train
592.7610397338867,0,4,1,5,2,3,H+,1,1,2,0,1000,250.0,1,c04rh,158,train
896.752119064331,0,4,1,5,2,3,H+,1,0,0,0,1000,250.0,0,c04rh,159,train
609.0071201324463,0,4,1,5,2,3,H+,1,4,1,0,1000,250.0,4,c04rh,160,train
783.3020687103271,0,4,1,5,2,3,H+,1,2,4,0,1000,250.0,2,c04rh,161,train
672.9841232299805,0,4,1,5,2,3,H+,1,5,3,0,1000,250.0,5,c04rh,162,train
784.337043762207,0,4,1,5,2,3,H+,1,2,4,0,1000,250.0,2,c04rh,163,train
1214.6761417388916,0,4,1,5,2,3,H+,1,3,5,0,1000,250.0,3,c04rh,164,train
752.6421546936035,0,4,1,5,2,3,H+,1,5,3,0,1000,250.0,5,c04rh,165,train
768.8100337982178,0,4,1,5,2,3,H+,1,4,1,0,1000,250.0,4,c04rh,166,train
689.0869140625,0,4,1,5,2,3,H+,1,3,5,0,1000,250.0,3,c04rh,167,train
704.9870491027832,0,4,1,5,2,3,H+,1,5,3,0,1000,250.0,5,c04rh,168,train
640.5558586120605,0,4,1,5,2,3,H+,1,0,0,0,1000,250.0,0,c04rh,169,train
816.6029453277588,0,4,1,5,2,3,H+,1,4,1,0,1000,250.0,4,c04rh,170,train
689.0561580657959,0,4,1,5,2,3,H+,1,0,0,0,1000,250.0,0,c04rh,171,train
1360.185146331787,0,4,1,5,2,3,H+,1,4,1,0,1000,250.0,4,c04rh,172,train
673.5460758209229,0,4,1,5,2,3,H+,1,0,0,0,1000,250.0,0,c04rh,173,train
670.8469390869141,0,4,1,5,2,3,H+,1,0,0,0,1000,250.0,0,c04rh,174,train
944.9820518493652,0,4,1,5,2,3,H+,1,1,2,0,1000,250.0,1,c04rh,175,train
608.975887298584,0,4,1,5,2,3,H+,1,3,5,0,1000,250.0,3,c04rh,176,train
673.6049652099609,0,4,1,5,2,3,H+,0,2,4,0,1000,250.0,1,c04rh,177,train
672.9719638824463,0,4,1,5,2,3,H+,1,0,0,0,1000,250.0,0,c04rh,178,train
1057.2750568389893,0,4,1,5,2,3,H+,1,4,1,0,1000,250.0,4,c04rh,179,train
1697.087049484253,0,4,1,5,2,3,H+,1,4,1,0,1000,250.0,4,c04rh,180,train
1297.206163406372,0,4,1,5,2,3,H+,1,2,4,0,1000,250.0,2,c04rh,181,train
1058.027982711792,0,4,1,5,2,3,H+,1,1,2,0,1000,250.0,1,c04rh,182,train
592.8008556365967,0,4,1,5,2,3,H+,1,2,4,0,1000,250.0,2,c04rh,183,train
816.6141510009766,0,4,1,5,2,3,H+,1,1,2,0,1000,250.0,1,c04rh,184,train
592.2760963439941,0,4,1,5,2,3,H+,1,2,4,0,1000,250.0,2,c04rh,185,train
1329.1001319885254,0,4,1,5,2,3,H+,1,4,1,0,1000,250.0,4,c04rh,186,train
1408.5590839385986,0,4,1,5,2,3,H+,1,1,2,0,1000,250.0,1,c04rh,187,train
880.997896194458,0,4,1,5,2,3,H+,1,2,4,0,1000,250.0,2,c04rh,188,train
816.3609504699707,0,4,1,5,2,3,H+,0,0,0,0,1000,250.0,3,c04rh,189,train
784.7599983215332,0,4,1,5,2,3,H+,1,0,0,0,1000,250.0,0,c04rh,190,train
449.09191131591797,0,4,1,5,2,3,H+,1,0,0,0,1000,250.0,0,c04rh,191,train
833.0540657043457,0,4,1,5,2,3,H+,1,2,4,0,1000,250.0,2,c04rh,192,train
704.8909664154053,0,4,1,5,2,3,H+,1,0,0,0,1000,250.0,0,c04rh,193,train
849.0731716156006,0,4,1,5,2,3,H+,1,4,1,0,1000,250.0,4,c04rh,194,train
801.1620044708252,0,4,1,5,2,3,H+,1,5,3,0,1000,250.0,5,c04rh,195,train
688.3180141448975,0,4,1,5,2,3,H+,1,4,1,0,1000,250.0,4,c04rh,196,train
720.9169864654541,0,4,1,5,2,3,H+,1,0,0,0,1000,250.0,0,c04rh,197,train
928.2188415527344,0,4,1,5,2,3,H+,1,3,5,0,1000,250.0,3,c04rh,198,train
785.1779460906982,0,4,1,5,2,3,H+,1,5,3,0,1000,250.0,5,c04rh,199,train
768.1980133056641,0,4,1,5,2,3,H+,1,5,3,0,1000,250.0,5,c04rh,200,train
1105.1809787750244,0,4,1,5,2,3,H+,0,1,2,0,1000,250.0,4,c04rh,201,train
1152.2679328918457,0,4,1,5,2,3,H+,1,2,4,0,1000,250.0,2,c04rh,202,train
896.9800472259521,0,4,1,5,2,3,H+,1,5,3,0,1000,250.0,5,c04rh,203,train
704.7910690307617,0,4,1,5,2,3,H+,1,0,0,0,1000,250.0,0,c04rh,204,train
865.0078773498535,0,4,1,5,2,3,H+,1,2,4,0,1000,250.0,2,c04rh,205,train
881.1790943145752,0,4,1,5,2,3,H+,1,0,0,0,1000,250.0,0,c04rh,206,train
849.1339683532715,0,4,1,5,2,3,H+,1,5,3,0,1000,250.0,5,c04rh,207,train
1393.862009048462,0,4,1,5,2,3,H+,1,1,2,0,1000,250.0,1,c04rh,208,train
1005.9599876403809,0,4,1,5,2,3,H+,1,2,4,0,1000,250.0,2,c04rh,209,train
641.124963760376,0,4,1,5,2,3,H+,1,3,5,0,1000,250.0,3,c04rh,210,train
769.183874130249,0,4,1,5,2,3,H+,1,2,4,0,1000,250.0,2,c04rh,211,train
704.902172088623,0,4,1,5,2,3,H+,1,3,5,0,1000,250.0,3,c04rh,212,train
704.7171592712402,0,4,1,5,2,3,H+,1,2,4,0,1000,250.0,2,c04rh,213,train
976.6819477081299,0,4,1,5,2,3,H+,1,3,5,0,1000,250.0,3,c04rh,214,train
689.0640258789062,0,4,1,5,2,3,H+,1,2,4,0,1000,250.0,2,c04rh,215,train
1009.1269016265869,0,4,1,5,2,3,H+,1,4,1,0,1000,250.0,4,c04rh,216,train
832.3490619659424,0,4,1,5,2,3,H+,1,3,5,0,1000,250.0,3,c04rh,217,train
801.3608455657959,0,4,1,5,2,3,H+,1,0,0,0,1000,250.0,0,c04rh,218,train
1790.7171249389648,0,4,1,5,2,3,H+,1,1,2,0,1000,250.0,1,c04rh,219,train
673.1739044189453,0,4,1,5,2,3,H+,1,1,2,0,1000,250.0,1,c04rh,220,train
719.9580669403076,0,4,1,5,2,3,H+,1,0,0,0,1000,250.0,0,c04rh,221,train
881.0830116271973,0,4,1,5,2,3,H+,1,3,5,0,1000,250.0,3,c04rh,222,train
736.907958984375,0,4,1,5,2,3,H+,1,0,0,0,1000,250.0,0,c04rh,223,train
688.6739730834961,0,4,1,5,2,3,H+,1,3,5,0,1000,250.0,3,c04rh,224,train
497.1451759338379,0,4,1,5,2,3,H+,1,3,5,0,1000,250.0,3,c04rh,225,train
528.7480354309082,0,4,1,5,2,3,H+,1,3,5,0,1000,250.0,3,c04rh,226,train
1089.0998840332031,0,4,1,5,2,3,H+,1,1,2,0,1000,250.0,1,c04rh,227,train
1104.7799587249756,0,4,1,5,2,3,H+,1,4,1,0,1000,250.0,4,c04rh,228,train
992.973804473877,0,4,1,5,2,3,H+,1,1,2,0,1000,250.0,1,c04rh,229,train
1200.21390914917,0,4,1,5,2,3,H+,1,1,2,0,1000,250.0,1,c04rh,230,train
1153.0368328094482,0,4,1,5,2,3,H+,1,4,1,0,1000,250.0,4,c04rh,231,train
865.4348850250244,0,4,1,5,2,3,H+,1,1,2,0,1000,250.0,1,c04rh,232,train
768.9950466156006,0,4,1,5,2,3,H+,1,0,0,0,1000,250.0,0,c04rh,233,train
1072.6850032806396,0,4,1,5,2,3,H+,1,3,5,0,1000,250.0,3,c04rh,234,train
624.4540214538574,0,4,1,5,2,3,H+,1,3,5,0,1000,250.0,3,c04rh,235,train
1008.1620216369629,0,4,1,5,2,3,H+,1,1,2,0,1000,250.0,1,c04rh,236,train
672.7910041809082,0,4,1,5,2,3,H+,1,1,2,0,1000,250.0,1,c04rh,237,train
721.1940288543701,0,4,1,5,2,3,H+,1,0,0,0,1000,250.0,0,c04rh,238,train
993.1859970092773,0,4,1,5,2,3,H+,1,5,3,0,1000,250.0,5,c04rh,239,train
929.0649890899658,0,4,1,5,2,3,H+,1,2,4,0,1000,250.0,2,c04rh,240,train
880.4709911346436,0,4,1,5,2,3,H+,1,2,4,0,1000,250.0,2,c04rh,241,train
848.9959239959717,0,4,1,5,2,3,H+,1,5,3,0,1000,250.0,5,c04rh,242,train
753.0961036682129,0,4,1,5,2,3,H+,1,3,5,0,1000,250.0,3,c04rh,243,train
1118.7589168548584,0,4,1,5,2,3,H+,1,1,2,0,1000,250.0,1,c04rh,244,train
785.0868701934814,0,4,1,5,2,3,H+,1,3,5,0,1000,250.0,3,c04rh,245,train
577.0659446716309,0,4,1,5,2,3,H+,1,3,5,0,1000,250.0,3,c04rh,246,train
1024.4498252868652,0,4,1,5,2,3,H+,1,2,4,0,1000,250.0,2,c04rh,247,train
1424.8390197753906,0,4,1,5,2,3,H+,1,4,1,0,1000,250.0,4,c04rh,248,train
816.4529800415039,0,4,1,5,2,3,H+,1,5,3,0,1000,250.0,5,c04rh,249,train
1968.6551094055176,0,4,1,5,2,3,H+,1,5,3,0,1000,250.0,5,c04rh,250,test
1105.165958404541,0,4,1,5,2,3,H+,0,3,5,0,1000,250.0,4,c04rh,251,test
1776.8359184265137,0,4,1,5,2,3,H+,1,3,5,0,1000,250.0,3,c04rh,252,test
1425.018072128296,0,4,1,5,2,3,H+,1,0,0,0,1000,250.0,0,c04rh,253,test
2625.1308917999268,0,4,1,5,2,3,H+,1,5,3,0,1000,250.0,5,c04rh,254,test
1377.0861625671387,0,4,1,5,2,3,H+,1,3,5,0,1000,250.0,3,c04rh,255,test
1185.1389408111572,0,4,1,5,2,3,H+,1,0,0,0,1000,250.0,0,c04rh,256,test
1088.940143585205,0,4,1,5,2,3,H+,1,3,5,0,1000,250.0,3,c04rh,257,test
911.870002746582,0,4,1,5,2,3,H+,1,0,0,0,1000,250.0,0,c04rh,258,test
1489.0639781951904,0,4,1,5,2,3,H+,1,1,2,0,1000,250.0,1,c04rh,259,test
689.033031463623,0,4,1,5,2,3,H+,1,0,0,0,1000,250.0,0,c04rh,260,test
1696.3019371032715,0,4,1,5,2,3,H+,1,2,4,0,1000,250.0,2,c04rh,261,test
1169.1169738769531,0,4,1,5,2,3,H+,1,4,1,0,1000,250.0,4,c04rh,262,test
1329.0379047393799,0,4,1,5,2,3,H+,1,3,5,0,1000,250.0,3,c04rh,263,test
769.0901756286621,0,4,1,5,2,3,H+,1,0,0,0,1000,250.0,0,c04rh,264,test
1137.1381282806396,0,4,1,5,2,3,H+,1,2,4,0,1000,250.0,2,c04rh,265,test
1169.201135635376,0,4,1,5,2,3,H+,1,4,1,0,1000,250.0,4,c04rh,266,test
848.7560749053955,0,4,1,5,2,3,H+,1,5,3,0,1000,250.0,5,c04rh,267,test
1536.3340377807617,0,4,1,5,2,3,H+,1,3,5,0,1000,250.0,3,c04rh,268,test
1249.4850158691406,0,4,1,5,2,3,H+,1,4,1,0,1000,250.0,4,c04rh,269,test
656.2209129333496,0,4,1,5,2,3,H+,1,0,0,0,1000,250.0,0,c04rh,270,test
832.9219818115234,0,4,1,5,2,3,H+,1,2,4,0,1000,250.0,2,c04rh,271,test
704.7748565673828,0,4,1,5,2,3,H+,1,0,0,0,1000,250.0,0,c04rh,272,test
945.0531005859375,0,4,1,5,2,3,H+,0,1,2,0,1000,250.0,2,c04rh,273,test
1104.7711372375488,0,4,1,5,2,3,H+,1,4,1,0,1000,250.0,4,c04rh,274,test
1328.4339904785156,0,4,1,5,2,3,H+,1,4,1,0,1000,250.0,4,c04rh,275,test
913.1100177764893,0,4,1,5,2,3,H+,1,5,3,0,1000,250.0,5,c04rh,276,test
640.3470039367676,0,4,1,5,2,3,H+,1,0,0,0,1000,250.0,0,c04rh,277,test
881.0749053955078,0,4,1,5,2,3,H+,1,0,0,0,1000,250.0,0,c04rh,278,test
1216.7308330535889,0,4,1,5,2,3,H+,1,5,3,0,1000,250.0,5,c04rh,279,test
977.025032043457,0,4,1,5,2,3,H+,1,4,1,0,1000,250.0,4,c04rh,280,test
1568.4380531311035,0,4,1,5,2,3,H+,1,4,1,0,1000,250.0,4,c04rh,281,test
753.1170845031738,0,4,1,5,2,3,H+,1,4,1,0,1000,250.0,4,c04rh,282,test
465.06810188293457,0,4,1,5,2,3,H+,1,4,1,0,1000,250.0,4,c04rh,283,test
768.7721252441406,0,4,1,5,2,3,H+,1,5,3,0,1000,250.0,5,c04rh,284,test
768.8069343566895,0,4,1,5,2,3,H+,1,5,3,0,1000,250.0,5,c04rh,285,test
992.894172668457,0,4,1,5,2,3,H+,1,2,4,0,1000,250.0,2,c04rh,286,test
1057.1141242980957,0,4,1,5,2,3,H+,1,4,1,0,1000,250.0,4,c04rh,287,test
865.0891780853271,0,4,1,5,2,3,H+,1,0,0,0,1000,250.0,0,c04rh,288,test
561.0790252685547,0,4,1,5,2,3,H+,1,0,0,0,1000,250.0,0,c04rh,289,test
545.5090999603271,0,4,1,5,2,3,H+,0,2,4,0,1000,250.0,0,c04rh,290,test
768.3770656585693,0,4,1,5,2,3,H+,1,4,1,0,1000,250.0,4,c04rh,291,test
1345.1299667358398,0,4,1,5,2,3,H+,1,3,5,0,1000,250.0,3,c04rh,292,test
1025.1679420471191,0,4,1,5,2,3,H+,1,3,5,0,1000,250.0,3,c04rh,293,test
560.4779720306396,0,4,1,5,2,3,H+,1,3,5,0,1000,250.0,3,c04rh,294,test
961.0888957977295,0,4,1,5,2,3,H+,1,0,0,0,1000,250.0,0,c04rh,295,test
2288.9559268951416,0,4,1,5,2,3,H+,1,5,3,0,1000,250.0,5,c04rh,296,test
736.422061920166,0,4,1,5,2,3,H+,1,0,0,0,1000,250.0,0,c04rh,297,test
1457.021951675415,0,4,1,5,2,3,H+,1,1,2,0,1000,250.0,1,c04rh,298,test
1153.1379222869873,0,4,1,5,2,3,H+,1,3,5,0,1000,250.0,3,c04rh,299,test
592.6971435546875,0,4,1,5,2,3,H+,1,3,5,0,1000,250.0,3,c04rh,300,test
1424.3710041046143,0,4,1,5,2,3,H+,1,1,2,0,1000,250.0,1,c04rh,301,test
1424.5009422302246,0,4,1,5,2,3,H+,0,2,4,0,1000,250.0,1,c04rh,302,test
1073.0669498443604,0,4,1,5,2,3,H+,1,3,5,0,1000,250.0,3,c04rh,303,test
1504.4748783111572,0,4,1,5,2,3,H+,1,2,4,0,1000,250.0,2,c04rh,304,test
897.1529006958008,0,4,1,5,2,3,H+,1,1,2,0,1000,250.0,1,c04rh,305,test
737.0119094848633,0,4,1,5,2,3,H+,1,0,0,0,1000,250.0,0,c04rh,306,test
688.7001991271973,0,4,1,5,2,3,H+,1,1,2,0,1000,250.0,1,c04rh,307,test
1025.1059532165527,0,4,1,5,2,3,H+,1,5,3,0,1000,250.0,5,c04rh,308,test
1038.719892501831,0,4,1,5,2,3,H+,1,1,2,0,1000,250.0,1,c04rh,309,test
928.5500049591064,0,4,1,5,2,3,H+,1,2,4,0,1000,250.0,2,c04rh,310,test
1153.1169414520264,0,4,1,5,2,3,H+,1,5,3,0,1000,250.0,5,c04rh,311,test
689.100980758667,0,4,1,5,2,3,H+,1,3,5,0,1000,250.0,3,c04rh,312,test
465.0909900665283,0,4,1,5,2,3,H+,1,3,5,0,1000,250.0,3,c04rh,313,test
865.0951385498047,0,4,1,5,2,3,H+,1,1,2,0,1000,250.0,1,c04rh,314,test
960.7009887695312,0,4,1,5,2,3,H+,1,2,4,0,1000,250.0,2,c04rh,315,test
609.0579032897949,0,4,1,5,2,3,H+,1,2,4,0,1000,250.0,2,c04rh,316,test
848.9789962768555,0,4,1,5,2,3,H+,1,1,2,0,1000,250.0,1,c04rh,317,test
1008.4600448608398,0,4,1,5,2,3,H+,1,5,3,0,1000,250.0,5,c04rh,318,test
592.5729274749756,0,4,1,5,2,3,H+,1,5,3,0,1000,250.0,5,c04rh,319,test
752.6841163635254,0,4,1,5,2,3,H+,1,2,4,0,1000,250.0,2,c04rh,320,test
880.5079460144043,0,4,1,5,2,3,H+,1,1,2,0,1000,250.0,1,c04rh,321,test
1568.713903427124,0,4,1,5,2,3,H+,1,5,3,0,1000,250.0,5,c04rh,322,test
625.0510215759277,0,4,1,5,2,3,H+,1,5,3,0,1000,250.0,5,c04rh,323,test
1024.7108936309814,0,4,1,5,2,3,H+,1,4,1,0,1000,250.0,4,c04rh,324,test
1184.7491264343262,0,4,1,5,2,3,H+,1,1,2,0,1000,250.0,1,c04rh,325,test
1409.1670513153076,0,4,1,5,2,3,H+,1,3,5,0,1000,250.0,3,c04rh,326,test
1296.7820167541504,0,4,1,5,2,3,H+,1,0,0,0,1000,250.0,0,c04rh,327,test
544.8620319366455,0,4,1,5,2,3,H+,1,0,0,0,1000,250.0,0,c04rh,328,test
960.8540534973145,0,4,1,5,2,3,H+,1,1,2,0,1000,250.0,1,c04rh,329,test
641.5159702301025,0,4,1,5,2,3,H+,1,0,0,0,1000,250.0,0,c04rh,330,test
1248.5930919647217,0,4,1,5,2,3,H+,0,2,4,0,1000,250.0,1,c04rh,331,test
705.0139904022217,0,4,1,5,2,3,H+,1,5,3,0,1000,250.0,5,c04rh,332,test
720.2150821685791,0,4,1,5,2,3,H+,1,5,3,0,1000,250.0,5,c04rh,333,test
736.9520664215088,0,4,1,5,2,3,H+,1,0,0,0,1000,250.0,0,c04rh,334,test
769.0808773040771,0,4,1,5,2,3,H+,1,1,2,0,1000,250.0,1,c04rh,335,test
1489.1810417175293,0,4,1,5,2,3,H+,1,5,3,0,1000,250.0,5,c04rh,336,test
1280.5261611938477,0,4,1,5,2,3,H+,1,3,5,0,1000,250.0,3,c04rh,337,test
1105.0992012023926,0,4,1,5,2,3,H+,1,1,2,0,1000,250.0,1,c04rh,338,test
752.936840057373,0,4,1,5,2,3,H+,1,1,2,0,1000,250.0,1,c04rh,339,test
609.1468334197998,0,4,1,5,2,3,H+,1,2,4,0,1000,250.0,2,c04rh,340,test
673.2540130615234,0,4,1,5,2,3,H+,1,0,0,0,1000,250.0,0,c04rh,341,test
721.0888862609863,0,4,1,5,2,3,H+,1,0,0,0,1000,250.0,0,c04rh,342,test
544.9681282043457,0,4,1,5,2,3,H+,1,0,0,0,1000,250.0,0,c04rh,343,test
592.756986618042,0,4,1,5,2,3,H+,1,1,2,0,1000,250.0,1,c04rh,344,test
1328.9530277252197,0,4,1,5,2,3,H+,1,0,0,0,1000,250.0,0,c04rh,345,test
528.1031131744385,0,4,1,5,2,3,H+,1,0,0,0,1000,250.0,0,c04rh,346,test
801.0568618774414,0,4,1,5,2,3,H+,1,2,4,0,1000,250.0,2,c04rh,347,test
1110.7690334320068,0,4,1,5,2,3,H+,1,5,3,0,1000,250.0,5,c04rh,348,test
752.5801658630371,0,4,1,5,2,3,H+,1,2,4,0,1000,250.0,2,c04rh,349,test
606.5459251403809,0,4,1,5,2,3,H+,1,4,1,0,1000,250.0,4,c04rh,350,test
1040.903091430664,0,4,1,5,2,3,H+,1,2,4,0,1000,250.0,2,c04rh,351,test
480.88908195495605,0,4,1,5,2,3,H+,1,2,4,0,1000,250.0,2,c04rh,352,test
609.2000007629395,0,4,1,5,2,3,H+,1,1,2,0,1000,250.0,1,c04rh,353,test
1265.0880813598633,0,4,1,5,2,3,H+,1,5,3,0,1000,250.0,5,c04rh,354,test
689.122200012207,0,4,1,5,2,3,H+,1,2,4,0,1000,250.0,2,c04rh,355,test
784.8749160766602,0,4,1,5,2,3,H+,1,0,0,0,1000,250.0,0,c04rh,356,test
592.3810005187988,0,4,1,5,2,3,H+,1,2,4,0,1000,250.0,2,c04rh,357,test
734.8120212554932,0,4,1,5,2,3,H+,1,1,2,0,1000,250.0,1,c04rh,358,test
832.5130939483643,0,4,1,5,2,3,H+,1,0,0,0,1000,250.0,0,c04rh,359,test
608.9839935302734,0,4,1,5,2,3,H+,1,2,4,0,1000,250.0,2,c04rh,360,test
545.090913772583,0,4,1,5,2,3,H+,1,2,4,0,1000,250.0,2,c04rh,361,test
1089.0979766845703,0,4,1,5,2,3,H+,1,1,2,0,1000,250.0,1,c04rh,362,test
3089.099884033203,0,4,1,5,2,3,H+,0,3,5,0,1000,250.0,4,c04rh,363,test
801.1200428009033,0,4,1,5,2,3,H+,1,1,2,0,1000,250.0,1,c04rh,364,test
1473.1090068817139,0,4,1,5,2,3,H+,1,4,1,0,1000,250.0,4,c04rh,365,test
1248.8369941711426,0,4,1,5,2,3,H+,1,3,5,0,1000,250.0,3,c04rh,366,test
1024.4131088256836,0,4,1,5,2,3,H+,1,5,3,0,1000,250.0,5,c04rh,367,test
720.7081317901611,0,4,1,5,2,3,H+,0,2,4,0,1000,250.0,1,c04rh,368,test
656.9850444793701,0,4,1,5,2,3,H+,1,0,0,0,1000,250.0,0,c04rh,369,test
1425.0519275665283,0,4,1,5,2,3,H+,1,4,1,0,1000,250.0,4,c04rh,370,test
1233.1790924072266,0,4,1,5,2,3,H+,1,2,4,0,1000,250.0,2,c04rh,371,test
1392.7690982818604,0,4,1,5,2,3,H+,1,5,3,0,1000,250.0,5,c04rh,372,test
529.2778015136719,0,4,1,5,2,3,H+,1,5,3,0,1000,250.0,5,c04rh,373,test
881.0420036315918,0,4,1,5,2,3,H+,1,0,0,0,1000,250.0,0,c04rh,374,test
1201.202154159546,0,4,1,5,2,3,H+,1,4,1,0,1000,250.0,4,c04rh,375,test
704.6151161193848,0,4,1,5,2,3,H+,1,5,3,0,1000,250.0,5,c04rh,376,test
734.6251010894775,0,4,1,5,2,3,H+,1,0,0,0,1000,250.0,0,c04rh,377,test
1360.802173614502,0,4,1,5,2,3,H+,1,3,5,0,1000,250.0,3,c04rh,378,test
816.5450096130371,0,4,1,5,2,3,H+,1,0,0,0,1000,250.0,0,c04rh,379,test
704.7839164733887,0,4,1,5,2,3,H+,1,0,0,0,1000,250.0,0,c04rh,380,test
481.0779094696045,0,4,1,5,2,3,H+,1,0,0,0,1000,250.0,0,c04rh,381,test
1136.6081237792969,0,4,1,5,2,3,H+,1,4,1,0,1000,250.0,4,c04rh,382,test
1265.0139331817627,0,4,1,5,2,3,H+,1,1,2,0,1000,250.0,1,c04rh,383,test
673.0241775512695,0,4,1,5,2,3,H+,1,0,0,0,1000,250.0,0,c04rh,384,test
849.1151332855225,0,4,1,5,2,3,H+,1,2,4,0,1000,250.0,2,c04rh,385,test
849.0819931030273,0,4,1,5,2,3,H+,1,4,1,0,1000,250.0,4,c04rh,386,test
1136.9988918304443,0,4,1,5,2,3,H+,1,3,5,0,1000,250.0,3,c04rh,387,test
1521.0590362548828,0,4,1,5,2,3,H+,1,5,3,0,1000,250.0,5,c04rh,388,test
1184.8399639129639,0,4,1,5,2,3,H+,1,1,2,0,1000,250.0,1,c04rh,389,test
1072.6191997528076,0,4,1,5,2,3,H+,1,3,5,0,1000,250.0,3,c04rh,390,test
929.0709495544434,0,4,1,5,2,3,H+,1,5,3,0,1000,250.0,5,c04rh,391,test
753.0169486999512,0,4,1,5,2,3,H+,1,2,4,0,1000,250.0,2,c04rh,392,test
656.7621231079102,0,4,1,5,2,3,H+,1,1,2,0,1000,250.0,1,c04rh,393,test
865.1819229125977,0,4,1,5,2,3,H+,1,3,5,0,1000,250.0,3,c04rh,394,test
656.3010215759277,0,4,1,5,2,3,H+,1,1,2,0,1000,250.0,1,c04rh,395,test
640.4478549957275,0,4,1,5,2,3,H+,1,2,4,0,1000,250.0,2,c04rh,396,test
849.0409851074219,0,4,1,5,2,3,H+,1,3,5,0,1000,250.0,3,c04rh,397,test
849.2400646209717,0,4,1,5,2,3,H+,1,1,2,0,1000,250.0,1,c04rh,398,test
721.0350036621094,0,4,1,5,2,3,H+,1,2,4,0,1000,250.0,2,c04rh,399,test
961.1008167266846,0,4,1,5,2,3,H+,1,4,1,0,1000,250.0,4,c04rh,400,test
929.2159080505371,0,4,1,5,2,3,H+,1,5,3,0,1000,250.0,5,c04rh,401,test
2465.0299549102783,0,4,1,5,2,3,H+,1,3,5,0,1000,250.0,3,c04rh,402,test
753.105878829956,0,4,1,5,2,3,H+,1,1,2,0,1000,250.0,1,c04rh,403,test
560.9848499298096,0,4,1,5,2,3,H+,1,1,2,0,1000,250.0,1,c04rh,404,test
464.4930362701416,0,4,1,5,2,3,H+,1,1,2,0,1000,250.0,1,c04rh,405,test
688.6789798736572,0,4,1,5,2,3,H+,1,3,5,0,1000,250.0,3,c04rh,406,test
640.7480239868164,0,4,1,5,2,3,H+,1,5,3,0,1000,250.0,5,c04rh,407,test
784.4679355621338,0,4,1,5,2,3,H+,1,1,2,0,1000,250.0,1,c04rh,408,test
736.6979122161865,0,4,1,5,2,3,H+,1,5,3,0,1000,250.0,5,c04rh,409,test
657.1080684661865,0,4,1,5,2,3,H+,1,0,0,0,1000,250.0,0,c04rh,410,test
608.612060546875,0,4,1,5,2,3,H+,1,2,4,0,1000,250.0,2,c04rh,411,test
624.4828701019287,0,4,1,5,2,3,H+,1,0,0,0,1000,250.0,0,c04rh,412,test
721.6181755065918,0,4,1,5,2,3,H+,1,2,4,0,1000,250.0,2,c04rh,413,test
736.6588115692139,0,4,1,5,2,3,H+,1,5,3,0,1000,250.0,5,c04rh,414,test
752.1710395812988,0,4,1,5,2,3,H+,0,2,4,0,1000,250.0,0,c04rh,415,test
1057.0600032806396,0,4,1,5,2,3,H+,1,3,5,0,1000,250.0,3,c04rh,416,test
673.271894454956,0,4,1,5,2,3,H+,1,4,1,0,1000,250.0,4,c04rh,417,test
1265.0377750396729,0,4,1,5,2,3,H+,1,4,1,0,1000,250.0,4,c04rh,418,test
1040.945053100586,0,4,1,5,2,3,H+,1,3,5,0,1000,250.0,3,c04rh,419,test
753.0701160430908,0,4,1,5,2,3,H+,0,0,0,0,1000,250.0,3,c04rh,420,test
1025.5651473999023,0,4,1,5,2,3,H+,1,1,2,0,1000,250.0,1,c04rh,421,test
688.7199878692627,0,4,1,5,2,3,H+,1,5,3,0,1000,250.0,5,c04rh,422,test
554.8129081726074,0,4,1,5,2,3,H+,1,5,3,0,1000,250.0,5,c04rh,423,test
752.554178237915,0,4,1,5,2,3,H+,1,0,0,0,1000,250.0,0,c04rh,424,test
1905.142068862915,0,4,1,5,2,3,H+,1,4,1,0,1000,250.0,4,c04rh,425,test
624.6800422668457,0,4,1,5,2,3,H+,1,5,3,0,1000,250.0,5,c04rh,426,test
865.0789260864258,0,4,1,5,2,3,H+,1,1,2,0,1000,250.0,1,c04rh,427,test
656.5489768981934,0,4,1,5,2,3,H+,1,0,0,0,1000,250.0,0,c04rh,428,test
1104.7868728637695,0,4,1,5,2,3,H+,1,4,1,0,1000,250.0,4,c04rh,429,test
976.9740104675293,0,4,1,5,2,3,H+,1,1,2,0,1000,250.0,1,c04rh,430,test
768.39280128479,0,4,1,5,2,3,H+,1,0,0,0,1000,250.0,0,c04rh,431,test
609.0531349182129,0,4,1,5,2,3,H+,1,5,3,0,1000,250.0,5,c04rh,432,test
720.4248905181885,0,4,1,5,2,3,H+,1,1,2,0,1000,250.0,1,c04rh,433,test
654.7188758850098,0,4,1,5,2,3,H+,0,2,4,0,1000,250.0,1,c04rh,434,test
688.7011528015137,0,4,1,5,2,3,H+,1,1,2,0,1000,250.0,1,c04rh,435,test
641.1499977111816,0,4,1,5,2,3,H+,1,0,0,0,1000,250.0,0,c04rh,436,test
672.4209785461426,0,4,1,5,2,3,H+,1,0,0,0,1000,250.0,0,c04rh,437,test
496.4430332183838,0,4,1,5,2,3,H+,1,2,4,0,1000,250.0,2,c04rh,438,test
1296.673059463501,0,4,1,5,2,3,H+,1,4,1,0,1000,250.0,4,c04rh,439,test
528.4590721130371,0,4,1,5,2,3,H+,1,4,1,0,1000,250.0,4,c04rh,440,test
1009.119987487793,0,4,1,5,2,3,H+,1,3,5,0,1000,250.0,3,c04rh,441,test
608.6430549621582,0,4,1,5,2,3,H+,1,3,5,0,1000,250.0,3,c04rh,442,test
494.9369430541992,0,4,1,5,2,3,H+,1,3,5,0,1000,250.0,3,c04rh,443,test
592.9780006408691,0,4,1,5,2,3,H+,0,1,2,0,1000,250.0,3,c04rh,444,test
1489.0220165252686,0,4,1,5,2,3,H+,1,5,3,0,1000,250.0,5,c04rh,445,test
785.0971221923828,0,4,1,5,2,3,H+,1,5,3,0,1000,250.0,5,c04rh,446,test
1072.4141597747803,0,4,1,5,2,3,H+,1,1,2,0,1000,250.0,1,c04rh,447,test
1073.056936264038,0,4,1,5,2,3,H+,1,2,4,0,1000,250.0,2,c04rh,448,test
736.907958984375,0,4,1,5,2,3,H+,1,2,4,0,1000,250.0,2,c04rh,449,test
864.3360137939453,0,4,1,5,2,3,H+,1,1,2,0,1000,250.0,1,c04rh,450,test
1633.1210136413574,0,4,1,5,2,3,H+,1,4,1,0,1000,250.0,4,c04rh,451,test
734.4241142272949,0,4,1,5,2,3,H+,1,0,0,0,1000,250.0,0,c04rh,452,test
1504.3671131134033,0,4,1,5,2,3,H+,1,3,5,0,1000,250.0,3,c04rh,453,test
752.6159286499023,0,4,1,5,2,3,H+,1,0,0,0,1000,250.0,0,c04rh,454,test
912.3961925506592,0,4,1,5,2,3,H+,1,0,0,0,1000,250.0,0,c04rh,455,test
817.828893661499,0,4,1,5,2,3,H+,1,4,1,0,1000,250.0,4,c04rh,456,test
1151.4780521392822,0,4,1,5,2,3,H+,1,4,1,0,1000,250.0,4,c04rh,457,test
1073.1210708618164,0,4,1,5,2,3,H+,1,1,2,0,1000,250.0,1,c04rh,458,test
544.6419715881348,0,4,1,5,2,3,H+,1,1,2,0,1000,250.0,1,c04rh,459,test
849.0879535675049,0,4,1,5,2,3,H+,1,3,5,0,1000,250.0,3,c04rh,460,test
816.3840770721436,0,4,1,5,2,3,H+,1,3,5,0,1000,250.0,3,c04rh,461,test
1472.4650382995605,0,4,1,5,2,3,H+,1,2,4,0,1000,250.0,2,c04rh,462,test
1217.181921005249,0,4,1,5,2,3,H+,0,3,5,0,1000,250.0,4,c04rh,463,test
561.046838760376,0,4,1,5,2,3,H+,1,2,4,0,1000,250.0,2,c04rh,464,test
574.8181343078613,0,4,1,5,2,3,H+,1,1,2,0,1000,250.0,1,c04rh,465,test
1169.0080165863037,0,4,1,5,2,3,H+,1,3,5,0,1000,250.0,3,c04rh,466,test
752.9289722442627,0,4,1,5,2,3,H+,1,2,4,0,1000,250.0,2,c04rh,467,test
785.2728366851807,0,4,1,5,2,3,H+,1,5,3,0,1000,250.0,5,c04rh,468,test
912.6718044281006,0,4,1,5,2,3,H+,1,3,5,0,1000,250.0,3,c04rh,469,test
1201.016902923584,0,4,1,5,2,3,H+,1,1,2,0,1000,250.0,1,c04rh,470,test
769.0830230712891,0,4,1,5,2,3,H+,1,2,4,0,1000,250.0,2,c04rh,471,test
750.7820129394531,0,4,1,5,2,3,H+,1,0,0,0,1000,250.0,0,c04rh,472,test
673.1820106506348,0,4,1,5,2,3,H+,1,2,4,0,1000,250.0,2,c04rh,473,test
449.12004470825195,0,4,1,5,2,3,H+,1,2,4,0,1000,250.0,2,c04rh,474,test
1072.9660987854004,0,4,1,5,2,3,H+,1,3,5,0,1000,250.0,3,c04rh,475,test
817.1260356903076,0,4,1,5,2,3,H+,1,0,0,0,1000,250.0,0,c04rh,476,test
689.0819072723389,0,4,1,5,2,3,H+,1,2,4,0,1000,250.0,2,c04rh,477,test
1265.0058269500732,0,4,1,5,2,3,H+,1,3,5,0,1000,250.0,3,c04rh,478,test
753.0539035797119,0,4,1,5,2,3,H+,1,5,3,0,1000,250.0,5,c04rh,479,test
1425.0819683074951,0,4,1,5,2,3,H+,1,4,1,0,1000,250.0,4,c04rh,480,test
865.1440143585205,0,4,1,5,2,3,H+,1,3,5,0,1000,250.0,3,c04rh,481,test
672.2960472106934,0,4,1,5,2,3,H+,1,3,5,0,1000,250.0,3,c04rh,482,test
736.9849681854248,0,4,1,5,2,3,H+,1,4,1,0,1000,250.0,4,c04rh,483,test
768.6140537261963,0,4,1,5,2,3,H+,1,2,4,0,1000,250.0,2,c04rh,484,test
688.6520385742188,0,4,1,5,2,3,H+,1,4,1,0,1000,250.0,4,c04rh,485,test
816.9980049133301,0,4,1,5,2,3,H+,1,1,2,0,1000,250.0,1,c04rh,486,test
1025.1178741455078,0,4,1,5,2,3,H+,1,4,1,0,1000,250.0,4,c04rh,487,test
688.7929439544678,0,4,1,5,2,3,H+,1,0,0,0,1000,250.0,0,c04rh,488,test
656.3949584960938,0,4,1,5,2,3,H+,1,1,2,0,1000,250.0,1,c04rh,489,test
736.7870807647705,0,4,1,5,2,3,H+,1,2,4,0,1000,250.0,2,c04rh,490,test
750.4899501800537,0,4,1,5,2,3,H+,1,5,3,0,1000,250.0,5,c04rh,491,test
976.722002029419,0,4,1,5,2,3,H+,1,2,4,0,1000,250.0,2,c04rh,492,test
1680.677890777588,0,4,1,5,2,3,H+,1,4,1,0,1000,250.0,4,c04rh,493,test
785.0339412689209,0,4,1,5,2,3,H+,1,1,2,0,1000,250.0,1,c04rh,494,test
702.6000022888184,0,4,1,5,2,3,H+,1,0,0,0,1000,250.0,0,c04rh,495,test
640.7120227813721,0,4,1,5,2,3,H+,1,1,2,0,1000,250.0,1,c04rh,496,test
464.39409255981445,0,4,1,5,2,3,H+,1,1,2,0,1000,250.0,1,c04rh,497,test
545.0060367584229,0,4,1,5,2,3,H+,1,2,4,0,1000,250.0,2,c04rh,498,test
736.732006072998,0,4,1,5,2,3,H+,1,0,0,0,1000,250.0,0,c04rh,499,test
