RT,SRmap_0,SRmap_1,SRmap_2,SRmap_3,SRmap_4,SRmap_5,condition,correct,correct_response,curstim,ms-precue,ms-prestimblank,ntrials,response,subject,trial,type
1024.63698387146,1,4,2,0,3,5,M,1,0,3,0,1000,250.0,0,C27AG,0,train
1328.1869888305664,1,4,2,0,3,5,M,1,4,1,0,1000,250.0,4,C27AG,1,train
576.8520832061768,1,4,2,0,3,5,M,0,4,1,0,1000,250.0,3,C27AG,2,train
590.7697677612305,1,4,2,0,3,5,M,1,5,5,0,1000,250.0,5,C27AG,3,train
480.7858467102051,1,4,2,0,3,5,M,1,2,2,0,1000,250.0,2,C27AG,4,train
528.2759666442871,1,4,2,0,3,5,M,1,1,0,0,1000,250.0,1,C27AG,5,train
702.6150226593018,1,4,2,0,3,5,M,0,4,1,0,1000,250.0,3,C27AG,6,train
497.4210262298584,1,4,2,0,3,5,M,1,4,1,0,1000,250.0,4,C27AG,7,train
720.754861831665,1,4,2,0,3,5,M,1,3,4,0,1000,250.0,3,C27AG,8,train
433.1510066986084,1,4,2,0,3,5,M,1,2,2,0,1000,250.0,2,C27AG,9,train
768.5480117797852,1,4,2,0,3,5,M,1,4,1,0,1000,250.0,4,C27AG,10,train
526.479959487915,1,4,2,0,3,5,M,1,2,2,0,1000,250.0,2,C27AG,11,train
448.5440254211426,1,4,2,0,3,5,M,1,2,2,0,1000,250.0,2,C27AG,12,train
976.6721725463867,1,4,2,0,3,5,M,1,5,5,0,1000,250.0,5,C27AG,13,train
496.4590072631836,1,4,2,0,3,5,M,1,2,2,0,1000,250.0,2,C27AG,14,train
512.9110813140869,1,4,2,0,3,5,M,1,1,0,0,1000,250.0,1,C27AG,15,train
561.5479946136475,1,4,2,0,3,5,M,1,5,5,0,1000,250.0,5,C27AG,16,train
673.0260848999023,1,4,2,0,3,5,M,1,3,4,0,1000,250.0,3,C27AG,17,train
656.6531658172607,1,4,2,0,3,5,M,1,4,1,0,1000,250.0,4,C27AG,18,train
592.8919315338135,1,4,2,0,3,5,M,1,2,2,0,1000,250.0,2,C27AG,19,train
721.0187911987305,1,4,2,0,3,5,M,1,4,1,0,1000,250.0,4,C27AG,20,train
496.52981758117676,1,4,2,0,3,5,M,1,0,3,0,1000,250.0,0,C27AG,21,train
641.0770416259766,1,4,2,0,3,5,M,1,4,1,0,1000,250.0,4,C27AG,22,train
448.8940238952637,1,4,2,0,3,5,M,1,5,5,0,1000,250.0,5,C27AG,23,train
592.8349494934082,1,4,2,0,3,5,M,1,5,5,0,1000,250.0,5,C27AG,24,train
446.81286811828613,1,4,2,0,3,5,M,1,5,5,0,1000,250.0,5,C27AG,25,train
448.6429691314697,1,4,2,0,3,5,M,1,0,3,0,1000,250.0,0,C27AG,26,train
560.9371662139893,1,4,2,0,3,5,M,0,4,1,0,1000,250.0,3,C27AG,27,train
513.3199691772461,1,4,2,0,3,5,M,1,0,3,0,1000,250.0,0,C27AG,28,train
928.7300109863281,1,4,2,0,3,5,M,1,3,4,0,1000,250.0,3,C27AG,29,train
448.30918312072754,1,4,2,0,3,5,M,1,0,3,0,1000,250.0,0,C27AG,30,train
736.2990379333496,1,4,2,0,3,5,M,1,3,4,0,1000,250.0,3,C27AG,31,train
496.5658187866211,1,4,2,0,3,5,M,1,1,0,0,1000,250.0,1,C27AG,32,train
448.3778476715088,1,4,2,0,3,5,M,1,0,3,0,1000,250.0,0,C27AG,33,train
880.1069259643555,1,4,2,0,3,5,M,1,4,1,0,1000,250.0,4,C27AG,34,train
576.5860080718994,1,4,2,0,3,5,M,1,5,5,0,1000,250.0,5,C27AG,35,train
448.822021484375,1,4,2,0,3,5,M,1,4,1,0,1000,250.0,4,C27AG,36,train
496.5500831604004,1,4,2,0,3,5,M,1,4,1,0,1000,250.0,4,C27AG,37,train
544.6639060974121,1,4,2,0,3,5,M,1,0,3,0,1000,250.0,0,C27AG,38,train
624.8619556427002,1,4,2,0,3,5,M,1,2,2,0,1000,250.0,2,C27AG,39,train
657.3858261108398,1,4,2,0,3,5,M,1,3,4,0,1000,250.0,3,C27AG,40,train
544.6779727935791,1,4,2,0,3,5,M,1,1,0,0,1000,250.0,1,C27AG,41,train
512.5019550323486,1,4,2,0,3,5,M,1,1,0,0,1000,250.0,1,C27AG,42,train
672.3699569702148,1,4,2,0,3,5,M,1,3,4,0,1000,250.0,3,C27AG,43,train
448.4219551086426,1,4,2,0,3,5,M,1,0,3,0,1000,250.0,0,C27AG,44,train
592.3647880554199,1,4,2,0,3,5,M,1,3,4,0,1000,250.0,3,C27AG,45,train
497.38478660583496,1,4,2,0,3,5,M,1,0,3,0,1000,250.0,0,C27AG,46,train
481.4260005950928,1,4,2,0,3,5,M,1,2,2,0,1000,250.0,2,C27AG,47,train
832.7131271362305,1,4,2,0,3,5,M,1,4,1,0,1000,250.0,4,C27AG,48,train
449.4810104370117,1,4,2,0,3,5,M,1,2,2,0,1000,250.0,2,C27AG,49,train
624.3910789489746,1,4,2,0,3,5,M,1,3,4,0,1000,250.0,3,C27AG,50,train
462.9077911376953,1,4,2,0,3,5,M,1,0,3,0,1000,250.0,0,C27AG,51,train
577.0220756530762,1,4,2,0,3,5,M,0,4,1,0,1000,250.0,3,C27AG,52,train
673.1879711151123,1,4,2,0,3,5,M,1,1,0,0,1000,250.0,1,C27AG,53,train
720.5188274383545,1,4,2,0,3,5,M,1,3,4,0,1000,250.0,3,C27AG,54,train
512.9039287567139,1,4,2,0,3,5,M,1,2,2,0,1000,250.0,2,C27AG,55,train
448.11201095581055,1,4,2,0,3,5,M,1,0,3,0,1000,250.0,0,C27AG,56,train
576.7660140991211,1,4,2,0,3,5,M,1,5,5,0,1000,250.0,5,C27AG,57,train
704.3120861053467,1,4,2,0,3,5,M,1,3,4,0,1000,250.0,3,C27AG,58,train
609.173059463501,1,4,2,0,3,5,M,1,3,4,0,1000,250.0,3,C27AG,59,train
512.1669769287109,1,4,2,0,3,5,M,1,5,5,0,1000,250.0,5,C27AG,60,train
704.4401168823242,1,4,2,0,3,5,M,1,3,4,0,1000,250.0,3,C27AG,61,train
641.0119533538818,1,4,2,0,3,5,M,1,2,2,0,1000,250.0,2,C27AG,62,train
576.509952545166,1,4,2,0,3,5,M,1,3,4,0,1000,250.0,3,C27AG,63,train
448.5158920288086,1,4,2,0,3,5,M,1,5,5,0,1000,250.0,5,C27AG,64,train
432.31892585754395,1,4,2,0,3,5,M,1,0,3,0,1000,250.0,0,C27AG,65,train
560.4391098022461,1,4,2,0,3,5,M,1,5,5,0,1000,250.0,5,C27AG,66,train
448.0140209197998,1,4,2,0,3,5,M,1,0,3,0,1000,250.0,0,C27AG,67,train
464.1139507293701,1,4,2,0,3,5,M,1,1,0,0,1000,250.0,1,C27AG,68,train
352.7340888977051,1,4,2,0,3,5,M,1,0,3,0,1000,250.0,0,C27AG,69,train
416.52703285217285,1,4,2,0,3,5,M,1,1,0,0,1000,250.0,1,C27AG,70,train
384.3579292297363,1,4,2,0,3,5,M,1,2,2,0,1000,250.0,2,C27AG,71,train
368.2060241699219,1,4,2,0,3,5,M,1,3,4,0,1000,250.0,3,C27AG,72,train
350.7568836212158,1,4,2,0,3,5,M,0,3,4,0,1000,250.0,2,C27AG,73,train
432.2991371154785,1,4,2,0,3,5,M,1,5,5,0,1000,250.0,5,C27AG,74,train
432.53397941589355,1,4,2,0,3,5,M,1,5,5,0,1000,250.0,5,C27AG,75,train
496.4289665222168,1,4,2,0,3,5,M,1,1,0,0,1000,250.0,1,C27AG,76,train
401.4549255371094,1,4,2,0,3,5,M,1,1,0,0,1000,250.0,1,C27AG,77,train
385.1299285888672,1,4,2,0,3,5,M,1,1,0,0,1000,250.0,1,C27AG,78,train
416.2900447845459,1,4,2,0,3,5,M,1,0,3,0,1000,250.0,0,C27AG,79,train
609.2040538787842,1,4,2,0,3,5,M,1,5,5,0,1000,250.0,5,C27AG,80,train
369.3969249725342,1,4,2,0,3,5,M,0,2,2,0,1000,250.0,1,C27AG,81,train
512.6349925994873,1,4,2,0,3,5,M,1,1,0,0,1000,250.0,1,C27AG,82,train
480.4081916809082,1,4,2,0,3,5,M,1,2,2,0,1000,250.0,2,C27AG,83,train
1040.2991771697998,1,4,2,0,3,5,M,1,4,1,0,1000,250.0,4,C27AG,84,train
833.3730697631836,1,4,2,0,3,5,M,0,3,4,0,1000,250.0,2,C27AG,85,train
1568.695068359375,1,4,2,0,3,5,M,1,5,5,0,1000,250.0,5,C27AG,86,train
1568.464994430542,1,4,2,0,3,5,M,1,0,3,0,1000,250.0,0,C27AG,87,train
944.5679187774658,1,4,2,0,3,5,M,1,2,2,0,1000,250.0,2,C27AG,88,train
448.7018585205078,1,4,2,0,3,5,M,1,0,3,0,1000,250.0,0,C27AG,89,train
689.0900135040283,1,4,2,0,3,5,M,1,1,0,0,1000,250.0,1,C27AG,90,train
2129.0318965911865,1,4,2,0,3,5,M,0,4,1,0,1000,250.0,3,C27AG,91,train
1408.3449840545654,1,4,2,0,3,5,M,1,4,1,0,1000,250.0,4,C27AG,92,train
432.34992027282715,1,4,2,0,3,5,M,1,4,1,0,1000,250.0,4,C27AG,93,train
384.98616218566895,1,4,2,0,3,5,M,1,4,1,0,1000,250.0,4,C27AG,94,train
304.49509620666504,1,4,2,0,3,5,M,0,4,1,0,1000,250.0,5,C27AG,95,train
528.4290313720703,1,4,2,0,3,5,M,1,1,0,0,1000,250.0,1,C27AG,96,train
480.6971549987793,1,4,2,0,3,5,M,1,2,2,0,1000,250.0,2,C27AG,97,train
897.007942199707,1,4,2,0,3,5,M,1,3,4,0,1000,250.0,3,C27AG,98,train
640.5022144317627,1,4,2,0,3,5,M,1,5,5,0,1000,250.0,5,C27AG,99,train
512.1479034423828,1,4,2,0,3,5,M,1,2,2,0,1000,250.0,2,C27AG,100,train
353.12390327453613,1,4,2,0,3,5,M,1,1,0,0,1000,250.0,1,C27AG,101,train
478.89184951782227,1,4,2,0,3,5,M,1,1,0,0,1000,250.0,1,C27AG,102,train
784.9099636077881,1,4,2,0,3,5,M,1,4,1,0,1000,250.0,4,C27AG,103,train
624.6981620788574,1,4,2,0,3,5,M,0,3,4,0,1000,250.0,2,C27AG,104,train
640.4340267181396,1,4,2,0,3,5,M,1,2,2,0,1000,250.0,2,C27AG,105,train
800.5681037902832,1,4,2,0,3,5,M,1,4,1,0,1000,250.0,4,C27AG,106,train
721.264123916626,1,4,2,0,3,5,M,1,2,2,0,1000,250.0,2,C27AG,107,train
529.4580459594727,1,4,2,0,3,5,M,1,0,3,0,1000,250.0,0,C27AG,108,train
512.998104095459,1,4,2,0,3,5,M,1,0,3,0,1000,250.0,0,C27AG,109,train
432.2187900543213,1,4,2,0,3,5,M,1,0,3,0,1000,250.0,0,C27AG,110,train
400.698184967041,1,4,2,0,3,5,M,1,0,3,0,1000,250.0,0,C27AG,111,train
992.5639629364014,1,4,2,0,3,5,M,1,3,4,0,1000,250.0,3,C27AG,112,train
512.4099254608154,1,4,2,0,3,5,M,1,0,3,0,1000,250.0,0,C27AG,113,train
1184.4508647918701,1,4,2,0,3,5,M,1,4,1,0,1000,250.0,4,C27AG,114,train
592.5009250640869,1,4,2,0,3,5,M,1,5,5,0,1000,250.0,5,C27AG,115,train
704.293966293335,1,4,2,0,3,5,M,1,3,4,0,1000,250.0,3,C27AG,116,train
577.017068862915,1,4,2,0,3,5,M,1,5,5,0,1000,250.0,5,C27AG,117,train
560.3740215301514,1,4,2,0,3,5,M,1,2,2,0,1000,250.0,2,C27AG,118,train
592.4968719482422,1,4,2,0,3,5,M,1,5,5,0,1000,250.0,5,C27AG,119,train
448.28104972839355,1,4,2,0,3,5,M,1,0,3,0,1000,250.0,0,C27AG,120,train
528.066873550415,1,4,2,0,3,5,M,1,2,2,0,1000,250.0,2,C27AG,121,train
576.7960548400879,1,4,2,0,3,5,M,1,3,4,0,1000,250.0,3,C27AG,122,train
513.1001472473145,1,4,2,0,3,5,M,1,5,5,0,1000,250.0,5,C27AG,123,train
448.4860897064209,1,4,2,0,3,5,M,1,0,3,0,1000,250.0,0,C27AG,124,train
784.8570346832275,1,4,2,0,3,5,M,1,3,4,0,1000,250.0,3,C27AG,125,train
912.4221801757812,1,4,2,0,3,5,M,1,2,2,0,1000,250.0,2,C27AG,126,train
640.6528949737549,1,4,2,0,3,5,M,0,4,1,0,1000,250.0,3,C27AG,127,train
592.4289226531982,1,4,2,0,3,5,M,1,2,2,0,1000,250.0,2,C27AG,128,train
688.4980201721191,1,4,2,0,3,5,M,1,3,4,0,1000,250.0,3,C27AG,129,train
816.694974899292,1,4,2,0,3,5,M,1,2,2,0,1000,250.0,2,C27AG,130,train
640.4399871826172,1,4,2,0,3,5,M,1,3,4,0,1000,250.0,3,C27AG,131,train
448.4860897064209,1,4,2,0,3,5,M,1,2,2,0,1000,250.0,2,C27AG,132,train
608.6781024932861,1,4,2,0,3,5,M,1,3,4,0,1000,250.0,3,C27AG,133,train
464.3900394439697,1,4,2,0,3,5,M,1,0,3,0,1000,250.0,0,C27AG,134,train
513.261079788208,1,4,2,0,3,5,M,1,5,5,0,1000,250.0,5,C27AG,135,train
721.5230464935303,1,4,2,0,3,5,M,1,3,4,0,1000,250.0,3,C27AG,136,train
400.6638526916504,1,4,2,0,3,5,M,1,1,0,0,1000,250.0,1,C27AG,137,train
608.4930896759033,1,4,2,0,3,5,M,1,3,4,0,1000,250.0,3,C27AG,138,train
368.9301013946533,1,4,2,0,3,5,M,1,0,3,0,1000,250.0,0,C27AG,139,train
496.63686752319336,1,4,2,0,3,5,M,1,1,0,0,1000,250.0,1,C27AG,140,train
448.5650062561035,1,4,2,0,3,5,M,1,3,4,0,1000,250.0,3,C27AG,141,train
656.5580368041992,1,4,2,0,3,5,M,1,4,1,0,1000,250.0,4,C27AG,142,train
512.4630928039551,1,4,2,0,3,5,M,1,1,0,0,1000,250.0,1,C27AG,143,train
606.8880558013916,1,4,2,0,3,5,M,1,4,1,0,1000,250.0,4,C27AG,144,train
545.2420711517334,1,4,2,0,3,5,M,1,4,1,0,1000,250.0,4,C27AG,145,train
480.5729389190674,1,4,2,0,3,5,M,1,5,5,0,1000,250.0,5,C27AG,146,train
320.6470012664795,1,4,2,0,3,5,M,1,1,0,0,1000,250.0,1,C27AG,147,train
464.1759395599365,1,4,2,0,3,5,M,0,5,5,0,1000,250.0,3,C27AG,148,train
416.37611389160156,1,4,2,0,3,5,M,1,0,3,0,1000,250.0,0,C27AG,149,train
384.9470615386963,1,4,2,0,3,5,M,1,1,0,0,1000,250.0,1,C27AG,150,train
320.4500675201416,1,4,2,0,3,5,M,1,2,2,0,1000,250.0,2,C27AG,151,train
160.48002243041992,1,4,2,0,3,5,M,0,4,1,0,1000,250.0,3,C27AG,152,train
112.84589767456055,1,4,2,0,3,5,M,1,4,1,0,1000,250.0,4,C27AG,153,train
384.4451904296875,1,4,2,0,3,5,M,0,2,2,0,1000,250.0,4,C27AG,154,train
417.1898365020752,1,4,2,0,3,5,M,1,2,2,0,1000,250.0,2,C27AG,155,train
544.3840026855469,1,4,2,0,3,5,M,1,5,5,0,1000,250.0,5,C27AG,156,train
608.3590984344482,1,4,2,0,3,5,M,1,2,2,0,1000,250.0,2,C27AG,157,train
448.38690757751465,1,4,2,0,3,5,M,0,3,4,0,1000,250.0,4,C27AG,158,train
609.0128421783447,1,4,2,0,3,5,M,1,1,0,0,1000,250.0,1,C27AG,159,train
736.4819049835205,1,4,2,0,3,5,M,0,4,1,0,1000,250.0,3,C27AG,160,train
592.2341346740723,1,4,2,0,3,5,M,1,2,2,0,1000,250.0,2,C27AG,161,train
656.6390991210938,1,4,2,0,3,5,M,1,3,4,0,1000,250.0,3,C27AG,162,train
624.5038509368896,1,4,2,0,3,5,M,1,0,3,0,1000,250.0,0,C27AG,163,train
784.8389148712158,1,4,2,0,3,5,M,1,3,4,0,1000,250.0,3,C27AG,164,train
462.5511169433594,1,4,2,0,3,5,M,1,5,5,0,1000,250.0,5,C27AG,165,train
560.650110244751,1,4,2,0,3,5,M,1,5,5,0,1000,250.0,5,C27AG,166,train
513.1731033325195,1,4,2,0,3,5,M,0,4,1,0,1000,250.0,5,C27AG,167,train
752.6688575744629,1,4,2,0,3,5,M,1,3,4,0,1000,250.0,3,C27AG,168,train
657.2439670562744,1,4,2,0,3,5,M,1,2,2,0,1000,250.0,2,C27AG,169,train
449.0330219268799,1,4,2,0,3,5,M,1,0,3,0,1000,250.0,0,C27AG,170,train
368.488073348999,1,4,2,0,3,5,M,0,2,2,0,1000,250.0,1,C27AG,171,train
702.9070854187012,1,4,2,0,3,5,M,1,3,4,0,1000,250.0,3,C27AG,172,train
752.5351047515869,1,4,2,0,3,5,M,1,4,1,0,1000,250.0,4,C27AG,173,train
752.485990524292,1,4,2,0,3,5,M,1,4,1,0,1000,250.0,4,C27AG,174,train
896.5358734130859,1,4,2,0,3,5,M,1,3,4,0,1000,250.0,3,C27AG,175,train
704.308032989502,1,4,2,0,3,5,M,1,2,2,0,1000,250.0,2,C27AG,176,train
560.6119632720947,1,4,2,0,3,5,M,1,3,4,0,1000,250.0,3,C27AG,177,train
512.5198364257812,1,4,2,0,3,5,M,1,1,0,0,1000,250.0,1,C27AG,178,train
544.651985168457,1,4,2,0,3,5,M,1,2,2,0,1000,250.0,2,C27AG,179,train
416.78690910339355,1,4,2,0,3,5,M,1,2,2,0,1000,250.0,2,C27AG,180,train
800.4779815673828,1,4,2,0,3,5,M,1,3,4,0,1000,250.0,3,C27AG,181,train
544.450044631958,1,4,2,0,3,5,M,1,5,5,0,1000,250.0,5,C27AG,182,train
497.344970703125,1,4,2,0,3,5,M,1,0,3,0,1000,250.0,0,C27AG,183,train
1233.1948280334473,1,4,2,0,3,5,M,1,4,1,0,1000,250.0,4,C27AG,184,train
1920.3779697418213,1,4,2,0,3,5,M,1,3,4,0,1000,250.0,3,C27AG,185,train
464.60485458374023,1,4,2,0,3,5,M,1,0,3,0,1000,250.0,0,C27AG,186,train
560.5430603027344,1,4,2,0,3,5,M,1,3,4,0,1000,250.0,3,C27AG,187,train
544.7268486022949,1,4,2,0,3,5,M,1,5,5,0,1000,250.0,5,C27AG,188,train
640.3570175170898,1,4,2,0,3,5,M,1,3,4,0,1000,250.0,3,C27AG,189,train
512.2790336608887,1,4,2,0,3,5,M,1,3,4,0,1000,250.0,3,C27AG,190,train
624.53293800354,1,4,2,0,3,5,M,1,4,1,0,1000,250.0,4,C27AG,191,train
433.2301616668701,1,4,2,0,3,5,M,0,4,1,0,1000,250.0,5,C27AG,192,train
528.5940170288086,1,4,2,0,3,5,M,1,0,3,0,1000,250.0,0,C27AG,193,train
704.758882522583,1,4,2,0,3,5,M,1,3,4,0,1000,250.0,3,C27AG,194,train
688.6351108551025,1,4,2,0,3,5,M,1,5,5,0,1000,250.0,5,C27AG,195,train
864.4750118255615,1,4,2,0,3,5,M,0,1,0,0,1000,250.0,4,C27AG,196,train
448.58694076538086,1,4,2,0,3,5,M,1,0,3,0,1000,250.0,0,C27AG,197,train
544.7249412536621,1,4,2,0,3,5,M,1,1,0,0,1000,250.0,1,C27AG,198,train
495.50914764404297,1,4,2,0,3,5,M,1,1,0,0,1000,250.0,1,C27AG,199,train
609.734058380127,1,4,2,0,3,5,M,1,5,5,0,1000,250.0,5,C27AG,200,train
512.7608776092529,1,4,2,0,3,5,M,1,1,0,0,1000,250.0,1,C27AG,201,train
768.9511775970459,1,4,2,0,3,5,M,1,4,1,0,1000,250.0,4,C27AG,202,train
912.7120971679688,1,4,2,0,3,5,M,1,0,3,0,1000,250.0,0,C27AG,203,train
752.579927444458,1,4,2,0,3,5,M,1,2,2,0,1000,250.0,2,C27AG,204,train
577.2271156311035,1,4,2,0,3,5,M,1,0,3,0,1000,250.0,0,C27AG,205,train
848.7229347229004,1,4,2,0,3,5,M,1,4,1,0,1000,250.0,4,C27AG,206,train
512.8898620605469,1,4,2,0,3,5,M,1,2,2,0,1000,250.0,2,C27AG,207,train
526.843786239624,1,4,2,0,3,5,M,1,2,2,0,1000,250.0,2,C27AG,208,train
800.3618717193604,1,4,2,0,3,5,M,1,4,1,0,1000,250.0,4,C27AG,209,train
497.07603454589844,1,4,2,0,3,5,M,1,4,1,0,1000,250.0,4,C27AG,210,train
544.7540283203125,1,4,2,0,3,5,M,1,5,5,0,1000,250.0,5,C27AG,211,train
430.88316917419434,1,4,2,0,3,5,M,1,0,3,0,1000,250.0,0,C27AG,212,train
416.73803329467773,1,4,2,0,3,5,M,0,3,4,0,1000,250.0,2,C27AG,213,train
464.7059440612793,1,4,2,0,3,5,M,1,0,3,0,1000,250.0,0,C27AG,214,train
593.0969715118408,1,4,2,0,3,5,M,0,4,1,0,1000,250.0,5,C27AG,215,train
944.429874420166,1,4,2,0,3,5,M,1,4,1,0,1000,250.0,4,C27AG,216,train
592.7631855010986,1,4,2,0,3,5,M,1,0,3,0,1000,250.0,0,C27AG,217,train
544.2080497741699,1,4,2,0,3,5,M,1,2,2,0,1000,250.0,2,C27AG,218,train
464.46800231933594,1,4,2,0,3,5,M,1,1,0,0,1000,250.0,1,C27AG,219,train
480.7100296020508,1,4,2,0,3,5,M,1,1,0,0,1000,250.0,1,C27AG,220,train
606.6999435424805,1,4,2,0,3,5,M,1,3,4,0,1000,250.0,3,C27AG,221,train
512.6769542694092,1,4,2,0,3,5,M,1,5,5,0,1000,250.0,5,C27AG,222,train
542.4778461456299,1,4,2,0,3,5,M,1,1,0,0,1000,250.0,1,C27AG,223,train
768.6960697174072,1,4,2,0,3,5,M,1,3,4,0,1000,250.0,3,C27AG,224,train
1153.0718803405762,1,4,2,0,3,5,M,1,4,1,0,1000,250.0,4,C27AG,225,train
545.8059310913086,1,4,2,0,3,5,M,1,4,1,0,1000,250.0,4,C27AG,226,train
592.282772064209,1,4,2,0,3,5,M,1,2,2,0,1000,250.0,2,C27AG,227,train
479.20894622802734,1,4,2,0,3,5,M,1,0,3,0,1000,250.0,0,C27AG,228,train
432.31892585754395,1,4,2,0,3,5,M,1,1,0,0,1000,250.0,1,C27AG,229,train
464.43796157836914,1,4,2,0,3,5,M,1,0,3,0,1000,250.0,0,C27AG,230,train
400.47502517700195,1,4,2,0,3,5,M,1,0,3,0,1000,250.0,0,C27AG,231,train
1153.4340381622314,1,4,2,0,3,5,M,1,3,4,0,1000,250.0,3,C27AG,232,train
464.95985984802246,1,4,2,0,3,5,M,1,0,3,0,1000,250.0,0,C27AG,233,train
1056.609869003296,1,4,2,0,3,5,M,1,4,1,0,1000,250.0,4,C27AG,234,train
736.5140914916992,1,4,2,0,3,5,M,0,2,2,0,1000,250.0,3,C27AG,235,train
640.949010848999,1,4,2,0,3,5,M,1,3,4,0,1000,250.0,3,C27AG,236,train
545.8669662475586,1,4,2,0,3,5,M,1,1,0,0,1000,250.0,1,C27AG,237,train
593.268871307373,1,4,2,0,3,5,M,1,0,3,0,1000,250.0,0,C27AG,238,train
593.1720733642578,1,4,2,0,3,5,M,1,4,1,0,1000,250.0,4,C27AG,239,train
529.1149616241455,1,4,2,0,3,5,M,1,5,5,0,1000,250.0,5,C27AG,240,train
432.77692794799805,1,4,2,0,3,5,M,1,5,5,0,1000,250.0,5,C27AG,241,train
416.69297218322754,1,4,2,0,3,5,M,1,4,1,0,1000,250.0,4,C27AG,242,train
462.8570079803467,1,4,2,0,3,5,M,1,1,0,0,1000,250.0,1,C27AG,243,train
512.4080181121826,1,4,2,0,3,5,M,1,2,2,0,1000,250.0,2,C27AG,244,train
512.7019882202148,1,4,2,0,3,5,M,1,3,4,0,1000,250.0,3,C27AG,245,train
561.7969036102295,1,4,2,0,3,5,M,1,5,5,0,1000,250.0,5,C27AG,246,train
544.6910858154297,1,4,2,0,3,5,M,1,0,3,0,1000,250.0,0,C27AG,247,train
720.5929756164551,1,4,2,0,3,5,M,1,4,1,0,1000,250.0,4,C27AG,248,train
672.6300716400146,1,4,2,0,3,5,M,1,2,2,0,1000,250.0,2,C27AG,249,train
10176.334857940674,1,4,2,0,3,5,M,1,2,2,0,1000,250.0,2,C27AG,250,test
1632.138967514038,1,4,2,0,3,5,M,1,3,4,0,1000,250.0,3,C27AG,251,test
1071.9668865203857,1,4,2,0,3,5,M,1,4,1,0,1000,250.0,4,C27AG,252,test
1824.3350982666016,1,4,2,0,3,5,M,1,0,3,0,1000,250.0,0,C27AG,253,test
720.5090522766113,1,4,2,0,3,5,M,1,5,5,0,1000,250.0,5,C27AG,254,test
992.6519393920898,1,4,2,0,3,5,M,1,4,1,0,1000,250.0,4,C27AG,255,test
640.1269435882568,1,4,2,0,3,5,M,1,0,3,0,1000,250.0,0,C27AG,256,test
864.9818897247314,1,4,2,0,3,5,M,0,2,2,0,1000,250.0,3,C27AG,257,test
944.3268775939941,1,4,2,0,3,5,M,1,1,0,0,1000,250.0,1,C27AG,258,test
592.3199653625488,1,4,2,0,3,5,M,1,1,0,0,1000,250.0,1,C27AG,259,test
592.2191143035889,1,4,2,0,3,5,M,1,2,2,0,1000,250.0,2,C27AG,260,test
912.3167991638184,1,4,2,0,3,5,M,1,5,5,0,1000,250.0,5,C27AG,261,test
542.4740314483643,1,4,2,0,3,5,M,1,5,5,0,1000,250.0,5,C27AG,262,test
576.7991542816162,1,4,2,0,3,5,M,0,3,4,0,1000,250.0,4,C27AG,263,test
1297.3301410675049,1,4,2,0,3,5,M,1,1,0,0,1000,250.0,1,C27AG,264,test
481.06908798217773,1,4,2,0,3,5,M,1,1,0,0,1000,250.0,1,C27AG,265,test
800.6119728088379,1,4,2,0,3,5,M,1,2,2,0,1000,250.0,2,C27AG,266,test
670.6850528717041,1,4,2,0,3,5,M,1,4,1,0,1000,250.0,4,C27AG,267,test
577.4319171905518,1,4,2,0,3,5,M,1,5,5,0,1000,250.0,5,C27AG,268,test
2880.4099559783936,1,4,2,0,3,5,M,1,4,1,0,1000,250.0,4,C27AG,269,test
753.0069351196289,1,4,2,0,3,5,M,1,0,3,0,1000,250.0,0,C27AG,270,test
670.6020832061768,1,4,2,0,3,5,M,1,0,3,0,1000,250.0,0,C27AG,271,test
1073.194980621338,1,4,2,0,3,5,M,1,1,0,0,1000,250.0,1,C27AG,272,test
784.1670513153076,1,4,2,0,3,5,M,1,3,4,0,1000,250.0,3,C27AG,273,test
622.9550838470459,1,4,2,0,3,5,M,1,3,4,0,1000,250.0,3,C27AG,274,test
480.2260398864746,1,4,2,0,3,5,M,1,4,1,0,1000,250.0,4,C27AG,275,test
560.4569911956787,1,4,2,0,3,5,M,1,0,3,0,1000,250.0,0,C27AG,276,test
590.7127857208252,1,4,2,0,3,5,M,0,3,4,0,1000,250.0,4,C27AG,277,test
672.2128391265869,1,4,2,0,3,5,M,1,4,1,0,1000,250.0,4,C27AG,278,test
576.103925704956,1,4,2,0,3,5,M,1,3,4,0,1000,250.0,3,C27AG,279,test
1072.77512550354,1,4,2,0,3,5,M,0,1,0,0,1000,250.0,0,C27AG,280,test
672.5621223449707,1,4,2,0,3,5,M,1,1,0,0,1000,250.0,1,C27AG,281,test
2256.977081298828,1,4,2,0,3,5,M,1,5,5,0,1000,250.0,5,C27AG,282,test
784.1498851776123,1,4,2,0,3,5,M,1,4,1,0,1000,250.0,4,C27AG,283,test
625.8690357208252,1,4,2,0,3,5,M,1,5,5,0,1000,250.0,5,C27AG,284,test
752.3870468139648,1,4,2,0,3,5,M,1,1,0,0,1000,250.0,1,C27AG,285,test
672.4839210510254,1,4,2,0,3,5,M,1,2,2,0,1000,250.0,2,C27AG,286,test
656.1360359191895,1,4,2,0,3,5,M,1,3,4,0,1000,250.0,3,C27AG,287,test
577.1040916442871,1,4,2,0,3,5,M,1,1,0,0,1000,250.0,1,C27AG,288,test
702.5771141052246,1,4,2,0,3,5,M,1,5,5,0,1000,250.0,5,C27AG,289,test
928.3239841461182,1,4,2,0,3,5,M,1,4,1,0,1000,250.0,4,C27AG,290,test
1360.3050708770752,1,4,2,0,3,5,M,1,2,2,0,1000,250.0,2,C27AG,291,test
847.9981422424316,1,4,2,0,3,5,M,1,5,5,0,1000,250.0,5,C27AG,292,test
2752.383232116699,1,4,2,0,3,5,M,1,1,0,0,1000,250.0,1,C27AG,293,test
592.6389694213867,1,4,2,0,3,5,M,1,4,1,0,1000,250.0,4,C27AG,294,test
560.448169708252,1,4,2,0,3,5,M,0,0,3,0,1000,250.0,5,C27AG,295,test
496.95396423339844,1,4,2,0,3,5,M,1,5,5,0,1000,250.0,5,C27AG,296,test
991.9140338897705,1,4,2,0,3,5,M,1,4,1,0,1000,250.0,4,C27AG,297,test
368.5579299926758,1,4,2,0,3,5,M,1,3,4,0,1000,250.0,3,C27AG,298,test
576.7290592193604,1,4,2,0,3,5,M,1,0,3,0,1000,250.0,0,C27AG,299,test
704.4079303741455,1,4,2,0,3,5,M,1,1,0,0,1000,250.0,1,C27AG,300,test
384.1979503631592,1,4,2,0,3,5,M,1,2,2,0,1000,250.0,2,C27AG,301,test
592.1821594238281,1,4,2,0,3,5,M,1,2,2,0,1000,250.0,2,C27AG,302,test
592.2560691833496,1,4,2,0,3,5,M,1,2,2,0,1000,250.0,2,C27AG,303,test
688.5988712310791,1,4,2,0,3,5,M,1,1,0,0,1000,250.0,1,C27AG,304,test
400.9120464324951,1,4,2,0,3,5,M,1,1,0,0,1000,250.0,1,C27AG,305,test
880.5439472198486,1,4,2,0,3,5,M,1,5,5,0,1000,250.0,5,C27AG,306,test
880.4130554199219,1,4,2,0,3,5,M,1,1,0,0,1000,250.0,1,C27AG,307,test
560.5790615081787,1,4,2,0,3,5,M,1,4,1,0,1000,250.0,4,C27AG,308,test
448.3938217163086,1,4,2,0,3,5,M,1,4,1,0,1000,250.0,4,C27AG,309,test
352.91004180908203,1,4,2,0,3,5,M,0,1,0,0,1000,250.0,3,C27AG,310,test
609.0869903564453,1,4,2,0,3,5,M,1,5,5,0,1000,250.0,5,C27AG,311,test
544.4610118865967,1,4,2,0,3,5,M,1,5,5,0,1000,250.0,5,C27AG,312,test
496.61898612976074,1,4,2,0,3,5,M,1,4,1,0,1000,250.0,4,C27AG,313,test
624.5038509368896,1,4,2,0,3,5,M,1,2,2,0,1000,250.0,2,C27AG,314,test
446.6559886932373,1,4,2,0,3,5,M,1,2,2,0,1000,250.0,2,C27AG,315,test
689.410924911499,1,4,2,0,3,5,M,0,3,4,0,1000,250.0,4,C27AG,316,test
560.1739883422852,1,4,2,0,3,5,M,1,5,5,0,1000,250.0,5,C27AG,317,test
560.8389377593994,1,4,2,0,3,5,M,1,5,5,0,1000,250.0,5,C27AG,318,test
1088.8891220092773,1,4,2,0,3,5,M,0,3,4,0,1000,250.0,1,C27AG,319,test
736.3169193267822,1,4,2,0,3,5,M,1,1,0,0,1000,250.0,1,C27AG,320,test
577.0139694213867,1,4,2,0,3,5,M,1,3,4,0,1000,250.0,3,C27AG,321,test
736.6352081298828,1,4,2,0,3,5,M,1,3,4,0,1000,250.0,3,C27AG,322,test
544.435977935791,1,4,2,0,3,5,M,1,2,2,0,1000,250.0,2,C27AG,323,test
912.6207828521729,1,4,2,0,3,5,M,1,5,5,0,1000,250.0,5,C27AG,324,test
784.6329212188721,1,4,2,0,3,5,M,1,1,0,0,1000,250.0,1,C27AG,325,test
767.0788764953613,1,4,2,0,3,5,M,1,3,4,0,1000,250.0,3,C27AG,326,test
1744.046926498413,1,4,2,0,3,5,M,0,1,0,0,1000,250.0,3,C27AG,327,test
673.6829280853271,1,4,2,0,3,5,M,1,5,5,0,1000,250.0,5,C27AG,328,test
1808.377981185913,1,4,2,0,3,5,M,1,3,4,0,1000,250.0,3,C27AG,329,test
945.0318813323975,1,4,2,0,3,5,M,1,0,3,0,1000,250.0,0,C27AG,330,test
816.3509368896484,1,4,2,0,3,5,M,1,4,1,0,1000,250.0,4,C27AG,331,test
960.7620239257812,1,4,2,0,3,5,M,1,0,3,0,1000,250.0,0,C27AG,332,test
2046.6029644012451,1,4,2,0,3,5,M,1,2,2,0,1000,250.0,2,C27AG,333,test
544.5890426635742,1,4,2,0,3,5,M,1,1,0,0,1000,250.0,1,C27AG,334,test
768.5420513153076,1,4,2,0,3,5,M,0,4,1,0,1000,250.0,3,C27AG,335,test
736.2358570098877,1,4,2,0,3,5,M,1,3,4,0,1000,250.0,3,C27AG,336,test
574.5489597320557,1,4,2,0,3,5,M,1,1,0,0,1000,250.0,1,C27AG,337,test
800.4460334777832,1,4,2,0,3,5,M,1,3,4,0,1000,250.0,3,C27AG,338,test
784.2350006103516,1,4,2,0,3,5,M,1,2,2,0,1000,250.0,2,C27AG,339,test
672.2478866577148,1,4,2,0,3,5,M,0,3,4,0,1000,250.0,1,C27AG,340,test
1520.378828048706,1,4,2,0,3,5,M,0,4,1,0,1000,250.0,2,C27AG,341,test
864.3651008605957,1,4,2,0,3,5,M,1,3,4,0,1000,250.0,3,C27AG,342,test
1120.6259727478027,1,4,2,0,3,5,M,1,2,2,0,1000,250.0,2,C27AG,343,test
640.4271125793457,1,4,2,0,3,5,M,1,3,4,0,1000,250.0,3,C27AG,344,test
496.337890625,1,4,2,0,3,5,M,0,3,4,0,1000,250.0,2,C27AG,345,test
448.38905334472656,1,4,2,0,3,5,M,1,3,4,0,1000,250.0,3,C27AG,346,test
640.0132179260254,1,4,2,0,3,5,M,1,4,1,0,1000,250.0,4,C27AG,347,test
784.2240333557129,1,4,2,0,3,5,M,1,2,2,0,1000,250.0,2,C27AG,348,test
992.3648834228516,1,4,2,0,3,5,M,1,4,1,0,1000,250.0,4,C27AG,349,test
2048.3710765838623,1,4,2,0,3,5,M,1,5,5,0,1000,250.0,5,C27AG,350,test
977.0548343658447,1,4,2,0,3,5,M,1,0,3,0,1000,250.0,0,C27AG,351,test
2479.87699508667,1,4,2,0,3,5,M,1,2,2,0,1000,250.0,2,C27AG,352,test
832.4720859527588,1,4,2,0,3,5,M,1,0,3,0,1000,250.0,0,C27AG,353,test
1281.076192855835,1,4,2,0,3,5,M,1,3,4,0,1000,250.0,3,C27AG,354,test
1424.314022064209,1,4,2,0,3,5,M,1,3,4,0,1000,250.0,3,C27AG,355,test
688.2369518280029,1,4,2,0,3,5,M,0,5,5,0,1000,250.0,0,C27AG,356,test
625.0598430633545,1,4,2,0,3,5,M,1,3,4,0,1000,250.0,3,C27AG,357,test
1104.5639514923096,1,4,2,0,3,5,M,1,5,5,0,1000,250.0,5,C27AG,358,test
1376.4679431915283,1,4,2,0,3,5,M,1,0,3,0,1000,250.0,0,C27AG,359,test
3120.290994644165,1,4,2,0,3,5,M,1,4,1,0,1000,250.0,4,C27AG,360,test
816.5130615234375,1,4,2,0,3,5,M,1,0,3,0,1000,250.0,0,C27AG,361,test
896.3320255279541,1,4,2,0,3,5,M,1,4,1,0,1000,250.0,4,C27AG,362,test
640.3400897979736,1,4,2,0,3,5,M,1,2,2,0,1000,250.0,2,C27AG,363,test
592.9229259490967,1,4,2,0,3,5,M,1,0,3,0,1000,250.0,0,C27AG,364,test
1088.2580280303955,1,4,2,0,3,5,M,1,5,5,0,1000,250.0,5,C27AG,365,test
2016.545057296753,1,4,2,0,3,5,M,1,1,0,0,1000,250.0,1,C27AG,366,test
832.2558403015137,1,4,2,0,3,5,M,1,5,5,0,1000,250.0,5,C27AG,367,test
560.4140758514404,1,4,2,0,3,5,M,1,1,0,0,1000,250.0,1,C27AG,368,test
992.9628372192383,1,4,2,0,3,5,M,1,4,1,0,1000,250.0,4,C27AG,369,test
1232.5489521026611,1,4,2,0,3,5,M,1,5,5,0,1000,250.0,5,C27AG,370,test
592.1881198883057,1,4,2,0,3,5,M,0,2,2,0,1000,250.0,1,C27AG,371,test
624.5908737182617,1,4,2,0,3,5,M,1,0,3,0,1000,250.0,0,C27AG,372,test
1550.8530139923096,1,4,2,0,3,5,M,1,4,1,0,1000,250.0,4,C27AG,373,test
2320.240020751953,1,4,2,0,3,5,M,1,4,1,0,1000,250.0,4,C27AG,374,test
640.5210494995117,1,4,2,0,3,5,M,1,2,2,0,1000,250.0,2,C27AG,375,test
848.8600254058838,1,4,2,0,3,5,M,1,4,1,0,1000,250.0,4,C27AG,376,test
640.4929161071777,1,4,2,0,3,5,M,1,2,2,0,1000,250.0,2,C27AG,377,test
432.1398735046387,1,4,2,0,3,5,M,1,2,2,0,1000,250.0,2,C27AG,378,test
624.3629455566406,1,4,2,0,3,5,M,1,2,2,0,1000,250.0,2,C27AG,379,test
784.2440605163574,1,4,2,0,3,5,M,1,0,3,0,1000,250.0,0,C27AG,380,test
640.4399871826172,1,4,2,0,3,5,M,1,3,4,0,1000,250.0,3,C27AG,381,test
496.39296531677246,1,4,2,0,3,5,M,1,3,4,0,1000,250.0,3,C27AG,382,test
528.6459922790527,1,4,2,0,3,5,M,1,0,3,0,1000,250.0,0,C27AG,383,test
606.6391468048096,1,4,2,0,3,5,M,0,2,2,0,1000,250.0,1,C27AG,384,test
545.0131893157959,1,4,2,0,3,5,M,0,5,5,0,1000,250.0,0,C27AG,385,test
464.5259380340576,1,4,2,0,3,5,M,1,5,5,0,1000,250.0,5,C27AG,386,test
400.6609916687012,1,4,2,0,3,5,M,1,5,5,0,1000,250.0,5,C27AG,387,test
320.5578327178955,1,4,2,0,3,5,M,1,5,5,0,1000,250.0,5,C27AG,388,test
592.3988819122314,1,4,2,0,3,5,M,1,5,5,0,1000,250.0,5,C27AG,389,test
512.3209953308105,1,4,2,0,3,5,M,1,0,3,0,1000,250.0,0,C27AG,390,test
449.2161273956299,1,4,2,0,3,5,M,1,0,3,0,1000,250.0,0,C27AG,391,test
400.5160331726074,1,4,2,0,3,5,M,1,0,3,0,1000,250.0,0,C27AG,392,test
800.5599975585938,1,4,2,0,3,5,M,1,4,1,0,1000,250.0,4,C27AG,393,test
528.5768508911133,1,4,2,0,3,5,M,0,5,5,0,1000,250.0,0,C27AG,394,test
448.4291076660156,1,4,2,0,3,5,M,1,5,5,0,1000,250.0,5,C27AG,395,test
496.22201919555664,1,4,2,0,3,5,M,1,0,3,0,1000,250.0,0,C27AG,396,test
528.8310050964355,1,4,2,0,3,5,M,1,3,4,0,1000,250.0,3,C27AG,397,test
480.48996925354004,1,4,2,0,3,5,M,1,3,4,0,1000,250.0,3,C27AG,398,test
1104.917049407959,1,4,2,0,3,5,M,1,5,5,0,1000,250.0,5,C27AG,399,test
689.4819736480713,1,4,2,0,3,5,M,1,2,2,0,1000,250.0,2,C27AG,400,test
624.2771148681641,1,4,2,0,3,5,M,1,2,2,0,1000,250.0,2,C27AG,401,test
544.4121360778809,1,4,2,0,3,5,M,0,3,4,0,1000,250.0,4,C27AG,402,test
608.13307762146,1,4,2,0,3,5,M,1,3,4,0,1000,250.0,3,C27AG,403,test
1729.0778160095215,1,4,2,0,3,5,M,1,5,5,0,1000,250.0,5,C27AG,404,test
607.84912109375,1,4,2,0,3,5,M,1,4,1,0,1000,250.0,4,C27AG,405,test
528.4740924835205,1,4,2,0,3,5,M,1,4,1,0,1000,250.0,4,C27AG,406,test
974.5361804962158,1,4,2,0,3,5,M,1,2,2,0,1000,250.0,2,C27AG,407,test
961.0929489135742,1,4,2,0,3,5,M,1,4,1,0,1000,250.0,4,C27AG,408,test
542.6149368286133,1,4,2,0,3,5,M,1,4,1,0,1000,250.0,4,C27AG,409,test
1152.428150177002,1,4,2,0,3,5,M,1,2,2,0,1000,250.0,2,C27AG,410,test
896.1939811706543,1,4,2,0,3,5,M,1,0,3,0,1000,250.0,0,C27AG,411,test
560.5599880218506,1,4,2,0,3,5,M,1,2,2,0,1000,250.0,2,C27AG,412,test
1168.1220531463623,1,4,2,0,3,5,M,1,1,0,0,1000,250.0,1,C27AG,413,test
496.51288986206055,1,4,2,0,3,5,M,1,0,3,0,1000,250.0,0,C27AG,414,test
368.49498748779297,1,4,2,0,3,5,M,1,0,3,0,1000,250.0,0,C27AG,415,test
1152.2221565246582,1,4,2,0,3,5,M,1,1,0,0,1000,250.0,1,C27AG,416,test
480.3149700164795,1,4,2,0,3,5,M,1,2,2,0,1000,250.0,2,C27AG,417,test
400.53701400756836,1,4,2,0,3,5,M,1,2,2,0,1000,250.0,2,C27AG,418,test
832.4470520019531,1,4,2,0,3,5,M,1,5,5,0,1000,250.0,5,C27AG,419,test
368.21579933166504,1,4,2,0,3,5,M,1,5,5,0,1000,250.0,5,C27AG,420,test
576.7600536346436,1,4,2,0,3,5,M,1,3,4,0,1000,250.0,3,C27AG,421,test
640.3388977050781,1,4,2,0,3,5,M,1,5,5,0,1000,250.0,5,C27AG,422,test
591.9580459594727,1,4,2,0,3,5,M,1,4,1,0,1000,250.0,4,C27AG,423,test
576.82204246521,1,4,2,0,3,5,M,1,2,2,0,1000,250.0,2,C27AG,424,test
542.647123336792,1,4,2,0,3,5,M,1,0,3,0,1000,250.0,0,C27AG,425,test
496.4120388031006,1,4,2,0,3,5,M,1,2,2,0,1000,250.0,2,C27AG,426,test
624.330997467041,1,4,2,0,3,5,M,1,4,1,0,1000,250.0,4,C27AG,427,test
944.7808265686035,1,4,2,0,3,5,M,1,1,0,0,1000,250.0,1,C27AG,428,test
432.466983795166,1,4,2,0,3,5,M,1,2,2,0,1000,250.0,2,C27AG,429,test
480.32593727111816,1,4,2,0,3,5,M,1,0,3,0,1000,250.0,0,C27AG,430,test
656.3310623168945,1,4,2,0,3,5,M,1,1,0,0,1000,250.0,1,C27AG,431,test
607.8798770904541,1,4,2,0,3,5,M,1,1,0,0,1000,250.0,1,C27AG,432,test
592.1871662139893,1,4,2,0,3,5,M,1,4,1,0,1000,250.0,4,C27AG,433,test
832.6480388641357,1,4,2,0,3,5,M,1,3,4,0,1000,250.0,3,C27AG,434,test
752.4979114532471,1,4,2,0,3,5,M,1,5,5,0,1000,250.0,5,C27AG,435,test
3937.127113342285,1,4,2,0,3,5,M,1,0,3,0,1000,250.0,0,C27AG,436,test
1344.3500995635986,1,4,2,0,3,5,M,1,4,1,0,1000,250.0,4,C27AG,437,test
528.4512042999268,1,4,2,0,3,5,M,1,5,5,0,1000,250.0,5,C27AG,438,test
592.2529697418213,1,4,2,0,3,5,M,1,3,4,0,1000,250.0,3,C27AG,439,test
496.8750476837158,1,4,2,0,3,5,M,1,3,4,0,1000,250.0,3,C27AG,440,test
752.3989677429199,1,4,2,0,3,5,M,1,3,4,0,1000,250.0,3,C27AG,441,test
496.3040351867676,1,4,2,0,3,5,M,1,4,1,0,1000,250.0,4,C27AG,442,test
528.331995010376,1,4,2,0,3,5,M,1,3,4,0,1000,250.0,3,C27AG,443,test
768.2850360870361,1,4,2,0,3,5,M,1,5,5,0,1000,250.0,5,C27AG,444,test
3424.6389865875244,1,4,2,0,3,5,M,1,5,5,0,1000,250.0,5,C27AG,445,test
481.6150665283203,1,4,2,0,3,5,M,1,2,2,0,1000,250.0,2,C27AG,446,test
496.3269233703613,1,4,2,0,3,5,M,1,4,1,0,1000,250.0,4,C27AG,447,test
496.78897857666016,1,4,2,0,3,5,M,1,5,5,0,1000,250.0,5,C27AG,448,test
622.4751472473145,1,4,2,0,3,5,M,1,0,3,0,1000,250.0,0,C27AG,449,test
544.7690486907959,1,4,2,0,3,5,M,1,4,1,0,1000,250.0,4,C27AG,450,test
496.13404273986816,1,4,2,0,3,5,M,1,5,5,0,1000,250.0,5,C27AG,451,test
704.380989074707,1,4,2,0,3,5,M,1,2,2,0,1000,250.0,2,C27AG,452,test
544.5351600646973,1,4,2,0,3,5,M,1,1,0,0,1000,250.0,1,C27AG,453,test
864.1819953918457,1,4,2,0,3,5,M,0,4,1,0,1000,250.0,2,C27AG,454,test
607.4888706207275,1,4,2,0,3,5,M,1,3,4,0,1000,250.0,3,C27AG,455,test
576.5378475189209,1,4,2,0,3,5,M,1,2,2,0,1000,250.0,2,C27AG,456,test
976.4430522918701,1,4,2,0,3,5,M,1,3,4,0,1000,250.0,3,C27AG,457,test
544.1460609436035,1,4,2,0,3,5,M,1,3,4,0,1000,250.0,3,C27AG,458,test
625.0240802764893,1,4,2,0,3,5,M,1,1,0,0,1000,250.0,1,C27AG,459,test
495.80907821655273,1,4,2,0,3,5,M,0,4,1,0,1000,250.0,1,C27AG,460,test
1729.435920715332,1,4,2,0,3,5,M,1,1,0,0,1000,250.0,1,C27AG,461,test
640.4149532318115,1,4,2,0,3,5,M,1,5,5,0,1000,250.0,5,C27AG,462,test
1264.2130851745605,1,4,2,0,3,5,M,1,4,1,0,1000,250.0,4,C27AG,463,test
672.8639602661133,1,4,2,0,3,5,M,1,4,1,0,1000,250.0,4,C27AG,464,test
896.5120315551758,1,4,2,0,3,5,M,1,5,5,0,1000,250.0,5,C27AG,465,test
384.4330310821533,1,4,2,0,3,5,M,0,3,4,0,1000,250.0,5,C27AG,466,test
545.1500415802002,1,4,2,0,3,5,M,1,5,5,0,1000,250.0,5,C27AG,467,test
657.0889949798584,1,4,2,0,3,5,M,1,4,1,0,1000,250.0,4,C27AG,468,test
528.468132019043,1,4,2,0,3,5,M,1,5,5,0,1000,250.0,5,C27AG,469,test
752.2730827331543,1,4,2,0,3,5,M,1,1,0,0,1000,250.0,1,C27AG,470,test
752.0849704742432,1,4,2,0,3,5,M,1,0,3,0,1000,250.0,0,C27AG,471,test
721.0161685943604,1,4,2,0,3,5,M,1,4,1,0,1000,250.0,4,C27AG,472,test
831.9661617279053,1,4,2,0,3,5,M,1,0,3,0,1000,250.0,0,C27AG,473,test
481.01305961608887,1,4,2,0,3,5,M,1,0,3,0,1000,250.0,0,C27AG,474,test
928.5299777984619,1,4,2,0,3,5,M,1,4,1,0,1000,250.0,4,C27AG,475,test
2032.4909687042236,1,4,2,0,3,5,M,1,5,5,0,1000,250.0,5,C27AG,476,test
1168.337106704712,1,4,2,0,3,5,M,1,2,2,0,1000,250.0,2,C27AG,477,test
640.2850151062012,1,4,2,0,3,5,M,1,3,4,0,1000,250.0,3,C27AG,478,test
672.356128692627,1,4,2,0,3,5,M,1,0,3,0,1000,250.0,0,C27AG,479,test
592.4859046936035,1,4,2,0,3,5,M,1,4,1,0,1000,250.0,4,C27AG,480,test
705.071210861206,1,4,2,0,3,5,M,1,3,4,0,1000,250.0,3,C27AG,481,test
638.6470794677734,1,4,2,0,3,5,M,1,4,1,0,1000,250.0,4,C27AG,482,test
736.4158630371094,1,4,2,0,3,5,M,1,3,4,0,1000,250.0,3,C27AG,483,test
368.2129383087158,1,4,2,0,3,5,M,1,3,4,0,1000,250.0,3,C27AG,484,test
656.1770439147949,1,4,2,0,3,5,M,1,3,4,0,1000,250.0,3,C27AG,485,test
496.9809055328369,1,4,2,0,3,5,M,0,1,0,0,1000,250.0,3,C27AG,486,test
464.5388126373291,1,4,2,0,3,5,M,1,1,0,0,1000,250.0,1,C27AG,487,test
416.3088798522949,1,4,2,0,3,5,M,1,1,0,0,1000,250.0,1,C27AG,488,test
432.0330619812012,1,4,2,0,3,5,M,1,1,0,0,1000,250.0,1,C27AG,489,test
1072.9649066925049,1,4,2,0,3,5,M,1,2,2,0,1000,250.0,2,C27AG,490,test
784.5640182495117,1,4,2,0,3,5,M,1,4,1,0,1000,250.0,4,C27AG,491,test
3536.8878841400146,1,4,2,0,3,5,M,1,4,1,0,1000,250.0,4,C27AG,492,test
736.8910312652588,1,4,2,0,3,5,M,0,5,5,0,1000,250.0,0,C27AG,493,test
480.4990291595459,1,4,2,0,3,5,M,1,5,5,0,1000,250.0,5,C27AG,494,test
574.800968170166,1,4,2,0,3,5,M,1,1,0,0,1000,250.0,1,C27AG,495,test
400.162935256958,1,4,2,0,3,5,M,1,1,0,0,1000,250.0,1,C27AG,496,test
399.6551036834717,1,4,2,0,3,5,M,1,1,0,0,1000,250.0,1,C27AG,497,test
368.40295791625977,1,4,2,0,3,5,M,1,1,0,0,1000,250.0,1,C27AG,498,test
592.5130844116211,1,4,2,0,3,5,M,1,3,4,0,1000,250.0,3,C27AG,499,test
