RT,SRmap_0,SRmap_1,SRmap_2,SRmap_3,SRmap_4,SRmap_5,condition,correct,correct_response,curstim,ms-precue,ms-prestimblank,ntrials,response,subject,trial,type
5168.435096740723,3,2,0,4,1,5,H+,1,1,4,0,1000,250.0,1,D29MQ,0,train
1168.6530113220215,3,2,0,4,1,5,H+,1,0,2,0,1000,250.0,0,D29MQ,1,train
2240.5099868774414,3,2,0,4,1,5,H+,1,3,0,0,1000,250.0,3,D29MQ,2,train
752.708911895752,3,2,0,4,1,5,H+,1,4,3,0,1000,250.0,4,D29MQ,3,train
720.8139896392822,3,2,0,4,1,5,H+,1,5,5,0,1000,250.0,5,D29MQ,4,train
768.6700820922852,3,2,0,4,1,5,H+,1,0,2,0,1000,250.0,0,D29MQ,5,train
656.8200588226318,3,2,0,4,1,5,H+,1,2,1,0,1000,250.0,2,D29MQ,6,train
848.675012588501,3,2,0,4,1,5,H+,1,4,3,0,1000,250.0,4,D29MQ,7,train
1088.953971862793,3,2,0,4,1,5,H+,1,1,4,0,1000,250.0,1,D29MQ,8,train
1008.6979866027832,3,2,0,4,1,5,H+,0,2,1,0,1000,250.0,3,D29MQ,9,train
1040.9269332885742,3,2,0,4,1,5,H+,1,1,4,0,1000,250.0,1,D29MQ,10,train
864.8340702056885,3,2,0,4,1,5,H+,1,5,5,0,1000,250.0,5,D29MQ,11,train
944.7000026702881,3,2,0,4,1,5,H+,1,1,4,0,1000,250.0,1,D29MQ,12,train
848.7389087677002,3,2,0,4,1,5,H+,1,5,5,0,1000,250.0,5,D29MQ,13,train
656.6791534423828,3,2,0,4,1,5,H+,1,4,3,0,1000,250.0,4,D29MQ,14,train
400.799036026001,3,2,0,4,1,5,H+,1,3,0,0,1000,250.0,3,D29MQ,15,train
1008.7289810180664,3,2,0,4,1,5,H+,1,4,3,0,1000,250.0,4,D29MQ,16,train
368.6408996582031,3,2,0,4,1,5,H+,1,5,5,0,1000,250.0,5,D29MQ,17,train
560.7810020446777,3,2,0,4,1,5,H+,1,0,2,0,1000,250.0,0,D29MQ,18,train
688.7919902801514,3,2,0,4,1,5,H+,1,1,4,0,1000,250.0,1,D29MQ,19,train
560.9138011932373,3,2,0,4,1,5,H+,0,2,1,0,1000,250.0,0,D29MQ,20,train
640.8119201660156,3,2,0,4,1,5,H+,1,1,4,0,1000,250.0,1,D29MQ,21,train
1232.6149940490723,3,2,0,4,1,5,H+,0,2,1,0,1000,250.0,1,D29MQ,22,train
1072.7040767669678,3,2,0,4,1,5,H+,1,5,5,0,1000,250.0,5,D29MQ,23,train
704.7500610351562,3,2,0,4,1,5,H+,1,4,3,0,1000,250.0,4,D29MQ,24,train
800.7569313049316,3,2,0,4,1,5,H+,1,3,0,0,1000,250.0,3,D29MQ,25,train
512.6609802246094,3,2,0,4,1,5,H+,1,1,4,0,1000,250.0,1,D29MQ,26,train
736.4199161529541,3,2,0,4,1,5,H+,1,0,2,0,1000,250.0,0,D29MQ,27,train
384.6700191497803,3,2,0,4,1,5,H+,1,2,1,0,1000,250.0,2,D29MQ,28,train
720.6659317016602,3,2,0,4,1,5,H+,1,1,4,0,1000,250.0,1,D29MQ,29,train
880.5201053619385,3,2,0,4,1,5,H+,1,4,3,0,1000,250.0,4,D29MQ,30,train
608.8840961456299,3,2,0,4,1,5,H+,1,4,3,0,1000,250.0,4,D29MQ,31,train
768.8150405883789,3,2,0,4,1,5,H+,1,0,2,0,1000,250.0,0,D29MQ,32,train
768.8078880310059,3,2,0,4,1,5,H+,1,4,3,0,1000,250.0,4,D29MQ,33,train
1024.7809886932373,3,2,0,4,1,5,H+,1,3,0,0,1000,250.0,3,D29MQ,34,train
768.9411640167236,3,2,0,4,1,5,H+,1,5,5,0,1000,250.0,5,D29MQ,35,train
768.6901092529297,3,2,0,4,1,5,H+,1,5,5,0,1000,250.0,5,D29MQ,36,train
1024.9710083007812,3,2,0,4,1,5,H+,1,3,0,0,1000,250.0,3,D29MQ,37,train
544.7690486907959,3,2,0,4,1,5,H+,1,5,5,0,1000,250.0,5,D29MQ,38,train
736.7949485778809,3,2,0,4,1,5,H+,1,3,0,0,1000,250.0,3,D29MQ,39,train
816.9550895690918,3,2,0,4,1,5,H+,1,0,2,0,1000,250.0,0,D29MQ,40,train
656.7959785461426,3,2,0,4,1,5,H+,1,2,1,0,1000,250.0,2,D29MQ,41,train
640.841007232666,3,2,0,4,1,5,H+,1,1,4,0,1000,250.0,1,D29MQ,42,train
704.7419548034668,3,2,0,4,1,5,H+,1,0,2,0,1000,250.0,0,D29MQ,43,train
720.6778526306152,3,2,0,4,1,5,H+,1,4,3,0,1000,250.0,4,D29MQ,44,train
624.6929168701172,3,2,0,4,1,5,H+,1,0,2,0,1000,250.0,0,D29MQ,45,train
400.7229804992676,3,2,0,4,1,5,H+,1,2,1,0,1000,250.0,2,D29MQ,46,train
656.4929485321045,3,2,0,4,1,5,H+,1,0,2,0,1000,250.0,0,D29MQ,47,train
736.7870807647705,3,2,0,4,1,5,H+,1,3,0,0,1000,250.0,3,D29MQ,48,train
1088.681936264038,3,2,0,4,1,5,H+,1,1,4,0,1000,250.0,1,D29MQ,49,train
720.7388877868652,3,2,0,4,1,5,H+,1,4,3,0,1000,250.0,4,D29MQ,50,train
496.7319965362549,3,2,0,4,1,5,H+,1,4,3,0,1000,250.0,4,D29MQ,51,train
848.8318920135498,3,2,0,4,1,5,H+,1,2,1,0,1000,250.0,2,D29MQ,52,train
1360.973834991455,3,2,0,4,1,5,H+,1,4,3,0,1000,250.0,4,D29MQ,53,train
1072.957992553711,3,2,0,4,1,5,H+,1,1,4,0,1000,250.0,1,D29MQ,54,train
976.7179489135742,3,2,0,4,1,5,H+,1,0,2,0,1000,250.0,0,D29MQ,55,train
864.9899959564209,3,2,0,4,1,5,H+,1,4,3,0,1000,250.0,4,D29MQ,56,train
784.7940921783447,3,2,0,4,1,5,H+,1,5,5,0,1000,250.0,5,D29MQ,57,train
928.8349151611328,3,2,0,4,1,5,H+,1,2,1,0,1000,250.0,2,D29MQ,58,train
832.8289985656738,3,2,0,4,1,5,H+,1,4,3,0,1000,250.0,4,D29MQ,59,train
704.7731876373291,3,2,0,4,1,5,H+,1,0,2,0,1000,250.0,0,D29MQ,60,train
1008.8849067687988,3,2,0,4,1,5,H+,1,3,0,0,1000,250.0,3,D29MQ,61,train
656.5952301025391,3,2,0,4,1,5,H+,1,4,3,0,1000,250.0,4,D29MQ,62,train
432.6598644256592,3,2,0,4,1,5,H+,1,4,3,0,1000,250.0,4,D29MQ,63,train
448.8790035247803,3,2,0,4,1,5,H+,1,5,5,0,1000,250.0,5,D29MQ,64,train
880.7318210601807,3,2,0,4,1,5,H+,0,1,4,0,1000,250.0,2,D29MQ,65,train
704.8678398132324,3,2,0,4,1,5,H+,1,1,4,0,1000,250.0,1,D29MQ,66,train
960.8340263366699,3,2,0,4,1,5,H+,0,2,1,0,1000,250.0,1,D29MQ,67,train
816.9131278991699,3,2,0,4,1,5,H+,1,3,0,0,1000,250.0,3,D29MQ,68,train
912.8270149230957,3,2,0,4,1,5,H+,1,0,2,0,1000,250.0,0,D29MQ,69,train
896.7719078063965,3,2,0,4,1,5,H+,1,3,0,0,1000,250.0,3,D29MQ,70,train
688.8418197631836,3,2,0,4,1,5,H+,1,4,3,0,1000,250.0,4,D29MQ,71,train
704.7710418701172,3,2,0,4,1,5,H+,1,2,1,0,1000,250.0,2,D29MQ,72,train
848.6719131469727,3,2,0,4,1,5,H+,1,1,4,0,1000,250.0,1,D29MQ,73,train
400.76494216918945,3,2,0,4,1,5,H+,1,3,0,0,1000,250.0,3,D29MQ,74,train
720.6661701202393,3,2,0,4,1,5,H+,1,1,4,0,1000,250.0,1,D29MQ,75,train
816.8430328369141,3,2,0,4,1,5,H+,1,1,4,0,1000,250.0,1,D29MQ,76,train
432.42597579956055,3,2,0,4,1,5,H+,1,1,4,0,1000,250.0,1,D29MQ,77,train
752.6569366455078,3,2,0,4,1,5,H+,0,2,1,0,1000,250.0,0,D29MQ,78,train
720.811128616333,3,2,0,4,1,5,H+,1,5,5,0,1000,250.0,5,D29MQ,79,train
544.4509983062744,3,2,0,4,1,5,H+,1,0,2,0,1000,250.0,0,D29MQ,80,train
704.8101425170898,3,2,0,4,1,5,H+,1,4,3,0,1000,250.0,4,D29MQ,81,train
976.6860008239746,3,2,0,4,1,5,H+,1,3,0,0,1000,250.0,3,D29MQ,82,train
1312.6399517059326,3,2,0,4,1,5,H+,1,0,2,0,1000,250.0,0,D29MQ,83,train
656.7108631134033,3,2,0,4,1,5,H+,1,0,2,0,1000,250.0,0,D29MQ,84,train
544.9011325836182,3,2,0,4,1,5,H+,1,0,2,0,1000,250.0,0,D29MQ,85,train
688.647985458374,3,2,0,4,1,5,H+,1,4,3,0,1000,250.0,4,D29MQ,86,train
784.8408222198486,3,2,0,4,1,5,H+,1,3,0,0,1000,250.0,3,D29MQ,87,train
1056.6778182983398,3,2,0,4,1,5,H+,1,2,1,0,1000,250.0,2,D29MQ,88,train
1440.7989978790283,3,2,0,4,1,5,H+,0,1,4,0,1000,250.0,0,D29MQ,89,train
960.7670307159424,3,2,0,4,1,5,H+,1,0,2,0,1000,250.0,0,D29MQ,90,train
592.6508903503418,3,2,0,4,1,5,H+,1,2,1,0,1000,250.0,2,D29MQ,91,train
784.8038673400879,3,2,0,4,1,5,H+,1,1,4,0,1000,250.0,1,D29MQ,92,train
528.7160873413086,3,2,0,4,1,5,H+,1,1,4,0,1000,250.0,1,D29MQ,93,train
560.7290267944336,3,2,0,4,1,5,H+,1,1,4,0,1000,250.0,1,D29MQ,94,train
704.6890258789062,3,2,0,4,1,5,H+,1,2,1,0,1000,250.0,2,D29MQ,95,train
416.6598320007324,3,2,0,4,1,5,H+,1,3,0,0,1000,250.0,3,D29MQ,96,train
864.7239208221436,3,2,0,4,1,5,H+,1,0,2,0,1000,250.0,0,D29MQ,97,train
656.851053237915,3,2,0,4,1,5,H+,1,1,4,0,1000,250.0,1,D29MQ,98,train
832.5390815734863,3,2,0,4,1,5,H+,1,1,4,0,1000,250.0,1,D29MQ,99,train
736.8710041046143,3,2,0,4,1,5,H+,1,5,5,0,1000,250.0,5,D29MQ,100,train
480.8168411254883,3,2,0,4,1,5,H+,1,4,3,0,1000,250.0,4,D29MQ,101,train
608.1340312957764,3,2,0,4,1,5,H+,1,1,4,0,1000,250.0,1,D29MQ,102,train
560.8010292053223,3,2,0,4,1,5,H+,1,2,1,0,1000,250.0,2,D29MQ,103,train
832.9010009765625,3,2,0,4,1,5,H+,1,5,5,0,1000,250.0,5,D29MQ,104,train
896.7390060424805,3,2,0,4,1,5,H+,1,0,2,0,1000,250.0,0,D29MQ,105,train
464.799165725708,3,2,0,4,1,5,H+,1,1,4,0,1000,250.0,1,D29MQ,106,train
512.7730369567871,3,2,0,4,1,5,H+,1,1,4,0,1000,250.0,1,D29MQ,107,train
656.9268703460693,3,2,0,4,1,5,H+,1,4,3,0,1000,250.0,4,D29MQ,108,train
848.7849235534668,3,2,0,4,1,5,H+,1,0,2,0,1000,250.0,0,D29MQ,109,train
784.8269939422607,3,2,0,4,1,5,H+,1,4,3,0,1000,250.0,4,D29MQ,110,train
1280.6270122528076,3,2,0,4,1,5,H+,1,3,0,0,1000,250.0,3,D29MQ,111,train
512.7029418945312,3,2,0,4,1,5,H+,1,3,0,0,1000,250.0,3,D29MQ,112,train
368.81399154663086,3,2,0,4,1,5,H+,1,3,0,0,1000,250.0,3,D29MQ,113,train
672.6601123809814,3,2,0,4,1,5,H+,1,5,5,0,1000,250.0,5,D29MQ,114,train
496.90890312194824,3,2,0,4,1,5,H+,1,5,5,0,1000,250.0,5,D29MQ,115,train
336.6999626159668,3,2,0,4,1,5,H+,1,4,3,0,1000,250.0,4,D29MQ,116,train
608.6671352386475,3,2,0,4,1,5,H+,1,3,0,0,1000,250.0,3,D29MQ,117,train
496.69384956359863,3,2,0,4,1,5,H+,1,5,5,0,1000,250.0,5,D29MQ,118,train
1008.6460113525391,3,2,0,4,1,5,H+,1,2,1,0,1000,250.0,2,D29MQ,119,train
496.7930316925049,3,2,0,4,1,5,H+,1,5,5,0,1000,250.0,5,D29MQ,120,train
496.6301918029785,3,2,0,4,1,5,H+,1,4,3,0,1000,250.0,4,D29MQ,121,train
576.7130851745605,3,2,0,4,1,5,H+,1,3,0,0,1000,250.0,3,D29MQ,122,train
576.6310691833496,3,2,0,4,1,5,H+,1,4,3,0,1000,250.0,4,D29MQ,123,train
672.7879047393799,3,2,0,4,1,5,H+,1,2,1,0,1000,250.0,2,D29MQ,124,train
720.6828594207764,3,2,0,4,1,5,H+,1,3,0,0,1000,250.0,3,D29MQ,125,train
720.6850051879883,3,2,0,4,1,5,H+,1,2,1,0,1000,250.0,2,D29MQ,126,train
880.8329105377197,3,2,0,4,1,5,H+,1,1,4,0,1000,250.0,1,D29MQ,127,train
544.7680950164795,3,2,0,4,1,5,H+,1,0,2,0,1000,250.0,0,D29MQ,128,train
592.6380157470703,3,2,0,4,1,5,H+,1,3,0,0,1000,250.0,3,D29MQ,129,train
368.63183975219727,3,2,0,4,1,5,H+,1,4,3,0,1000,250.0,4,D29MQ,130,train
768.7408924102783,3,2,0,4,1,5,H+,0,1,4,0,1000,250.0,2,D29MQ,131,train
832.7481746673584,3,2,0,4,1,5,H+,1,4,3,0,1000,250.0,4,D29MQ,132,train
400.8181095123291,3,2,0,4,1,5,H+,1,4,3,0,1000,250.0,4,D29MQ,133,train
768.7151432037354,3,2,0,4,1,5,H+,1,0,2,0,1000,250.0,0,D29MQ,134,train
992.9120540618896,3,2,0,4,1,5,H+,1,3,0,0,1000,250.0,3,D29MQ,135,train
576.7948627471924,3,2,0,4,1,5,H+,1,3,0,0,1000,250.0,3,D29MQ,136,train
784.7468852996826,3,2,0,4,1,5,H+,1,5,5,0,1000,250.0,5,D29MQ,137,train
544.8160171508789,3,2,0,4,1,5,H+,1,3,0,0,1000,250.0,3,D29MQ,138,train
608.3908081054688,3,2,0,4,1,5,H+,1,5,5,0,1000,250.0,5,D29MQ,139,train
480.91912269592285,3,2,0,4,1,5,H+,1,4,3,0,1000,250.0,4,D29MQ,140,train
688.7860298156738,3,2,0,4,1,5,H+,1,4,3,0,1000,250.0,4,D29MQ,141,train
672.7249622344971,3,2,0,4,1,5,H+,1,1,4,0,1000,250.0,1,D29MQ,142,train
560.8279705047607,3,2,0,4,1,5,H+,1,2,1,0,1000,250.0,2,D29MQ,143,train
432.6651096343994,3,2,0,4,1,5,H+,1,0,2,0,1000,250.0,0,D29MQ,144,train
752.8648376464844,3,2,0,4,1,5,H+,0,5,5,0,1000,250.0,4,D29MQ,145,train
705.0468921661377,3,2,0,4,1,5,H+,1,3,0,0,1000,250.0,3,D29MQ,146,train
417.0091152191162,3,2,0,4,1,5,H+,1,5,5,0,1000,250.0,5,D29MQ,147,train
1601.0339260101318,3,2,0,4,1,5,H+,1,0,2,0,1000,250.0,0,D29MQ,148,train
785.0139141082764,3,2,0,4,1,5,H+,1,3,0,0,1000,250.0,3,D29MQ,149,train
1009.181022644043,3,2,0,4,1,5,H+,1,2,1,0,1000,250.0,2,D29MQ,150,train
721.0860252380371,3,2,0,4,1,5,H+,0,4,3,0,1000,250.0,5,D29MQ,151,train
544.9340343475342,3,2,0,4,1,5,H+,1,4,3,0,1000,250.0,4,D29MQ,152,train
368.99304389953613,3,2,0,4,1,5,H+,1,5,5,0,1000,250.0,5,D29MQ,153,train
705.0998210906982,3,2,0,4,1,5,H+,1,2,1,0,1000,250.0,2,D29MQ,154,train
977.1599769592285,3,2,0,4,1,5,H+,1,3,0,0,1000,250.0,3,D29MQ,155,train
577.0368576049805,3,2,0,4,1,5,H+,1,1,4,0,1000,250.0,1,D29MQ,156,train
544.9669361114502,3,2,0,4,1,5,H+,1,0,2,0,1000,250.0,0,D29MQ,157,train
624.8807907104492,3,2,0,4,1,5,H+,1,4,3,0,1000,250.0,4,D29MQ,158,train
801.2158870697021,3,2,0,4,1,5,H+,1,1,4,0,1000,250.0,1,D29MQ,159,train
561.1538887023926,3,2,0,4,1,5,H+,1,0,2,0,1000,250.0,0,D29MQ,160,train
801.0330200195312,3,2,0,4,1,5,H+,1,3,0,0,1000,250.0,3,D29MQ,161,train
592.979907989502,3,2,0,4,1,5,H+,1,4,3,0,1000,250.0,4,D29MQ,162,train
512.9799842834473,3,2,0,4,1,5,H+,1,5,5,0,1000,250.0,5,D29MQ,163,train
625.075101852417,3,2,0,4,1,5,H+,1,3,0,0,1000,250.0,3,D29MQ,164,train
593.0259227752686,3,2,0,4,1,5,H+,1,4,3,0,1000,250.0,4,D29MQ,165,train
400.87199211120605,3,2,0,4,1,5,H+,1,5,5,0,1000,250.0,5,D29MQ,166,train
688.7528896331787,3,2,0,4,1,5,H+,1,2,1,0,1000,250.0,2,D29MQ,167,train
480.68904876708984,3,2,0,4,1,5,H+,1,1,4,0,1000,250.0,1,D29MQ,168,train
544.6829795837402,3,2,0,4,1,5,H+,1,1,4,0,1000,250.0,1,D29MQ,169,train
640.6621932983398,3,2,0,4,1,5,H+,1,3,0,0,1000,250.0,3,D29MQ,170,train
512.768030166626,3,2,0,4,1,5,H+,1,2,1,0,1000,250.0,2,D29MQ,171,train
592.7698612213135,3,2,0,4,1,5,H+,1,1,4,0,1000,250.0,1,D29MQ,172,train
608.7181568145752,3,2,0,4,1,5,H+,1,4,3,0,1000,250.0,4,D29MQ,173,train
560.6658458709717,3,2,0,4,1,5,H+,1,2,1,0,1000,250.0,2,D29MQ,174,train
528.7411212921143,3,2,0,4,1,5,H+,1,1,4,0,1000,250.0,1,D29MQ,175,train
512.6590728759766,3,2,0,4,1,5,H+,1,3,0,0,1000,250.0,3,D29MQ,176,train
416.72801971435547,3,2,0,4,1,5,H+,1,4,3,0,1000,250.0,4,D29MQ,177,train
480.70502281188965,3,2,0,4,1,5,H+,1,5,5,0,1000,250.0,5,D29MQ,178,train
528.670072555542,3,2,0,4,1,5,H+,1,1,4,0,1000,250.0,1,D29MQ,179,train
480.7138442993164,3,2,0,4,1,5,H+,1,4,3,0,1000,250.0,4,D29MQ,180,train
608.5889339447021,3,2,0,4,1,5,H+,1,4,3,0,1000,250.0,4,D29MQ,181,train
432.80982971191406,3,2,0,4,1,5,H+,1,4,3,0,1000,250.0,4,D29MQ,182,train
608.6950302124023,3,2,0,4,1,5,H+,1,2,1,0,1000,250.0,2,D29MQ,183,train
576.711893081665,3,2,0,4,1,5,H+,0,5,5,0,1000,250.0,4,D29MQ,184,train
784.7909927368164,3,2,0,4,1,5,H+,1,3,0,0,1000,250.0,3,D29MQ,185,train
784.9009037017822,3,2,0,4,1,5,H+,1,3,0,0,1000,250.0,3,D29MQ,186,train
432.6770305633545,3,2,0,4,1,5,H+,1,1,4,0,1000,250.0,1,D29MQ,187,train
528.6288261413574,3,2,0,4,1,5,H+,1,0,2,0,1000,250.0,0,D29MQ,188,train
672.8181838989258,3,2,0,4,1,5,H+,1,3,0,0,1000,250.0,3,D29MQ,189,train
480.69000244140625,3,2,0,4,1,5,H+,1,2,1,0,1000,250.0,2,D29MQ,190,train
624.6500015258789,3,2,0,4,1,5,H+,1,4,3,0,1000,250.0,4,D29MQ,191,train
704.7691345214844,3,2,0,4,1,5,H+,1,3,0,0,1000,250.0,3,D29MQ,192,train
528.723955154419,3,2,0,4,1,5,H+,1,3,0,0,1000,250.0,3,D29MQ,193,train
624.7138977050781,3,2,0,4,1,5,H+,1,4,3,0,1000,250.0,4,D29MQ,194,train
480.70788383483887,3,2,0,4,1,5,H+,1,3,0,0,1000,250.0,3,D29MQ,195,train
640.761137008667,3,2,0,4,1,5,H+,1,0,2,0,1000,250.0,0,D29MQ,196,train
576.7049789428711,3,2,0,4,1,5,H+,1,5,5,0,1000,250.0,5,D29MQ,197,train
512.9079818725586,3,2,0,4,1,5,H+,1,3,0,0,1000,250.0,3,D29MQ,198,train
592.6120281219482,3,2,0,4,1,5,H+,1,2,1,0,1000,250.0,2,D29MQ,199,train
480.66186904907227,3,2,0,4,1,5,H+,1,0,2,0,1000,250.0,0,D29MQ,200,train
544.6670055389404,3,2,0,4,1,5,H+,1,1,4,0,1000,250.0,1,D29MQ,201,train
592.6721096038818,3,2,0,4,1,5,H+,1,3,0,0,1000,250.0,3,D29MQ,202,train
448.72498512268066,3,2,0,4,1,5,H+,1,3,0,0,1000,250.0,3,D29MQ,203,train
528.8410186767578,3,2,0,4,1,5,H+,1,2,1,0,1000,250.0,2,D29MQ,204,train
672.6541519165039,3,2,0,4,1,5,H+,0,4,3,0,1000,250.0,5,D29MQ,205,train
1024.7840881347656,3,2,0,4,1,5,H+,1,1,4,0,1000,250.0,1,D29MQ,206,train
544.6641445159912,3,2,0,4,1,5,H+,1,1,4,0,1000,250.0,1,D29MQ,207,train
704.7631740570068,3,2,0,4,1,5,H+,1,4,3,0,1000,250.0,4,D29MQ,208,train
656.7440032958984,3,2,0,4,1,5,H+,1,5,5,0,1000,250.0,5,D29MQ,209,train
736.6859912872314,3,2,0,4,1,5,H+,1,2,1,0,1000,250.0,2,D29MQ,210,train
640.9358978271484,3,2,0,4,1,5,H+,1,4,3,0,1000,250.0,4,D29MQ,211,train
544.8720455169678,3,2,0,4,1,5,H+,1,2,1,0,1000,250.0,2,D29MQ,212,train
608.6869239807129,3,2,0,4,1,5,H+,1,1,4,0,1000,250.0,1,D29MQ,213,train
592.6427841186523,3,2,0,4,1,5,H+,1,4,3,0,1000,250.0,4,D29MQ,214,train
352.6139259338379,3,2,0,4,1,5,H+,1,5,5,0,1000,250.0,5,D29MQ,215,train
608.435869216919,3,2,0,4,1,5,H+,1,4,3,0,1000,250.0,4,D29MQ,216,train
545.3310012817383,3,2,0,4,1,5,H+,1,1,4,0,1000,250.0,1,D29MQ,217,train
528.702974319458,3,2,0,4,1,5,H+,1,2,1,0,1000,250.0,2,D29MQ,218,train
784.7888469696045,3,2,0,4,1,5,H+,1,2,1,0,1000,250.0,2,D29MQ,219,train
416.8691635131836,3,2,0,4,1,5,H+,1,0,2,0,1000,250.0,0,D29MQ,220,train
688.6610984802246,3,2,0,4,1,5,H+,1,4,3,0,1000,250.0,4,D29MQ,221,train
576.9591331481934,3,2,0,4,1,5,H+,1,2,1,0,1000,250.0,2,D29MQ,222,train
544.651985168457,3,2,0,4,1,5,H+,1,5,5,0,1000,250.0,5,D29MQ,223,train
480.64112663269043,3,2,0,4,1,5,H+,1,0,2,0,1000,250.0,0,D29MQ,224,train
352.6179790496826,3,2,0,4,1,5,H+,0,0,2,0,1000,250.0,2,D29MQ,225,train
592.7648544311523,3,2,0,4,1,5,H+,1,5,5,0,1000,250.0,5,D29MQ,226,train
480.6652069091797,3,2,0,4,1,5,H+,1,0,2,0,1000,250.0,0,D29MQ,227,train
576.7159461975098,3,2,0,4,1,5,H+,1,5,5,0,1000,250.0,5,D29MQ,228,train
512.6168727874756,3,2,0,4,1,5,H+,1,3,0,0,1000,250.0,3,D29MQ,229,train
512.7308368682861,3,2,0,4,1,5,H+,1,1,4,0,1000,250.0,1,D29MQ,230,train
336.8370532989502,3,2,0,4,1,5,H+,1,0,2,0,1000,250.0,0,D29MQ,231,train
512.7301216125488,3,2,0,4,1,5,H+,1,5,5,0,1000,250.0,5,D29MQ,232,train
496.9358444213867,3,2,0,4,1,5,H+,1,0,2,0,1000,250.0,0,D29MQ,233,train
400.62403678894043,3,2,0,4,1,5,H+,1,2,1,0,1000,250.0,2,D29MQ,234,train
560.6968402862549,3,2,0,4,1,5,H+,1,3,0,0,1000,250.0,3,D29MQ,235,train
528.6059379577637,3,2,0,4,1,5,H+,1,0,2,0,1000,250.0,0,D29MQ,236,train
384.68289375305176,3,2,0,4,1,5,H+,1,5,5,0,1000,250.0,5,D29MQ,237,train
400.784969329834,3,2,0,4,1,5,H+,1,0,2,0,1000,250.0,0,D29MQ,238,train
496.65212631225586,3,2,0,4,1,5,H+,1,5,5,0,1000,250.0,5,D29MQ,239,train
528.7110805511475,3,2,0,4,1,5,H+,1,4,3,0,1000,250.0,4,D29MQ,240,train
512.7968788146973,3,2,0,4,1,5,H+,1,1,4,0,1000,250.0,1,D29MQ,241,train
560.8358383178711,3,2,0,4,1,5,H+,1,5,5,0,1000,250.0,5,D29MQ,242,train
528.7768840789795,3,2,0,4,1,5,H+,1,2,1,0,1000,250.0,2,D29MQ,243,train
496.6120719909668,3,2,0,4,1,5,H+,1,1,4,0,1000,250.0,1,D29MQ,244,train
528.4850597381592,3,2,0,4,1,5,H+,1,0,2,0,1000,250.0,0,D29MQ,245,train
528.7179946899414,3,2,0,4,1,5,H+,0,4,3,0,1000,250.0,5,D29MQ,246,train
528.7959575653076,3,2,0,4,1,5,H+,1,0,2,0,1000,250.0,0,D29MQ,247,train
368.76392364501953,3,2,0,4,1,5,H+,1,2,1,0,1000,250.0,2,D29MQ,248,train
656.6650867462158,3,2,0,4,1,5,H+,1,5,5,0,1000,250.0,5,D29MQ,249,train
1264.9750709533691,3,2,0,4,1,5,H+,1,3,0,0,1000,250.0,3,D29MQ,250,test
640.9919261932373,3,2,0,4,1,5,H+,1,4,3,0,1000,250.0,4,D29MQ,251,test
577.0490169525146,3,2,0,4,1,5,H+,1,4,3,0,1000,250.0,4,D29MQ,252,test
641.0439014434814,3,2,0,4,1,5,H+,1,0,2,0,1000,250.0,0,D29MQ,253,test
593.0910110473633,3,2,0,4,1,5,H+,1,1,4,0,1000,250.0,1,D29MQ,254,test
577.0840644836426,3,2,0,4,1,5,H+,1,1,4,0,1000,250.0,1,D29MQ,255,test
368.9901828765869,3,2,0,4,1,5,H+,1,1,4,0,1000,250.0,1,D29MQ,256,test
737.0920181274414,3,2,0,4,1,5,H+,1,4,3,0,1000,250.0,4,D29MQ,257,test
641.0460472106934,3,2,0,4,1,5,H+,1,4,3,0,1000,250.0,4,D29MQ,258,test
721.0891246795654,3,2,0,4,1,5,H+,1,0,2,0,1000,250.0,0,D29MQ,259,test
465.04902839660645,3,2,0,4,1,5,H+,1,0,2,0,1000,250.0,0,D29MQ,260,test
720.9949493408203,3,2,0,4,1,5,H+,1,3,0,0,1000,250.0,3,D29MQ,261,test
656.9898128509521,3,2,0,4,1,5,H+,1,4,3,0,1000,250.0,4,D29MQ,262,test
497.04885482788086,3,2,0,4,1,5,H+,1,0,2,0,1000,250.0,0,D29MQ,263,test
545.086145401001,3,2,0,4,1,5,H+,1,2,1,0,1000,250.0,2,D29MQ,264,test
528.9971828460693,3,2,0,4,1,5,H+,1,2,1,0,1000,250.0,2,D29MQ,265,test
833.0109119415283,3,2,0,4,1,5,H+,1,5,5,0,1000,250.0,5,D29MQ,266,test
545.0270175933838,3,2,0,4,1,5,H+,1,0,2,0,1000,250.0,0,D29MQ,267,test
641.1199569702148,3,2,0,4,1,5,H+,1,4,3,0,1000,250.0,4,D29MQ,268,test
609.0168952941895,3,2,0,4,1,5,H+,1,3,0,0,1000,250.0,3,D29MQ,269,test
608.9339256286621,3,2,0,4,1,5,H+,1,2,1,0,1000,250.0,2,D29MQ,270,test
673.1438636779785,3,2,0,4,1,5,H+,1,4,3,0,1000,250.0,4,D29MQ,271,test
432.82008171081543,3,2,0,4,1,5,H+,1,5,5,0,1000,250.0,5,D29MQ,272,test
433.38799476623535,3,2,0,4,1,5,H+,1,5,5,0,1000,250.0,5,D29MQ,273,test
512.7999782562256,3,2,0,4,1,5,H+,0,3,0,0,1000,250.0,5,D29MQ,274,test
721.1940288543701,3,2,0,4,1,5,H+,1,1,4,0,1000,250.0,1,D29MQ,275,test
577.0740509033203,3,2,0,4,1,5,H+,1,3,0,0,1000,250.0,3,D29MQ,276,test
513.0980014801025,3,2,0,4,1,5,H+,1,0,2,0,1000,250.0,0,D29MQ,277,test
544.9349880218506,3,2,0,4,1,5,H+,1,3,0,0,1000,250.0,3,D29MQ,278,test
640.9778594970703,3,2,0,4,1,5,H+,1,4,3,0,1000,250.0,4,D29MQ,279,test
464.98918533325195,3,2,0,4,1,5,H+,1,4,3,0,1000,250.0,4,D29MQ,280,test
497.0889091491699,3,2,0,4,1,5,H+,1,3,0,0,1000,250.0,3,D29MQ,281,test
513.002872467041,3,2,0,4,1,5,H+,1,1,4,0,1000,250.0,1,D29MQ,282,test
401.16405487060547,3,2,0,4,1,5,H+,1,2,1,0,1000,250.0,2,D29MQ,283,test
465.0571346282959,3,2,0,4,1,5,H+,1,3,0,0,1000,250.0,3,D29MQ,284,test
497.0121383666992,3,2,0,4,1,5,H+,1,3,0,0,1000,250.0,3,D29MQ,285,test
369.2011833190918,3,2,0,4,1,5,H+,1,3,0,0,1000,250.0,3,D29MQ,286,test
544.9910163879395,3,2,0,4,1,5,H+,1,5,5,0,1000,250.0,5,D29MQ,287,test
609.2228889465332,3,2,0,4,1,5,H+,1,2,1,0,1000,250.0,2,D29MQ,288,test
433.0430030822754,3,2,0,4,1,5,H+,0,5,5,0,1000,250.0,3,D29MQ,289,test
577.0142078399658,3,2,0,4,1,5,H+,1,1,4,0,1000,250.0,1,D29MQ,290,test
513.1750106811523,3,2,0,4,1,5,H+,1,5,5,0,1000,250.0,5,D29MQ,291,test
513.2229328155518,3,2,0,4,1,5,H+,1,2,1,0,1000,250.0,2,D29MQ,292,test
529.0100574493408,3,2,0,4,1,5,H+,1,5,5,0,1000,250.0,5,D29MQ,293,test
545.0401306152344,3,2,0,4,1,5,H+,1,3,0,0,1000,250.0,3,D29MQ,294,test
497.03502655029297,3,2,0,4,1,5,H+,1,1,4,0,1000,250.0,1,D29MQ,295,test
545.1219081878662,3,2,0,4,1,5,H+,1,1,4,0,1000,250.0,1,D29MQ,296,test
497.03192710876465,3,2,0,4,1,5,H+,1,0,2,0,1000,250.0,0,D29MQ,297,test
545.0549125671387,3,2,0,4,1,5,H+,1,5,5,0,1000,250.0,5,D29MQ,298,test
576.9691467285156,3,2,0,4,1,5,H+,1,3,0,0,1000,250.0,3,D29MQ,299,test
624.6621608734131,3,2,0,4,1,5,H+,0,4,3,0,1000,250.0,5,D29MQ,300,test
513.5359764099121,3,2,0,4,1,5,H+,1,3,0,0,1000,250.0,3,D29MQ,301,test
528.9838314056396,3,2,0,4,1,5,H+,1,2,1,0,1000,250.0,2,D29MQ,302,test
688.7309551239014,3,2,0,4,1,5,H+,1,5,5,0,1000,250.0,5,D29MQ,303,test
544.9979305267334,3,2,0,4,1,5,H+,1,1,4,0,1000,250.0,1,D29MQ,304,test
577.2080421447754,3,2,0,4,1,5,H+,1,2,1,0,1000,250.0,2,D29MQ,305,test
849.1799831390381,3,2,0,4,1,5,H+,1,3,0,0,1000,250.0,3,D29MQ,306,test
705.1229476928711,3,2,0,4,1,5,H+,1,4,3,0,1000,250.0,4,D29MQ,307,test
544.9719429016113,3,2,0,4,1,5,H+,1,3,0,0,1000,250.0,3,D29MQ,308,test
545.2060699462891,3,2,0,4,1,5,H+,1,0,2,0,1000,250.0,0,D29MQ,309,test
560.783863067627,3,2,0,4,1,5,H+,1,0,2,0,1000,250.0,0,D29MQ,310,test
593.0349826812744,3,2,0,4,1,5,H+,1,2,1,0,1000,250.0,2,D29MQ,311,test
497.11084365844727,3,2,0,4,1,5,H+,1,0,2,0,1000,250.0,0,D29MQ,312,test
545.1469421386719,3,2,0,4,1,5,H+,1,2,1,0,1000,250.0,2,D29MQ,313,test
785.053014755249,3,2,0,4,1,5,H+,1,5,5,0,1000,250.0,5,D29MQ,314,test
529.1168689727783,3,2,0,4,1,5,H+,1,0,2,0,1000,250.0,0,D29MQ,315,test
577.1079063415527,3,2,0,4,1,5,H+,1,0,2,0,1000,250.0,0,D29MQ,316,test
513.0419731140137,3,2,0,4,1,5,H+,1,2,1,0,1000,250.0,2,D29MQ,317,test
416.9149398803711,3,2,0,4,1,5,H+,0,0,2,0,1000,250.0,2,D29MQ,318,test
641.0009860992432,3,2,0,4,1,5,H+,1,1,4,0,1000,250.0,1,D29MQ,319,test
561.2280368804932,3,2,0,4,1,5,H+,1,2,1,0,1000,250.0,2,D29MQ,320,test
577.0330429077148,3,2,0,4,1,5,H+,1,1,4,0,1000,250.0,1,D29MQ,321,test
561.0289573669434,3,2,0,4,1,5,H+,1,3,0,0,1000,250.0,3,D29MQ,322,test
545.2029705047607,3,2,0,4,1,5,H+,1,2,1,0,1000,250.0,2,D29MQ,323,test
400.97904205322266,3,2,0,4,1,5,H+,1,0,2,0,1000,250.0,0,D29MQ,324,test
561.0110759735107,3,2,0,4,1,5,H+,1,3,0,0,1000,250.0,3,D29MQ,325,test
513.0140781402588,3,2,0,4,1,5,H+,1,1,4,0,1000,250.0,1,D29MQ,326,test
689.0358924865723,3,2,0,4,1,5,H+,1,4,3,0,1000,250.0,4,D29MQ,327,test
545.0770854949951,3,2,0,4,1,5,H+,1,4,3,0,1000,250.0,4,D29MQ,328,test
577.0468711853027,3,2,0,4,1,5,H+,1,3,0,0,1000,250.0,3,D29MQ,329,test
385.0398063659668,3,2,0,4,1,5,H+,1,4,3,0,1000,250.0,4,D29MQ,330,test
657.1011543273926,3,2,0,4,1,5,H+,1,0,2,0,1000,250.0,0,D29MQ,331,test
561.1698627471924,3,2,0,4,1,5,H+,1,5,5,0,1000,250.0,5,D29MQ,332,test
577.003002166748,3,2,0,4,1,5,H+,1,4,3,0,1000,250.0,4,D29MQ,333,test
689.0571117401123,3,2,0,4,1,5,H+,1,5,5,0,1000,250.0,5,D29MQ,334,test
561.0239505767822,3,2,0,4,1,5,H+,1,5,5,0,1000,250.0,5,D29MQ,335,test
689.0249252319336,3,2,0,4,1,5,H+,0,4,3,0,1000,250.0,5,D29MQ,336,test
609.1148853302002,3,2,0,4,1,5,H+,1,5,5,0,1000,250.0,5,D29MQ,337,test
497.0991611480713,3,2,0,4,1,5,H+,1,5,5,0,1000,250.0,5,D29MQ,338,test
449.03111457824707,3,2,0,4,1,5,H+,1,4,3,0,1000,250.0,4,D29MQ,339,test
545.0680255889893,3,2,0,4,1,5,H+,1,3,0,0,1000,250.0,3,D29MQ,340,test
497.053861618042,3,2,0,4,1,5,H+,1,0,2,0,1000,250.0,0,D29MQ,341,test
529.0729999542236,3,2,0,4,1,5,H+,1,0,2,0,1000,250.0,0,D29MQ,342,test
593.0650234222412,3,2,0,4,1,5,H+,1,2,1,0,1000,250.0,2,D29MQ,343,test
561.01393699646,3,2,0,4,1,5,H+,1,4,3,0,1000,250.0,4,D29MQ,344,test
497.0560073852539,3,2,0,4,1,5,H+,1,2,1,0,1000,250.0,2,D29MQ,345,test
560.9281063079834,3,2,0,4,1,5,H+,1,1,4,0,1000,250.0,1,D29MQ,346,test
608.9780330657959,3,2,0,4,1,5,H+,1,3,0,0,1000,250.0,3,D29MQ,347,test
625.0109672546387,3,2,0,4,1,5,H+,0,5,5,0,1000,250.0,4,D29MQ,348,test
497.1480369567871,3,2,0,4,1,5,H+,1,4,3,0,1000,250.0,4,D29MQ,349,test
497.10988998413086,3,2,0,4,1,5,H+,0,2,1,0,1000,250.0,1,D29MQ,350,test
593.1861400604248,3,2,0,4,1,5,H+,1,4,3,0,1000,250.0,4,D29MQ,351,test
513.0929946899414,3,2,0,4,1,5,H+,1,3,0,0,1000,250.0,3,D29MQ,352,test
496.97089195251465,3,2,0,4,1,5,H+,1,3,0,0,1000,250.0,3,D29MQ,353,test
464.9190902709961,3,2,0,4,1,5,H+,1,3,0,0,1000,250.0,3,D29MQ,354,test
704.9908638000488,3,2,0,4,1,5,H+,1,0,2,0,1000,250.0,0,D29MQ,355,test
609.1389656066895,3,2,0,4,1,5,H+,1,5,5,0,1000,250.0,5,D29MQ,356,test
480.93199729919434,3,2,0,4,1,5,H+,1,5,5,0,1000,250.0,5,D29MQ,357,test
480.96704483032227,3,2,0,4,1,5,H+,1,5,5,0,1000,250.0,5,D29MQ,358,test
480.97801208496094,3,2,0,4,1,5,H+,1,5,5,0,1000,250.0,5,D29MQ,359,test
481.0328483581543,3,2,0,4,1,5,H+,1,3,0,0,1000,250.0,3,D29MQ,360,test
512.9978656768799,3,2,0,4,1,5,H+,1,2,1,0,1000,250.0,2,D29MQ,361,test
352.95915603637695,3,2,0,4,1,5,H+,1,0,2,0,1000,250.0,0,D29MQ,362,test
609.0209484100342,3,2,0,4,1,5,H+,0,4,3,0,1000,250.0,5,D29MQ,363,test
529.130220413208,3,2,0,4,1,5,H+,1,3,0,0,1000,250.0,3,D29MQ,364,test
449.11909103393555,3,2,0,4,1,5,H+,1,3,0,0,1000,250.0,3,D29MQ,365,test
480.99684715270996,3,2,0,4,1,5,H+,1,3,0,0,1000,250.0,3,D29MQ,366,test
625.1070499420166,3,2,0,4,1,5,H+,1,0,2,0,1000,250.0,0,D29MQ,367,test
657.0510864257812,3,2,0,4,1,5,H+,1,4,3,0,1000,250.0,4,D29MQ,368,test
513.098955154419,3,2,0,4,1,5,H+,1,0,2,0,1000,250.0,0,D29MQ,369,test
545.0460910797119,3,2,0,4,1,5,H+,1,2,1,0,1000,250.0,2,D29MQ,370,test
513.0529403686523,3,2,0,4,1,5,H+,1,0,2,0,1000,250.0,0,D29MQ,371,test
624.5589256286621,3,2,0,4,1,5,H+,1,1,4,0,1000,250.0,1,D29MQ,372,test
432.3160648345947,3,2,0,4,1,5,H+,1,1,4,0,1000,250.0,1,D29MQ,373,test
464.8160934448242,3,2,0,4,1,5,H+,1,3,0,0,1000,250.0,3,D29MQ,374,test
528.6290645599365,3,2,0,4,1,5,H+,1,2,1,0,1000,250.0,2,D29MQ,375,test
480.6408882141113,3,2,0,4,1,5,H+,1,1,4,0,1000,250.0,1,D29MQ,376,test
464.6728038787842,3,2,0,4,1,5,H+,1,2,1,0,1000,250.0,2,D29MQ,377,test
432.6601028442383,3,2,0,4,1,5,H+,1,1,4,0,1000,250.0,1,D29MQ,378,test
480.73315620422363,3,2,0,4,1,5,H+,1,0,2,0,1000,250.0,0,D29MQ,379,test
592.7639007568359,3,2,0,4,1,5,H+,1,4,3,0,1000,250.0,4,D29MQ,380,test
448.8108158111572,3,2,0,4,1,5,H+,1,5,5,0,1000,250.0,5,D29MQ,381,test
544.6858406066895,3,2,0,4,1,5,H+,1,3,0,0,1000,250.0,3,D29MQ,382,test
496.83403968811035,3,2,0,4,1,5,H+,1,3,0,0,1000,250.0,3,D29MQ,383,test
464.6420478820801,3,2,0,4,1,5,H+,1,3,0,0,1000,250.0,3,D29MQ,384,test
544.745922088623,3,2,0,4,1,5,H+,1,4,3,0,1000,250.0,4,D29MQ,385,test
512.714147567749,3,2,0,4,1,5,H+,1,3,0,0,1000,250.0,3,D29MQ,386,test
576.7860412597656,3,2,0,4,1,5,H+,1,2,1,0,1000,250.0,2,D29MQ,387,test
528.3958911895752,3,2,0,4,1,5,H+,1,0,2,0,1000,250.0,0,D29MQ,388,test
912.7898216247559,3,2,0,4,1,5,H+,1,5,5,0,1000,250.0,5,D29MQ,389,test
624.7680187225342,3,2,0,4,1,5,H+,1,1,4,0,1000,250.0,1,D29MQ,390,test
496.54316902160645,3,2,0,4,1,5,H+,1,0,2,0,1000,250.0,0,D29MQ,391,test
544.6360111236572,3,2,0,4,1,5,H+,0,2,1,0,1000,250.0,3,D29MQ,392,test
608.8900566101074,3,2,0,4,1,5,H+,1,5,5,0,1000,250.0,5,D29MQ,393,test
480.44800758361816,3,2,0,4,1,5,H+,1,0,2,0,1000,250.0,0,D29MQ,394,test
672.7299690246582,3,2,0,4,1,5,H+,1,4,3,0,1000,250.0,4,D29MQ,395,test
560.7640743255615,3,2,0,4,1,5,H+,1,0,2,0,1000,250.0,0,D29MQ,396,test
512.7379894256592,3,2,0,4,1,5,H+,1,2,1,0,1000,250.0,2,D29MQ,397,test
576.7941474914551,3,2,0,4,1,5,H+,1,1,4,0,1000,250.0,1,D29MQ,398,test
384.6299648284912,3,2,0,4,1,5,H+,1,3,0,0,1000,250.0,3,D29MQ,399,test
528.7299156188965,3,2,0,4,1,5,H+,1,0,2,0,1000,250.0,0,D29MQ,400,test
544.8348522186279,3,2,0,4,1,5,H+,1,5,5,0,1000,250.0,5,D29MQ,401,test
576.6568183898926,3,2,0,4,1,5,H+,1,4,3,0,1000,250.0,4,D29MQ,402,test
464.66684341430664,3,2,0,4,1,5,H+,1,0,2,0,1000,250.0,0,D29MQ,403,test
464.7941589355469,3,2,0,4,1,5,H+,1,4,3,0,1000,250.0,4,D29MQ,404,test
512.671947479248,3,2,0,4,1,5,H+,1,5,5,0,1000,250.0,5,D29MQ,405,test
464.6899700164795,3,2,0,4,1,5,H+,1,4,3,0,1000,250.0,4,D29MQ,406,test
464.7059440612793,3,2,0,4,1,5,H+,1,2,1,0,1000,250.0,2,D29MQ,407,test
608.6480617523193,3,2,0,4,1,5,H+,1,5,5,0,1000,250.0,5,D29MQ,408,test
560.7249736785889,3,2,0,4,1,5,H+,1,3,0,0,1000,250.0,3,D29MQ,409,test
496.7648983001709,3,2,0,4,1,5,H+,1,1,4,0,1000,250.0,1,D29MQ,410,test
528.6679267883301,3,2,0,4,1,5,H+,1,0,2,0,1000,250.0,0,D29MQ,411,test
432.59215354919434,3,2,0,4,1,5,H+,1,0,2,0,1000,250.0,0,D29MQ,412,test
464.6339416503906,3,2,0,4,1,5,H+,1,4,3,0,1000,250.0,4,D29MQ,413,test
528.6710262298584,3,2,0,4,1,5,H+,1,3,0,0,1000,250.0,3,D29MQ,414,test
448.7631320953369,3,2,0,4,1,5,H+,0,0,2,0,1000,250.0,3,D29MQ,415,test
576.7369270324707,3,2,0,4,1,5,H+,1,2,1,0,1000,250.0,2,D29MQ,416,test
608.7968349456787,3,2,0,4,1,5,H+,1,5,5,0,1000,250.0,5,D29MQ,417,test
432.84106254577637,3,2,0,4,1,5,H+,1,5,5,0,1000,250.0,5,D29MQ,418,test
480.6380271911621,3,2,0,4,1,5,H+,1,3,0,0,1000,250.0,3,D29MQ,419,test
480.66210746765137,3,2,0,4,1,5,H+,1,0,2,0,1000,250.0,0,D29MQ,420,test
496.6311454772949,3,2,0,4,1,5,H+,1,5,5,0,1000,250.0,5,D29MQ,421,test
512.9241943359375,3,2,0,4,1,5,H+,1,0,2,0,1000,250.0,0,D29MQ,422,test
544.7430610656738,3,2,0,4,1,5,H+,1,2,1,0,1000,250.0,2,D29MQ,423,test
432.81006813049316,3,2,0,4,1,5,H+,1,2,1,0,1000,250.0,2,D29MQ,424,test
928.6611080169678,3,2,0,4,1,5,H+,1,1,4,0,1000,250.0,1,D29MQ,425,test
560.6989860534668,3,2,0,4,1,5,H+,1,2,1,0,1000,250.0,2,D29MQ,426,test
720.7291126251221,3,2,0,4,1,5,H+,1,5,5,0,1000,250.0,5,D29MQ,427,test
480.741024017334,3,2,0,4,1,5,H+,0,4,3,0,1000,250.0,1,D29MQ,428,test
624.6209144592285,3,2,0,4,1,5,H+,1,4,3,0,1000,250.0,4,D29MQ,429,test
560.7659816741943,3,2,0,4,1,5,H+,1,4,3,0,1000,250.0,4,D29MQ,430,test
464.6279811859131,3,2,0,4,1,5,H+,1,0,2,0,1000,250.0,0,D29MQ,431,test
544.4459915161133,3,2,0,4,1,5,H+,1,4,3,0,1000,250.0,4,D29MQ,432,test
480.7019233703613,3,2,0,4,1,5,H+,1,0,2,0,1000,250.0,0,D29MQ,433,test
480.557918548584,3,2,0,4,1,5,H+,1,0,2,0,1000,250.0,0,D29MQ,434,test
416.7029857635498,3,2,0,4,1,5,H+,1,2,1,0,1000,250.0,2,D29MQ,435,test
624.81689453125,3,2,0,4,1,5,H+,1,3,0,0,1000,250.0,3,D29MQ,436,test
497.1320629119873,3,2,0,4,1,5,H+,1,2,1,0,1000,250.0,2,D29MQ,437,test
545.0520515441895,3,2,0,4,1,5,H+,1,0,2,0,1000,250.0,0,D29MQ,438,test
368.9591884613037,3,2,0,4,1,5,H+,1,0,2,0,1000,250.0,0,D29MQ,439,test
577.0561695098877,3,2,0,4,1,5,H+,1,5,5,0,1000,250.0,5,D29MQ,440,test
432.87110328674316,3,2,0,4,1,5,H+,1,5,5,0,1000,250.0,5,D29MQ,441,test
465.14415740966797,3,2,0,4,1,5,H+,1,1,4,0,1000,250.0,1,D29MQ,442,test
592.933177947998,3,2,0,4,1,5,H+,1,0,2,0,1000,250.0,0,D29MQ,443,test
432.8770637512207,3,2,0,4,1,5,H+,1,0,2,0,1000,250.0,0,D29MQ,444,test
512.8870010375977,3,2,0,4,1,5,H+,1,1,4,0,1000,250.0,1,D29MQ,445,test
608.9978218078613,3,2,0,4,1,5,H+,1,5,5,0,1000,250.0,5,D29MQ,446,test
433.0160617828369,3,2,0,4,1,5,H+,1,5,5,0,1000,250.0,5,D29MQ,447,test
561.0380172729492,3,2,0,4,1,5,H+,1,2,1,0,1000,250.0,2,D29MQ,448,test
480.72099685668945,3,2,0,4,1,5,H+,1,4,3,0,1000,250.0,4,D29MQ,449,test
448.6570358276367,3,2,0,4,1,5,H+,1,2,1,0,1000,250.0,2,D29MQ,450,test
480.6520938873291,3,2,0,4,1,5,H+,1,5,5,0,1000,250.0,5,D29MQ,451,test
368.6871528625488,3,2,0,4,1,5,H+,1,3,0,0,1000,250.0,3,D29MQ,452,test
448.64797592163086,3,2,0,4,1,5,H+,1,1,4,0,1000,250.0,1,D29MQ,453,test
336.7159366607666,3,2,0,4,1,5,H+,1,0,2,0,1000,250.0,0,D29MQ,454,test
448.66490364074707,3,2,0,4,1,5,H+,1,0,2,0,1000,250.0,0,D29MQ,455,test
496.6881275177002,3,2,0,4,1,5,H+,1,3,0,0,1000,250.0,3,D29MQ,456,test
480.6199073791504,3,2,0,4,1,5,H+,1,5,5,0,1000,250.0,5,D29MQ,457,test
496.7811107635498,3,2,0,4,1,5,H+,1,2,1,0,1000,250.0,2,D29MQ,458,test
496.63591384887695,3,2,0,4,1,5,H+,1,3,0,0,1000,250.0,3,D29MQ,459,test
464.65396881103516,3,2,0,4,1,5,H+,1,2,1,0,1000,250.0,2,D29MQ,460,test
496.74391746520996,3,2,0,4,1,5,H+,1,4,3,0,1000,250.0,4,D29MQ,461,test
480.82613945007324,3,2,0,4,1,5,H+,1,0,2,0,1000,250.0,0,D29MQ,462,test
512.6709938049316,3,2,0,4,1,5,H+,1,4,3,0,1000,250.0,4,D29MQ,463,test
496.86288833618164,3,2,0,4,1,5,H+,1,2,1,0,1000,250.0,2,D29MQ,464,test
512.4211311340332,3,2,0,4,1,5,H+,1,1,4,0,1000,250.0,1,D29MQ,465,test
592.6070213317871,3,2,0,4,1,5,H+,0,1,4,0,1000,250.0,4,D29MQ,466,test
448.9560127258301,3,2,0,4,1,5,H+,1,0,2,0,1000,250.0,0,D29MQ,467,test
544.9872016906738,3,2,0,4,1,5,H+,1,5,5,0,1000,250.0,5,D29MQ,468,test
416.6979789733887,3,2,0,4,1,5,H+,1,5,5,0,1000,250.0,5,D29MQ,469,test
481.20999336242676,3,2,0,4,1,5,H+,1,1,4,0,1000,250.0,1,D29MQ,470,test
400.9530544281006,3,2,0,4,1,5,H+,0,5,5,0,1000,250.0,1,D29MQ,471,test
496.87886238098145,3,2,0,4,1,5,H+,1,5,5,0,1000,250.0,5,D29MQ,472,test
464.7529125213623,3,2,0,4,1,5,H+,1,2,1,0,1000,250.0,2,D29MQ,473,test
528.6600589752197,3,2,0,4,1,5,H+,1,3,0,0,1000,250.0,3,D29MQ,474,test
624.9649524688721,3,2,0,4,1,5,H+,1,3,0,0,1000,250.0,3,D29MQ,475,test
464.9021625518799,3,2,0,4,1,5,H+,1,1,4,0,1000,250.0,1,D29MQ,476,test
529.0210247039795,3,2,0,4,1,5,H+,1,4,3,0,1000,250.0,4,D29MQ,477,test
528.9340019226074,3,2,0,4,1,5,H+,1,5,5,0,1000,250.0,5,D29MQ,478,test
449.1438865661621,3,2,0,4,1,5,H+,1,0,2,0,1000,250.0,0,D29MQ,479,test
417.0219898223877,3,2,0,4,1,5,H+,1,2,1,0,1000,250.0,2,D29MQ,480,test
416.9440269470215,3,2,0,4,1,5,H+,1,4,3,0,1000,250.0,4,D29MQ,481,test
448.9169120788574,3,2,0,4,1,5,H+,1,0,2,0,1000,250.0,0,D29MQ,482,test
448.9779472351074,3,2,0,4,1,5,H+,1,3,0,0,1000,250.0,3,D29MQ,483,test
544.8799133300781,3,2,0,4,1,5,H+,1,0,2,0,1000,250.0,0,D29MQ,484,test
464.88308906555176,3,2,0,4,1,5,H+,1,1,4,0,1000,250.0,1,D29MQ,485,test
433.0461025238037,3,2,0,4,1,5,H+,1,0,2,0,1000,250.0,0,D29MQ,486,test
337.05997467041016,3,2,0,4,1,5,H+,1,2,1,0,1000,250.0,2,D29MQ,487,test
496.43588066101074,3,2,0,4,1,5,H+,1,2,1,0,1000,250.0,2,D29MQ,488,test
640.7489776611328,3,2,0,4,1,5,H+,1,5,5,0,1000,250.0,5,D29MQ,489,test
512.67409324646,3,2,0,4,1,5,H+,0,3,0,0,1000,250.0,0,D29MQ,490,test
528.5341739654541,3,2,0,4,1,5,H+,1,3,0,0,1000,250.0,3,D29MQ,491,test
464.8170471191406,3,2,0,4,1,5,H+,1,1,4,0,1000,250.0,1,D29MQ,492,test
416.63193702697754,3,2,0,4,1,5,H+,1,2,1,0,1000,250.0,2,D29MQ,493,test
848.9539623260498,3,2,0,4,1,5,H+,1,4,3,0,1000,250.0,4,D29MQ,494,test
544.6460247039795,3,2,0,4,1,5,H+,1,1,4,0,1000,250.0,1,D29MQ,495,test
592.7250385284424,3,2,0,4,1,5,H+,1,3,0,0,1000,250.0,3,D29MQ,496,test
448.71997833251953,3,2,0,4,1,5,H+,1,1,4,0,1000,250.0,1,D29MQ,497,test
512.6800537109375,3,2,0,4,1,5,H+,1,0,2,0,1000,250.0,0,D29MQ,498,test
528.656005859375,3,2,0,4,1,5,H+,1,4,3,0,1000,250.0,4,D29MQ,499,test
