RT,SRmap_0,SRmap_1,SRmap_2,SRmap_3,SRmap_4,SRmap_5,condition,correct,correct_response,curstim,ms-precue,ms-prestimblank,ntrials,response,subject,trial,type
1727.5710105895996,0,3,1,4,5,2,E-,1,0,0,400,600,250.0,0,D19KW,0,train
831.6638469696045,0,3,1,4,5,2,E-,1,3,1,400,600,250.0,3,D19KW,1,train
399.84893798828125,0,3,1,4,5,2,E-,1,0,0,400,600,250.0,0,D19KW,2,train
1023.8330364227295,0,3,1,4,5,2,E-,1,2,5,400,600,250.0,2,D19KW,3,train
207.3230743408203,0,3,1,4,5,2,E-,1,3,1,400,600,250.0,3,D19KW,4,train
415.3449535369873,0,3,1,4,5,2,E-,1,5,4,400,600,250.0,5,D19KW,5,train
527.3730754852295,0,3,1,4,5,2,E-,1,3,1,400,600,250.0,3,D19KW,6,train
399.29795265197754,0,3,1,4,5,2,E-,1,5,4,400,600,250.0,5,D19KW,7,train
383.3041191101074,0,3,1,4,5,2,E-,1,4,3,400,600,250.0,4,D19KW,8,train
495.3029155731201,0,3,1,4,5,2,E-,1,4,3,400,600,250.0,4,D19KW,9,train
303.5240173339844,0,3,1,4,5,2,E-,1,0,0,400,600,250.0,0,D19KW,10,train
735.835075378418,0,3,1,4,5,2,E-,1,5,4,400,600,250.0,5,D19KW,11,train
287.8568172454834,0,3,1,4,5,2,E-,1,2,5,400,600,250.0,2,D19KW,12,train
431.95414543151855,0,3,1,4,5,2,E-,1,3,1,400,600,250.0,3,D19KW,13,train
255.7380199432373,0,3,1,4,5,2,E-,1,0,0,400,600,250.0,0,D19KW,14,train
319.54193115234375,0,3,1,4,5,2,E-,1,5,4,400,600,250.0,5,D19KW,15,train
335.8278274536133,0,3,1,4,5,2,E-,0,4,3,400,600,250.0,3,D19KW,16,train
367.8128719329834,0,3,1,4,5,2,E-,1,5,4,400,600,250.0,5,D19KW,17,train
847.9208946228027,0,3,1,4,5,2,E-,1,1,2,400,600,250.0,1,D19KW,18,train
63.9340877532959,0,3,1,4,5,2,E-,1,0,0,400,600,250.0,0,D19KW,19,train
159.8498821258545,0,3,1,4,5,2,E-,1,1,2,400,600,250.0,1,D19KW,20,train
111.76395416259766,0,3,1,4,5,2,E-,1,3,1,400,600,250.0,3,D19KW,21,train
143.87917518615723,0,3,1,4,5,2,E-,1,2,5,400,600,250.0,2,D19KW,22,train
431.84614181518555,0,3,1,4,5,2,E-,1,5,4,400,600,250.0,5,D19KW,23,train
127.99787521362305,0,3,1,4,5,2,E-,1,1,2,400,600,250.0,1,D19KW,24,train
47.91378974914551,0,3,1,4,5,2,E-,0,4,3,400,600,250.0,3,D19KW,25,train
495.87011337280273,0,3,1,4,5,2,E-,0,2,5,400,600,250.0,3,D19KW,26,train
191.59603118896484,0,3,1,4,5,2,E-,1,1,2,400,600,250.0,1,D19KW,27,train
127.44712829589844,0,3,1,4,5,2,E-,1,0,0,400,600,250.0,0,D19KW,28,train
575.4711627960205,0,3,1,4,5,2,E-,1,5,4,400,600,250.0,5,D19KW,29,train
303.2999038696289,0,3,1,4,5,2,E-,1,5,4,400,600,250.0,5,D19KW,30,train
367.36202239990234,0,3,1,4,5,2,E-,0,3,1,400,600,250.0,4,D19KW,31,train
431.2419891357422,0,3,1,4,5,2,E-,1,1,2,400,600,250.0,1,D19KW,32,train
239.41397666931152,0,3,1,4,5,2,E-,1,5,4,400,600,250.0,5,D19KW,33,train
303.272008895874,0,3,1,4,5,2,E-,1,1,2,400,600,250.0,1,D19KW,34,train
367.16198921203613,0,3,1,4,5,2,E-,1,4,3,400,600,250.0,4,D19KW,35,train
303.36499214172363,0,3,1,4,5,2,E-,0,2,5,400,600,250.0,3,D19KW,36,train
287.39285469055176,0,3,1,4,5,2,E-,1,5,4,400,600,250.0,5,D19KW,37,train
495.434045791626,0,3,1,4,5,2,E-,1,3,1,400,600,250.0,3,D19KW,38,train
223.76394271850586,0,3,1,4,5,2,E-,1,5,4,400,600,250.0,5,D19KW,39,train
287.647008895874,0,3,1,4,5,2,E-,1,4,3,400,600,250.0,4,D19KW,40,train
143.6138153076172,0,3,1,4,5,2,E-,1,2,5,400,600,250.0,2,D19KW,41,train
639.8870944976807,0,3,1,4,5,2,E-,1,1,2,400,600,250.0,1,D19KW,42,train
351.87602043151855,0,3,1,4,5,2,E-,1,3,1,400,600,250.0,3,D19KW,43,train
111.90581321716309,0,3,1,4,5,2,E-,1,2,5,400,600,250.0,2,D19KW,44,train
191.3609504699707,0,3,1,4,5,2,E-,1,3,1,400,600,250.0,3,D19KW,45,train
31.38279914855957,0,3,1,4,5,2,E-,1,0,0,400,600,250.0,0,D19KW,46,train
303.3430576324463,0,3,1,4,5,2,E-,0,4,3,400,600,250.0,3,D19KW,47,train
207.44991302490234,0,3,1,4,5,2,E-,1,1,2,400,600,250.0,1,D19KW,48,train
31.674861907958984,0,3,1,4,5,2,E-,0,1,2,400,600,250.0,0,D19KW,49,train
527.825117111206,0,3,1,4,5,2,E-,1,3,1,400,600,250.0,3,D19KW,50,train
175.82082748413086,0,3,1,4,5,2,E-,1,5,4,400,600,250.0,5,D19KW,51,train
271.381139755249,0,3,1,4,5,2,E-,1,3,1,400,600,250.0,3,D19KW,52,train
271.39806747436523,0,3,1,4,5,2,E-,1,3,1,400,600,250.0,3,D19KW,53,train
159.62886810302734,0,3,1,4,5,2,E-,1,1,2,400,600,250.0,1,D19KW,54,train
447.829008102417,0,3,1,4,5,2,E-,1,4,3,400,600,250.0,4,D19KW,55,train
143.73207092285156,0,3,1,4,5,2,E-,1,1,2,400,600,250.0,1,D19KW,56,train
31.814098358154297,0,3,1,4,5,2,E-,1,0,0,400,600,250.0,0,D19KW,57,train
175.36091804504395,0,3,1,4,5,2,E-,1,5,4,400,600,250.0,5,D19KW,58,train
383.44407081604004,0,3,1,4,5,2,E-,1,5,4,400,600,250.0,5,D19KW,59,train
31.345129013061523,0,3,1,4,5,2,E-,1,5,4,400,600,250.0,5,D19KW,60,train
95.47805786132812,0,3,1,4,5,2,E-,1,4,3,400,600,250.0,4,D19KW,61,train
63.323020935058594,0,3,1,4,5,2,E-,1,4,3,400,600,250.0,4,D19KW,62,train
223.45495223999023,0,3,1,4,5,2,E-,0,2,5,400,600,250.0,1,D19KW,63,train
239.41683769226074,0,3,1,4,5,2,E-,1,4,3,400,600,250.0,4,D19KW,64,train
159.4560146331787,0,3,1,4,5,2,E-,1,5,4,400,600,250.0,5,D19KW,65,train
79.42795753479004,0,3,1,4,5,2,E-,1,5,4,400,600,250.0,5,D19KW,66,train
143.22996139526367,0,3,1,4,5,2,E-,1,5,4,400,600,250.0,5,D19KW,67,train
63.64703178405762,0,3,1,4,5,2,E-,1,5,4,400,600,250.0,5,D19KW,68,train
79.85687255859375,0,3,1,4,5,2,E-,1,4,3,400,600,250.0,4,D19KW,69,train
207.89504051208496,0,3,1,4,5,2,E-,1,2,5,400,600,250.0,2,D19KW,70,train
543.8492298126221,0,3,1,4,5,2,E-,1,3,1,400,600,250.0,3,D19KW,71,train
63.82608413696289,0,3,1,4,5,2,E-,1,1,2,400,600,250.0,1,D19KW,72,train
143.87989044189453,0,3,1,4,5,2,E-,1,4,3,400,600,250.0,4,D19KW,73,train
79.60295677185059,0,3,1,4,5,2,E-,1,0,0,400,600,250.0,0,D19KW,74,train
303.3928871154785,0,3,1,4,5,2,E-,1,3,1,400,600,250.0,3,D19KW,75,train
255.13505935668945,0,3,1,4,5,2,E-,1,3,1,400,600,250.0,3,D19KW,76,train
111.49787902832031,0,3,1,4,5,2,E-,1,2,5,400,600,250.0,2,D19KW,77,train
735.4049682617188,0,3,1,4,5,2,E-,1,2,5,400,600,250.0,2,D19KW,78,train
287.36305236816406,0,3,1,4,5,2,E-,1,4,3,400,600,250.0,4,D19KW,79,train
191.26605987548828,0,3,1,4,5,2,E-,1,1,2,400,600,250.0,1,D19KW,80,train
495.29099464416504,0,3,1,4,5,2,E-,1,0,0,400,600,250.0,0,D19KW,81,train
191.4389133453369,0,3,1,4,5,2,E-,1,4,3,400,600,250.0,4,D19KW,82,train
223.3598232269287,0,3,1,4,5,2,E-,1,5,4,400,600,250.0,5,D19KW,83,train
63.395023345947266,0,3,1,4,5,2,E-,1,0,0,400,600,250.0,0,D19KW,84,train
399.3370532989502,0,3,1,4,5,2,E-,1,4,3,400,600,250.0,4,D19KW,85,train
159.38806533813477,0,3,1,4,5,2,E-,1,4,3,400,600,250.0,4,D19KW,86,train
223.25706481933594,0,3,1,4,5,2,E-,0,2,5,400,600,250.0,3,D19KW,87,train
95.47114372253418,0,3,1,4,5,2,E-,1,0,0,400,600,250.0,0,D19KW,88,train
895.7200050354004,0,3,1,4,5,2,E-,1,2,5,400,600,250.0,2,D19KW,89,train
239.84599113464355,0,3,1,4,5,2,E-,0,3,1,400,600,250.0,4,D19KW,90,train
239.8970127105713,0,3,1,4,5,2,E-,1,4,3,400,600,250.0,4,D19KW,91,train
191.26510620117188,0,3,1,4,5,2,E-,1,3,1,400,600,250.0,3,D19KW,92,train
79.73217964172363,0,3,1,4,5,2,E-,1,2,5,400,600,250.0,2,D19KW,93,train
111.82713508605957,0,3,1,4,5,2,E-,1,0,0,400,600,250.0,0,D19KW,94,train
223.87194633483887,0,3,1,4,5,2,E-,1,1,2,400,600,250.0,1,D19KW,95,train
239.9888038635254,0,3,1,4,5,2,E-,1,1,2,400,600,250.0,1,D19KW,96,train
175.98319053649902,0,3,1,4,5,2,E-,1,1,2,400,600,250.0,1,D19KW,97,train
175.79102516174316,0,3,1,4,5,2,E-,0,4,3,400,600,250.0,3,D19KW,98,train
127.3651123046875,0,3,1,4,5,2,E-,1,3,1,400,600,250.0,3,D19KW,99,train
159.38305854797363,0,3,1,4,5,2,E-,1,5,4,400,600,250.0,5,D19KW,100,train
159.4541072845459,0,3,1,4,5,2,E-,1,1,2,400,600,250.0,1,D19KW,101,train
111.4649772644043,0,3,1,4,5,2,E-,1,5,4,400,600,250.0,5,D19KW,102,train
142.06409454345703,0,3,1,4,5,2,E-,1,4,3,400,600,250.0,4,D19KW,103,train
111.47499084472656,0,3,1,4,5,2,E-,1,0,0,400,600,250.0,0,D19KW,104,train
191.3430690765381,0,3,1,4,5,2,E-,1,4,3,400,600,250.0,4,D19KW,105,train
127.47597694396973,0,3,1,4,5,2,E-,1,5,4,400,600,250.0,5,D19KW,106,train
79.48803901672363,0,3,1,4,5,2,E-,1,5,4,400,600,250.0,5,D19KW,107,train
110.86511611938477,0,3,1,4,5,2,E-,1,1,2,400,600,250.0,1,D19KW,108,train
159.4381332397461,0,3,1,4,5,2,E-,1,4,3,400,600,250.0,4,D19KW,109,train
223.3889102935791,0,3,1,4,5,2,E-,1,0,0,400,600,250.0,0,D19KW,110,train
255.324125289917,0,3,1,4,5,2,E-,1,4,3,400,600,250.0,4,D19KW,111,train
175.35018920898438,0,3,1,4,5,2,E-,1,3,1,400,600,250.0,3,D19KW,112,train
159.35206413269043,0,3,1,4,5,2,E-,1,0,0,400,600,250.0,0,D19KW,113,train
383.3889961242676,0,3,1,4,5,2,E-,1,2,5,400,600,250.0,2,D19KW,114,train
111.44304275512695,0,3,1,4,5,2,E-,1,0,0,400,600,250.0,0,D19KW,115,train
164.20793533325195,0,3,1,4,5,2,E-,1,1,2,400,600,250.0,1,D19KW,116,train
159.3630313873291,0,3,1,4,5,2,E-,1,2,5,400,600,250.0,2,D19KW,117,train
175.02689361572266,0,3,1,4,5,2,E-,1,0,0,400,600,250.0,0,D19KW,118,train
735.4719638824463,0,3,1,4,5,2,E-,1,1,2,400,600,250.0,1,D19KW,119,train
95.37005424499512,0,3,1,4,5,2,E-,1,1,2,400,600,250.0,1,D19KW,120,train
143.32008361816406,0,3,1,4,5,2,E-,1,3,1,400,600,250.0,3,D19KW,121,train
159.32083129882812,0,3,1,4,5,2,E-,1,3,1,400,600,250.0,3,D19KW,122,train
95.44801712036133,0,3,1,4,5,2,E-,1,5,4,400,600,250.0,5,D19KW,123,train
111.50193214416504,0,3,1,4,5,2,E-,1,3,1,400,600,250.0,3,D19KW,124,train
127.72393226623535,0,3,1,4,5,2,E-,1,5,4,400,600,250.0,5,D19KW,125,train
63.32111358642578,0,3,1,4,5,2,E-,1,0,0,400,600,250.0,0,D19KW,126,train
175.41003227233887,0,3,1,4,5,2,E-,1,1,2,400,600,250.0,1,D19KW,127,train
367.2919273376465,0,3,1,4,5,2,E-,0,2,5,400,600,250.0,3,D19KW,128,train
79.4219970703125,0,3,1,4,5,2,E-,1,0,0,400,600,250.0,0,D19KW,129,train
335.3290557861328,0,3,1,4,5,2,E-,0,4,3,400,600,250.0,3,D19KW,130,train
287.3539924621582,0,3,1,4,5,2,E-,1,4,3,400,600,250.0,4,D19KW,131,train
79.5140266418457,0,3,1,4,5,2,E-,1,4,3,400,600,250.0,4,D19KW,132,train
143.4340476989746,0,3,1,4,5,2,E-,1,0,0,400,600,250.0,0,D19KW,133,train
303.38096618652344,0,3,1,4,5,2,E-,1,5,4,400,600,250.0,5,D19KW,134,train
111.47522926330566,0,3,1,4,5,2,E-,1,5,4,400,600,250.0,5,D19KW,135,train
223.41489791870117,0,3,1,4,5,2,E-,0,2,5,400,600,250.0,0,D19KW,136,train
351.7460823059082,0,3,1,4,5,2,E-,1,4,3,400,600,250.0,4,D19KW,137,train
127.98905372619629,0,3,1,4,5,2,E-,1,5,4,400,600,250.0,5,D19KW,138,train
159.4228744506836,0,3,1,4,5,2,E-,1,5,4,400,600,250.0,5,D19KW,139,train
95.48592567443848,0,3,1,4,5,2,E-,1,0,0,400,600,250.0,0,D19KW,140,train
239.71796035766602,0,3,1,4,5,2,E-,1,1,2,400,600,250.0,1,D19KW,141,train
63.98510932922363,0,3,1,4,5,2,E-,1,1,2,400,600,250.0,1,D19KW,142,train
127.95615196228027,0,3,1,4,5,2,E-,1,5,4,400,600,250.0,5,D19KW,143,train
127.11906433105469,0,3,1,4,5,2,E-,1,5,4,400,600,250.0,5,D19KW,144,train
367.264986038208,0,3,1,4,5,2,E-,1,1,2,400,600,250.0,1,D19KW,145,train
127.39086151123047,0,3,1,4,5,2,E-,1,4,3,400,600,250.0,4,D19KW,146,train
607.3141098022461,0,3,1,4,5,2,E-,1,2,5,400,600,250.0,2,D19KW,147,train
47.49798774719238,0,3,1,4,5,2,E-,1,0,0,400,600,250.0,0,D19KW,148,train
399.4131088256836,0,3,1,4,5,2,E-,1,1,2,400,600,250.0,1,D19KW,149,train
79.49399948120117,0,3,1,4,5,2,E-,1,0,0,400,600,250.0,0,D19KW,150,train
447.3750591278076,0,3,1,4,5,2,E-,1,3,1,400,600,250.0,3,D19KW,151,train
255.4340362548828,0,3,1,4,5,2,E-,1,0,0,400,600,250.0,0,D19KW,152,train
63.449859619140625,0,3,1,4,5,2,E-,1,5,4,400,600,250.0,5,D19KW,153,train
111.23895645141602,0,3,1,4,5,2,E-,1,0,0,400,600,250.0,0,D19KW,154,train
111.50002479553223,0,3,1,4,5,2,E-,1,1,2,400,600,250.0,1,D19KW,155,train
191.36595726013184,0,3,1,4,5,2,E-,1,2,5,400,600,250.0,2,D19KW,156,train
95.46208381652832,0,3,1,4,5,2,E-,1,3,1,400,600,250.0,3,D19KW,157,train
95.44205665588379,0,3,1,4,5,2,E-,1,0,0,400,600,250.0,0,D19KW,158,train
31.461000442504883,0,3,1,4,5,2,E-,1,1,2,400,600,250.0,1,D19KW,159,train
79.46991920471191,0,3,1,4,5,2,E-,1,0,0,400,600,250.0,0,D19KW,160,train
47.438859939575195,0,3,1,4,5,2,E-,1,2,5,400,600,250.0,2,D19KW,161,train
607.3338985443115,0,3,1,4,5,2,E-,1,4,3,400,600,250.0,4,D19KW,162,train
95.49689292907715,0,3,1,4,5,2,E-,1,1,2,400,600,250.0,1,D19KW,163,train
47.49488830566406,0,3,1,4,5,2,E-,1,4,3,400,600,250.0,4,D19KW,164,train
223.36316108703613,0,3,1,4,5,2,E-,1,2,5,400,600,250.0,2,D19KW,165,train
46.27394676208496,0,3,1,4,5,2,E-,1,1,2,400,600,250.0,1,D19KW,166,train
335.4630470275879,0,3,1,4,5,2,E-,1,3,1,400,600,250.0,3,D19KW,167,train
63.48705291748047,0,3,1,4,5,2,E-,1,0,0,400,600,250.0,0,D19KW,168,train
943.8169002532959,0,3,1,4,5,2,E-,1,0,0,400,600,250.0,0,D19KW,169,train
799.9169826507568,0,3,1,4,5,2,E-,1,4,3,400,600,250.0,4,D19KW,170,train
239.87197875976562,0,3,1,4,5,2,E-,1,4,3,400,600,250.0,4,D19KW,171,train
127.55990028381348,0,3,1,4,5,2,E-,1,0,0,400,600,250.0,0,D19KW,172,train
95.44110298156738,0,3,1,4,5,2,E-,1,2,5,400,600,250.0,2,D19KW,173,train
127.24614143371582,0,3,1,4,5,2,E-,0,4,3,400,600,250.0,3,D19KW,174,train
223.2820987701416,0,3,1,4,5,2,E-,1,4,3,400,600,250.0,4,D19KW,175,train
127.3641586303711,0,3,1,4,5,2,E-,1,5,4,400,600,250.0,5,D19KW,176,train
79.41699028015137,0,3,1,4,5,2,E-,1,0,0,400,600,250.0,0,D19KW,177,train
127.39396095275879,0,3,1,4,5,2,E-,1,5,4,400,600,250.0,5,D19KW,178,train
383.9278221130371,0,3,1,4,5,2,E-,1,1,2,400,600,250.0,1,D19KW,179,train
175.94385147094727,0,3,1,4,5,2,E-,1,1,2,400,600,250.0,1,D19KW,180,train
127.60090827941895,0,3,1,4,5,2,E-,1,2,5,400,600,250.0,2,D19KW,181,train
143.44191551208496,0,3,1,4,5,2,E-,1,3,1,400,600,250.0,3,D19KW,182,train
159.4400405883789,0,3,1,4,5,2,E-,1,0,0,400,600,250.0,0,D19KW,183,train
239.38989639282227,0,3,1,4,5,2,E-,0,2,5,400,600,250.0,3,D19KW,184,train
95.43490409851074,0,3,1,4,5,2,E-,1,0,0,400,600,250.0,0,D19KW,185,train
127.31695175170898,0,3,1,4,5,2,E-,1,2,5,400,600,250.0,2,D19KW,186,train
319.45013999938965,0,3,1,4,5,2,E-,1,5,4,400,600,250.0,5,D19KW,187,train
591.433048248291,0,3,1,4,5,2,E-,1,3,1,400,600,250.0,3,D19KW,188,train
15.453100204467773,0,3,1,4,5,2,E-,1,0,0,400,600,250.0,0,D19KW,189,train
111.48285865783691,0,3,1,4,5,2,E-,1,0,0,400,600,250.0,0,D19KW,190,train
303.2510280609131,0,3,1,4,5,2,E-,1,2,5,400,600,250.0,2,D19KW,191,train
0.051975250244140625,0,3,1,4,5,2,E-,1,1,2,400,600,250.0,1,D19KW,192,train
575.8111476898193,0,3,1,4,5,2,E-,1,0,0,400,600,250.0,0,D19KW,193,train
15.935897827148438,0,3,1,4,5,2,E-,1,0,0,400,600,250.0,0,D19KW,194,train
175.9638786315918,0,3,1,4,5,2,E-,1,5,4,400,600,250.0,5,D19KW,195,train
63.9798641204834,0,3,1,4,5,2,E-,1,1,2,400,600,250.0,1,D19KW,196,train
127.90918350219727,0,3,1,4,5,2,E-,1,2,5,400,600,250.0,2,D19KW,197,train
335.31904220581055,0,3,1,4,5,2,E-,1,4,3,400,600,250.0,4,D19KW,198,train
95.41606903076172,0,3,1,4,5,2,E-,1,4,3,400,600,250.0,4,D19KW,199,train
111.52005195617676,0,3,1,4,5,2,E-,1,0,0,400,600,250.0,0,D19KW,200,train
111.39917373657227,0,3,1,4,5,2,E-,1,1,2,400,600,250.0,1,D19KW,201,train
95.3829288482666,0,3,1,4,5,2,E-,1,0,0,400,600,250.0,0,D19KW,202,train
143.54300498962402,0,3,1,4,5,2,E-,1,1,2,400,600,250.0,1,D19KW,203,train
175.3089427947998,0,3,1,4,5,2,E-,1,2,5,400,600,250.0,2,D19KW,204,train
287.4319553375244,0,3,1,4,5,2,E-,1,2,5,400,600,250.0,2,D19KW,205,train
639.4870281219482,0,3,1,4,5,2,E-,1,5,4,400,600,250.0,5,D19KW,206,train
815.9849643707275,0,3,1,4,5,2,E-,1,3,1,400,600,250.0,3,D19KW,207,train
159.93094444274902,0,3,1,4,5,2,E-,1,5,4,400,600,250.0,5,D19KW,208,train
255.85389137268066,0,3,1,4,5,2,E-,1,5,4,400,600,250.0,5,D19KW,209,train
159.92403030395508,0,3,1,4,5,2,E-,1,4,3,400,600,250.0,4,D19KW,210,train
111.90915107727051,0,3,1,4,5,2,E-,1,5,4,400,600,250.0,5,D19KW,211,train
48.0039119720459,0,3,1,4,5,2,E-,1,5,4,400,600,250.0,5,D19KW,212,train
479.4328212738037,0,3,1,4,5,2,E-,1,0,0,400,600,250.0,0,D19KW,213,train
943.4959888458252,0,3,1,4,5,2,E-,1,3,1,400,600,250.0,3,D19KW,214,train
719.2661762237549,0,3,1,4,5,2,E-,1,2,5,400,600,250.0,2,D19KW,215,train
47.4090576171875,0,3,1,4,5,2,E-,1,1,2,400,600,250.0,1,D19KW,216,train
767.1189308166504,0,3,1,4,5,2,E-,0,3,1,400,600,250.0,2,D19KW,217,train
223.73509407043457,0,3,1,4,5,2,E-,1,1,2,400,600,250.0,1,D19KW,218,train
399.77002143859863,0,3,1,4,5,2,E-,1,4,3,400,600,250.0,4,D19KW,219,train
127.84004211425781,0,3,1,4,5,2,E-,1,5,4,400,600,250.0,5,D19KW,220,train
127.77185440063477,0,3,1,4,5,2,E-,1,4,3,400,600,250.0,4,D19KW,221,train
271.7938423156738,0,3,1,4,5,2,E-,1,2,5,400,600,250.0,2,D19KW,222,train
671.8800067901611,0,3,1,4,5,2,E-,1,2,5,400,600,250.0,2,D19KW,223,train
127.53009796142578,0,3,1,4,5,2,E-,1,2,5,400,600,250.0,2,D19KW,224,train
143.94712448120117,0,3,1,4,5,2,E-,1,5,4,400,600,250.0,5,D19KW,225,train
63.83085250854492,0,3,1,4,5,2,E-,1,3,1,400,600,250.0,3,D19KW,226,train
31.796932220458984,0,3,1,4,5,2,E-,1,1,2,400,600,250.0,1,D19KW,227,train
95.30496597290039,0,3,1,4,5,2,E-,1,5,4,400,600,250.0,5,D19KW,228,train
559.4370365142822,0,3,1,4,5,2,E-,1,0,0,400,600,250.0,0,D19KW,229,train
143.39590072631836,0,3,1,4,5,2,E-,1,5,4,400,600,250.0,5,D19KW,230,train
159.44314002990723,0,3,1,4,5,2,E-,1,1,2,400,600,250.0,1,D19KW,231,train
415.3451919555664,0,3,1,4,5,2,E-,1,2,5,400,600,250.0,2,D19KW,232,train
255.357027053833,0,3,1,4,5,2,E-,1,1,2,400,600,250.0,1,D19KW,233,train
607.4690818786621,0,3,1,4,5,2,E-,1,5,4,400,600,250.0,5,D19KW,234,train
287.614107131958,0,3,1,4,5,2,E-,1,0,0,400,600,250.0,0,D19KW,235,train
1007.573127746582,0,3,1,4,5,2,E-,1,5,4,400,600,250.0,5,D19KW,236,train
303.80797386169434,0,3,1,4,5,2,E-,1,0,0,400,600,250.0,0,D19KW,237,train
15.881061553955078,0,3,1,4,5,2,E-,1,1,2,400,600,250.0,1,D19KW,238,train
671.8399524688721,0,3,1,4,5,2,E-,1,3,1,400,600,250.0,3,D19KW,239,train
319.64898109436035,0,3,1,4,5,2,E-,1,4,3,400,600,250.0,4,D19KW,240,train
223.44708442687988,0,3,1,4,5,2,E-,1,3,1,400,600,250.0,3,D19KW,241,train
0.05412101745605469,0,3,1,4,5,2,E-,1,4,3,400,600,250.0,4,D19KW,242,train
0.053882598876953125,0,3,1,4,5,2,E-,0,0,0,400,600,250.0,3,D19KW,243,train
351.56893730163574,0,3,1,4,5,2,E-,1,0,0,400,600,250.0,0,D19KW,244,train
543.4551239013672,0,3,1,4,5,2,E-,1,4,3,400,600,250.0,4,D19KW,245,train
191.40195846557617,0,3,1,4,5,2,E-,1,1,2,400,600,250.0,1,D19KW,246,train
79.50496673583984,0,3,1,4,5,2,E-,1,0,0,400,600,250.0,0,D19KW,247,train
911.4551544189453,0,3,1,4,5,2,E-,1,3,1,400,600,250.0,3,D19KW,248,train
111.33098602294922,0,3,1,4,5,2,E-,1,1,2,400,600,250.0,1,D19KW,249,train
928.6501407623291,1,0,5,2,4,3,E-,0,2,3,0,1000,250.0,4,D19KW,250,test
976.6910076141357,1,0,5,2,4,3,E-,1,2,3,0,1000,250.0,2,D19KW,251,test
1104.9699783325195,1,0,5,2,4,3,E-,1,5,2,0,1000,250.0,5,D19KW,252,test
2065.0250911712646,1,0,5,2,4,3,E-,1,4,4,0,1000,250.0,4,D19KW,253,test
1089.015007019043,1,0,5,2,4,3,E-,1,1,0,0,1000,250.0,1,D19KW,254,test
1744.9860572814941,1,0,5,2,4,3,E-,1,0,1,0,1000,250.0,0,D19KW,255,test
1409.0099334716797,1,0,5,2,4,3,E-,1,2,3,0,1000,250.0,2,D19KW,256,test
1729.1698455810547,1,0,5,2,4,3,E-,1,1,0,0,1000,250.0,1,D19KW,257,test
1041.0890579223633,1,0,5,2,4,3,E-,1,1,0,0,1000,250.0,1,D19KW,258,test
833.0588340759277,1,0,5,2,4,3,E-,1,2,3,0,1000,250.0,2,D19KW,259,test
672.9650497436523,1,0,5,2,4,3,E-,1,2,3,0,1000,250.0,2,D19KW,260,test
545.0940132141113,1,0,5,2,4,3,E-,1,2,3,0,1000,250.0,2,D19KW,261,test
1360.9530925750732,1,0,5,2,4,3,E-,1,5,2,0,1000,250.0,5,D19KW,262,test
816.680908203125,1,0,5,2,4,3,E-,0,2,3,0,1000,250.0,5,D19KW,263,test
832.9589366912842,1,0,5,2,4,3,E-,1,1,0,0,1000,250.0,1,D19KW,264,test
2657.0870876312256,1,0,5,2,4,3,E-,1,4,4,0,1000,250.0,4,D19KW,265,test
1424.926996231079,1,0,5,2,4,3,E-,1,0,1,0,1000,250.0,0,D19KW,266,test
2401.0679721832275,1,0,5,2,4,3,E-,1,4,4,0,1000,250.0,4,D19KW,267,test
897.0348834991455,1,0,5,2,4,3,E-,1,0,1,0,1000,250.0,0,D19KW,268,test
752.8629302978516,1,0,5,2,4,3,E-,1,2,3,0,1000,250.0,2,D19KW,269,test
1328.6340236663818,1,0,5,2,4,3,E-,1,1,0,0,1000,250.0,1,D19KW,270,test
592.6849842071533,1,0,5,2,4,3,E-,1,2,3,0,1000,250.0,2,D19KW,271,test
832.6749801635742,1,0,5,2,4,3,E-,1,1,0,0,1000,250.0,1,D19KW,272,test
1232.9258918762207,1,0,5,2,4,3,E-,1,5,2,0,1000,250.0,5,D19KW,273,test
992.5718307495117,1,0,5,2,4,3,E-,0,3,5,0,1000,250.0,4,D19KW,274,test
1264.343023300171,1,0,5,2,4,3,E-,1,5,2,0,1000,250.0,5,D19KW,275,test
1424.6058464050293,1,0,5,2,4,3,E-,1,3,5,0,1000,250.0,3,D19KW,276,test
640.6440734863281,1,0,5,2,4,3,E-,1,3,5,0,1000,250.0,3,D19KW,277,test
1024.298906326294,1,0,5,2,4,3,E-,1,3,5,0,1000,250.0,3,D19KW,278,test
1488.5869026184082,1,0,5,2,4,3,E-,1,4,4,0,1000,250.0,4,D19KW,279,test
784.6601009368896,1,0,5,2,4,3,E-,1,0,1,0,1000,250.0,0,D19KW,280,test
1488.6479377746582,1,0,5,2,4,3,E-,1,5,2,0,1000,250.0,5,D19KW,281,test
800.5859851837158,1,0,5,2,4,3,E-,1,2,3,0,1000,250.0,2,D19KW,282,test
640.632152557373,1,0,5,2,4,3,E-,0,4,4,0,1000,250.0,5,D19KW,283,test
1136.5289688110352,1,0,5,2,4,3,E-,1,1,0,0,1000,250.0,1,D19KW,284,test
784.6641540527344,1,0,5,2,4,3,E-,1,0,1,0,1000,250.0,0,D19KW,285,test
464.65516090393066,1,0,5,2,4,3,E-,1,0,1,0,1000,250.0,0,D19KW,286,test
672.698974609375,1,0,5,2,4,3,E-,0,3,5,0,1000,250.0,2,D19KW,287,test
1088.6569023132324,1,0,5,2,4,3,E-,1,5,2,0,1000,250.0,5,D19KW,288,test
1072.756052017212,1,0,5,2,4,3,E-,1,2,3,0,1000,250.0,2,D19KW,289,test
1216.7739868164062,1,0,5,2,4,3,E-,1,1,0,0,1000,250.0,1,D19KW,290,test
752.6130676269531,1,0,5,2,4,3,E-,1,5,2,0,1000,250.0,5,D19KW,291,test
848.6518859863281,1,0,5,2,4,3,E-,0,3,5,0,1000,250.0,2,D19KW,292,test
1008.8629722595215,1,0,5,2,4,3,E-,1,5,2,0,1000,250.0,5,D19KW,293,test
1456.6190242767334,1,0,5,2,4,3,E-,0,4,4,0,1000,250.0,1,D19KW,294,test
1248.6271858215332,1,0,5,2,4,3,E-,0,5,2,0,1000,250.0,0,D19KW,295,test
800.6789684295654,1,0,5,2,4,3,E-,1,5,2,0,1000,250.0,5,D19KW,296,test
1088.629961013794,1,0,5,2,4,3,E-,1,1,0,0,1000,250.0,1,D19KW,297,test
1328.8171291351318,1,0,5,2,4,3,E-,1,3,5,0,1000,250.0,3,D19KW,298,test
1344.6810245513916,1,0,5,2,4,3,E-,1,1,0,0,1000,250.0,1,D19KW,299,test
512.7360820770264,1,0,5,2,4,3,E-,1,1,0,0,1000,250.0,1,D19KW,300,test
1104.8500537872314,1,0,5,2,4,3,E-,1,3,5,0,1000,250.0,3,D19KW,301,test
1312.718152999878,1,0,5,2,4,3,E-,1,4,4,0,1000,250.0,4,D19KW,302,test
1616.6908740997314,1,0,5,2,4,3,E-,1,1,0,0,1000,250.0,1,D19KW,303,test
720.9908962249756,1,0,5,2,4,3,E-,1,1,0,0,1000,250.0,1,D19KW,304,test
1377.1049976348877,1,0,5,2,4,3,E-,1,2,3,0,1000,250.0,2,D19KW,305,test
1024.9581336975098,1,0,5,2,4,3,E-,1,3,5,0,1000,250.0,3,D19KW,306,test
833.02903175354,1,0,5,2,4,3,E-,1,4,4,0,1000,250.0,4,D19KW,307,test
673.037052154541,1,0,5,2,4,3,E-,1,5,2,0,1000,250.0,5,D19KW,308,test
1073.1267929077148,1,0,5,2,4,3,E-,1,1,0,0,1000,250.0,1,D19KW,309,test
1025.2552032470703,1,0,5,2,4,3,E-,1,3,5,0,1000,250.0,3,D19KW,310,test
720.9830284118652,1,0,5,2,4,3,E-,1,1,0,0,1000,250.0,1,D19KW,311,test
736.6838455200195,1,0,5,2,4,3,E-,1,2,3,0,1000,250.0,2,D19KW,312,test
1664.6959781646729,1,0,5,2,4,3,E-,1,0,1,0,1000,250.0,0,D19KW,313,test
752.7279853820801,1,0,5,2,4,3,E-,1,5,2,0,1000,250.0,5,D19KW,314,test
720.7260131835938,1,0,5,2,4,3,E-,1,5,2,0,1000,250.0,5,D19KW,315,test
816.694974899292,1,0,5,2,4,3,E-,0,4,4,0,1000,250.0,1,D19KW,316,test
1152.6591777801514,1,0,5,2,4,3,E-,1,3,5,0,1000,250.0,3,D19KW,317,test
688.6398792266846,1,0,5,2,4,3,E-,1,2,3,0,1000,250.0,2,D19KW,318,test
960.6680870056152,1,0,5,2,4,3,E-,1,4,4,0,1000,250.0,4,D19KW,319,test
944.5850849151611,1,0,5,2,4,3,E-,1,1,0,0,1000,250.0,1,D19KW,320,test
1040.6889915466309,1,0,5,2,4,3,E-,1,4,4,0,1000,250.0,4,D19KW,321,test
752.6319026947021,1,0,5,2,4,3,E-,1,5,2,0,1000,250.0,5,D19KW,322,test
640.6569480895996,1,0,5,2,4,3,E-,1,0,1,0,1000,250.0,0,D19KW,323,test
752.2649765014648,1,0,5,2,4,3,E-,1,0,1,0,1000,250.0,0,D19KW,324,test
1344.3341255187988,1,0,5,2,4,3,E-,1,1,0,0,1000,250.0,1,D19KW,325,test
1888.6590003967285,1,0,5,2,4,3,E-,1,0,1,0,1000,250.0,0,D19KW,326,test
1136.6419792175293,1,0,5,2,4,3,E-,1,1,0,0,1000,250.0,1,D19KW,327,test
1472.5589752197266,1,0,5,2,4,3,E-,1,1,0,0,1000,250.0,1,D19KW,328,test
1025.0210762023926,1,0,5,2,4,3,E-,1,1,0,0,1000,250.0,1,D19KW,329,test
1264.6620273590088,1,0,5,2,4,3,E-,1,1,0,0,1000,250.0,1,D19KW,330,test
544.9252128601074,1,0,5,2,4,3,E-,1,1,0,0,1000,250.0,1,D19KW,331,test
1184.9370002746582,1,0,5,2,4,3,E-,1,3,5,0,1000,250.0,3,D19KW,332,test
625.1401901245117,1,0,5,2,4,3,E-,1,2,3,0,1000,250.0,2,D19KW,333,test
961.0459804534912,1,0,5,2,4,3,E-,0,4,4,0,1000,250.0,5,D19KW,334,test
768.9268589019775,1,0,5,2,4,3,E-,1,0,1,0,1000,250.0,0,D19KW,335,test
880.591869354248,1,0,5,2,4,3,E-,1,5,2,0,1000,250.0,5,D19KW,336,test
689.0060901641846,1,0,5,2,4,3,E-,1,4,4,0,1000,250.0,4,D19KW,337,test
832.2429656982422,1,0,5,2,4,3,E-,0,2,3,0,1000,250.0,3,D19KW,338,test
768.6781883239746,1,0,5,2,4,3,E-,1,5,2,0,1000,250.0,5,D19KW,339,test
912.6269817352295,1,0,5,2,4,3,E-,0,2,3,0,1000,250.0,3,D19KW,340,test
880.6898593902588,1,0,5,2,4,3,E-,1,4,4,0,1000,250.0,4,D19KW,341,test
1040.621042251587,1,0,5,2,4,3,E-,1,2,3,0,1000,250.0,2,D19KW,342,test
800.5719184875488,1,0,5,2,4,3,E-,1,1,0,0,1000,250.0,1,D19KW,343,test
576.6761302947998,1,0,5,2,4,3,E-,1,0,1,0,1000,250.0,0,D19KW,344,test
816.723108291626,1,0,5,2,4,3,E-,1,4,4,0,1000,250.0,4,D19KW,345,test
608.6359024047852,1,0,5,2,4,3,E-,1,4,4,0,1000,250.0,4,D19KW,346,test
960.7081413269043,1,0,5,2,4,3,E-,1,1,0,0,1000,250.0,1,D19KW,347,test
1313.1659030914307,1,0,5,2,4,3,E-,1,3,5,0,1000,250.0,3,D19KW,348,test
752.7761459350586,1,0,5,2,4,3,E-,1,0,1,0,1000,250.0,0,D19KW,349,test
688.7028217315674,1,0,5,2,4,3,E-,1,4,4,0,1000,250.0,4,D19KW,350,test
656.7001342773438,1,0,5,2,4,3,E-,1,4,4,0,1000,250.0,4,D19KW,351,test
785.0279808044434,1,0,5,2,4,3,E-,1,1,0,0,1000,250.0,1,D19KW,352,test
656.6329002380371,1,0,5,2,4,3,E-,1,0,1,0,1000,250.0,0,D19KW,353,test
1184.589147567749,1,0,5,2,4,3,E-,1,2,3,0,1000,250.0,2,D19KW,354,test
672.6911067962646,1,0,5,2,4,3,E-,1,1,0,0,1000,250.0,1,D19KW,355,test
672.6341247558594,1,0,5,2,4,3,E-,1,5,2,0,1000,250.0,5,D19KW,356,test
624.640941619873,1,0,5,2,4,3,E-,1,5,2,0,1000,250.0,5,D19KW,357,test
560.6939792633057,1,0,5,2,4,3,E-,1,0,1,0,1000,250.0,0,D19KW,358,test
912.6660823822021,1,0,5,2,4,3,E-,1,2,3,0,1000,250.0,2,D19KW,359,test
1776.6711711883545,1,0,5,2,4,3,E-,1,4,4,0,1000,250.0,4,D19KW,360,test
928.8060665130615,1,0,5,2,4,3,E-,0,2,3,0,1000,250.0,3,D19KW,361,test
576.9698619842529,1,0,5,2,4,3,E-,1,0,1,0,1000,250.0,0,D19KW,362,test
1153.1901359558105,1,0,5,2,4,3,E-,1,5,2,0,1000,250.0,5,D19KW,363,test
945.0221061706543,1,0,5,2,4,3,E-,1,3,5,0,1000,250.0,3,D19KW,364,test
1312.9398822784424,1,0,5,2,4,3,E-,1,4,4,0,1000,250.0,4,D19KW,365,test
1857.2101593017578,1,0,5,2,4,3,E-,1,5,2,0,1000,250.0,5,D19KW,366,test
641.0951614379883,1,0,5,2,4,3,E-,1,0,1,0,1000,250.0,0,D19KW,367,test
1265.0361061096191,1,0,5,2,4,3,E-,1,2,3,0,1000,250.0,2,D19KW,368,test
993.0939674377441,1,0,5,2,4,3,E-,1,2,3,0,1000,250.0,2,D19KW,369,test
1136.9900703430176,1,0,5,2,4,3,E-,1,4,4,0,1000,250.0,4,D19KW,370,test
1153.1500816345215,1,0,5,2,4,3,E-,1,2,3,0,1000,250.0,2,D19KW,371,test
896.9030380249023,1,0,5,2,4,3,E-,1,3,5,0,1000,250.0,3,D19KW,372,test
1232.5818538665771,1,0,5,2,4,3,E-,0,2,3,0,1000,250.0,1,D19KW,373,test
624.6340274810791,1,0,5,2,4,3,E-,1,0,1,0,1000,250.0,0,D19KW,374,test
2192.950963973999,1,0,5,2,4,3,E-,1,3,5,0,1000,250.0,3,D19KW,375,test
2832.6828479766846,1,0,5,2,4,3,E-,1,1,0,0,1000,250.0,1,D19KW,376,test
976.5920639038086,1,0,5,2,4,3,E-,1,4,4,0,1000,250.0,4,D19KW,377,test
577.0399570465088,1,0,5,2,4,3,E-,1,0,1,0,1000,250.0,0,D19KW,378,test
913.0308628082275,1,0,5,2,4,3,E-,1,2,3,0,1000,250.0,2,D19KW,379,test
720.6821441650391,1,0,5,2,4,3,E-,1,1,0,0,1000,250.0,1,D19KW,380,test
496.6092109680176,1,0,5,2,4,3,E-,1,1,0,0,1000,250.0,1,D19KW,381,test
1056.5969944000244,1,0,5,2,4,3,E-,1,3,5,0,1000,250.0,3,D19KW,382,test
656.6801071166992,1,0,5,2,4,3,E-,1,3,5,0,1000,250.0,3,D19KW,383,test
672.666072845459,1,0,5,2,4,3,E-,1,2,3,0,1000,250.0,2,D19KW,384,test
768.6891555786133,1,0,5,2,4,3,E-,1,5,2,0,1000,250.0,5,D19KW,385,test
512.6791000366211,1,0,5,2,4,3,E-,1,5,2,0,1000,250.0,5,D19KW,386,test
496.6928958892822,1,0,5,2,4,3,E-,1,5,2,0,1000,250.0,5,D19KW,387,test
464.5237922668457,1,0,5,2,4,3,E-,1,5,2,0,1000,250.0,5,D19KW,388,test
976.7041206359863,1,0,5,2,4,3,E-,1,3,5,0,1000,250.0,3,D19KW,389,test
624.7148513793945,1,0,5,2,4,3,E-,1,1,0,0,1000,250.0,1,D19KW,390,test
608.6540222167969,1,0,5,2,4,3,E-,1,1,0,0,1000,250.0,1,D19KW,391,test
608.6840629577637,1,0,5,2,4,3,E-,1,0,1,0,1000,250.0,0,D19KW,392,test
576.5700340270996,1,0,5,2,4,3,E-,0,3,5,0,1000,250.0,0,D19KW,393,test
912.6739501953125,1,0,5,2,4,3,E-,1,3,5,0,1000,250.0,3,D19KW,394,test
480.63206672668457,1,0,5,2,4,3,E-,1,0,1,0,1000,250.0,0,D19KW,395,test
576.6580104827881,1,0,5,2,4,3,E-,0,4,4,0,1000,250.0,5,D19KW,396,test
880.958080291748,1,0,5,2,4,3,E-,1,5,2,0,1000,250.0,5,D19KW,397,test
1569.0560340881348,1,0,5,2,4,3,E-,1,2,3,0,1000,250.0,2,D19KW,398,test
2001.0559558868408,1,0,5,2,4,3,E-,1,2,3,0,1000,250.0,2,D19KW,399,test
576.9670009613037,1,0,5,2,4,3,E-,1,0,1,0,1000,250.0,0,D19KW,400,test
1328.9129734039307,1,0,5,2,4,3,E-,1,2,3,0,1000,250.0,2,D19KW,401,test
816.9858455657959,1,0,5,2,4,3,E-,1,4,4,0,1000,250.0,4,D19KW,402,test
1169.050931930542,1,0,5,2,4,3,E-,1,1,0,0,1000,250.0,1,D19KW,403,test
641.0279273986816,1,0,5,2,4,3,E-,0,4,4,0,1000,250.0,5,D19KW,404,test
704.8749923706055,1,0,5,2,4,3,E-,1,3,5,0,1000,250.0,3,D19KW,405,test
672.7070808410645,1,0,5,2,4,3,E-,1,5,2,0,1000,250.0,5,D19KW,406,test
1920.6700325012207,1,0,5,2,4,3,E-,1,2,3,0,1000,250.0,2,D19KW,407,test
1233.0029010772705,1,0,5,2,4,3,E-,1,2,3,0,1000,250.0,2,D19KW,408,test
784.9979400634766,1,0,5,2,4,3,E-,1,3,5,0,1000,250.0,3,D19KW,409,test
768.7571048736572,1,0,5,2,4,3,E-,1,4,4,0,1000,250.0,4,D19KW,410,test
1568.575143814087,1,0,5,2,4,3,E-,1,3,5,0,1000,250.0,3,D19KW,411,test
672.6610660552979,1,0,5,2,4,3,E-,1,3,5,0,1000,250.0,3,D19KW,412,test
608.7541580200195,1,0,5,2,4,3,E-,1,2,3,0,1000,250.0,2,D19KW,413,test
864.6881580352783,1,0,5,2,4,3,E-,1,2,3,0,1000,250.0,2,D19KW,414,test
672.7240085601807,1,0,5,2,4,3,E-,1,3,5,0,1000,250.0,3,D19KW,415,test
736.6890907287598,1,0,5,2,4,3,E-,1,1,0,0,1000,250.0,1,D19KW,416,test
1264.6279335021973,1,0,5,2,4,3,E-,1,0,1,0,1000,250.0,0,D19KW,417,test
896.6889381408691,1,0,5,2,4,3,E-,1,0,1,0,1000,250.0,0,D19KW,418,test
1152.93288230896,1,0,5,2,4,3,E-,1,5,2,0,1000,250.0,5,D19KW,419,test
641.0410404205322,1,0,5,2,4,3,E-,1,2,3,0,1000,250.0,2,D19KW,420,test
1328.9978504180908,1,0,5,2,4,3,E-,1,0,1,0,1000,250.0,0,D19KW,421,test
433.01892280578613,1,0,5,2,4,3,E-,1,0,1,0,1000,250.0,0,D19KW,422,test
657.041072845459,1,0,5,2,4,3,E-,1,2,3,0,1000,250.0,2,D19KW,423,test
657.0827960968018,1,0,5,2,4,3,E-,1,5,2,0,1000,250.0,5,D19KW,424,test
768.9721584320068,1,0,5,2,4,3,E-,1,5,2,0,1000,250.0,5,D19KW,425,test
944.7939395904541,1,0,5,2,4,3,E-,1,3,5,0,1000,250.0,3,D19KW,426,test
992.6488399505615,1,0,5,2,4,3,E-,1,3,5,0,1000,250.0,3,D19KW,427,test
688.7240409851074,1,0,5,2,4,3,E-,1,1,0,0,1000,250.0,1,D19KW,428,test
1072.662115097046,1,0,5,2,4,3,E-,1,2,3,0,1000,250.0,2,D19KW,429,test
1280.6990146636963,1,0,5,2,4,3,E-,1,0,1,0,1000,250.0,0,D19KW,430,test
1568.6938762664795,1,0,5,2,4,3,E-,1,5,2,0,1000,250.0,5,D19KW,431,test
2112.694025039673,1,0,5,2,4,3,E-,1,5,2,0,1000,250.0,5,D19KW,432,test
800.63796043396,1,0,5,2,4,3,E-,1,2,3,0,1000,250.0,2,D19KW,433,test
848.6390113830566,1,0,5,2,4,3,E-,1,1,0,0,1000,250.0,1,D19KW,434,test
1552.583932876587,1,0,5,2,4,3,E-,1,3,5,0,1000,250.0,3,D19KW,435,test
1120.7101345062256,1,0,5,2,4,3,E-,1,2,3,0,1000,250.0,2,D19KW,436,test
752.7129650115967,1,0,5,2,4,3,E-,1,3,5,0,1000,250.0,3,D19KW,437,test
593.0190086364746,1,0,5,2,4,3,E-,1,2,3,0,1000,250.0,2,D19KW,438,test
560.6520175933838,1,0,5,2,4,3,E-,1,5,2,0,1000,250.0,5,D19KW,439,test
592.6980972290039,1,0,5,2,4,3,E-,1,1,0,0,1000,250.0,1,D19KW,440,test
480.57007789611816,1,0,5,2,4,3,E-,1,3,5,0,1000,250.0,3,D19KW,441,test
512.7439498901367,1,0,5,2,4,3,E-,1,5,2,0,1000,250.0,5,D19KW,442,test
640.7589912414551,1,0,5,2,4,3,E-,1,3,5,0,1000,250.0,3,D19KW,443,test
592.6649570465088,1,0,5,2,4,3,E-,0,1,0,0,1000,250.0,0,D19KW,444,test
1040.7330989837646,1,0,5,2,4,3,E-,1,2,3,0,1000,250.0,2,D19KW,445,test
608.5820198059082,1,0,5,2,4,3,E-,1,5,2,0,1000,250.0,5,D19KW,446,test
672.7240085601807,1,0,5,2,4,3,E-,1,1,0,0,1000,250.0,1,D19KW,447,test
1056.7278861999512,1,0,5,2,4,3,E-,1,2,3,0,1000,250.0,2,D19KW,448,test
1024.9741077423096,1,0,5,2,4,3,E-,1,1,0,0,1000,250.0,1,D19KW,449,test
880.7799816131592,1,0,5,2,4,3,E-,1,1,0,0,1000,250.0,1,D19KW,450,test
1136.6701126098633,1,0,5,2,4,3,E-,1,3,5,0,1000,250.0,3,D19KW,451,test
656.6731929779053,1,0,5,2,4,3,E-,1,5,2,0,1000,250.0,5,D19KW,452,test
1056.725025177002,1,0,5,2,4,3,E-,1,2,3,0,1000,250.0,2,D19KW,453,test
1840.6689167022705,1,0,5,2,4,3,E-,1,1,0,0,1000,250.0,1,D19KW,454,test
1104.7978401184082,1,0,5,2,4,3,E-,1,5,2,0,1000,250.0,5,D19KW,455,test
577.347993850708,1,0,5,2,4,3,E-,1,0,1,0,1000,250.0,0,D19KW,456,test
1392.5819396972656,1,0,5,2,4,3,E-,1,2,3,0,1000,250.0,2,D19KW,457,test
448.7471580505371,1,0,5,2,4,3,E-,1,2,3,0,1000,250.0,2,D19KW,458,test
528.6240577697754,1,0,5,2,4,3,E-,1,4,4,0,1000,250.0,4,D19KW,459,test
704.578161239624,1,0,5,2,4,3,E-,1,3,5,0,1000,250.0,3,D19KW,460,test
816.6239261627197,1,0,5,2,4,3,E-,1,0,1,0,1000,250.0,0,D19KW,461,test
704.6868801116943,1,0,5,2,4,3,E-,1,1,0,0,1000,250.0,1,D19KW,462,test
640.7182216644287,1,0,5,2,4,3,E-,1,4,4,0,1000,250.0,4,D19KW,463,test
848.6959934234619,1,0,5,2,4,3,E-,1,1,0,0,1000,250.0,1,D19KW,464,test
608.72483253479,1,0,5,2,4,3,E-,1,5,2,0,1000,250.0,5,D19KW,465,test
864.6659851074219,1,0,5,2,4,3,E-,0,3,5,0,1000,250.0,2,D19KW,466,test
928.6899566650391,1,0,5,2,4,3,E-,1,1,0,0,1000,250.0,1,D19KW,467,test
656.6410064697266,1,0,5,2,4,3,E-,1,5,2,0,1000,250.0,5,D19KW,468,test
608.6881160736084,1,0,5,2,4,3,E-,1,4,4,0,1000,250.0,4,D19KW,469,test
1088.6950492858887,1,0,5,2,4,3,E-,1,2,3,0,1000,250.0,2,D19KW,470,test
544.605016708374,1,0,5,2,4,3,E-,1,5,2,0,1000,250.0,5,D19KW,471,test
672.6610660552979,1,0,5,2,4,3,E-,1,1,0,0,1000,250.0,1,D19KW,472,test
544.625997543335,1,0,5,2,4,3,E-,1,0,1,0,1000,250.0,0,D19KW,473,test
784.6589088439941,1,0,5,2,4,3,E-,0,1,0,0,1000,250.0,2,D19KW,474,test
960.6549739837646,1,0,5,2,4,3,E-,0,3,5,0,1000,250.0,4,D19KW,475,test
912.6999378204346,1,0,5,2,4,3,E-,1,3,5,0,1000,250.0,3,D19KW,476,test
1136.6150379180908,1,0,5,2,4,3,E-,1,3,5,0,1000,250.0,3,D19KW,477,test
896.6999053955078,1,0,5,2,4,3,E-,1,4,4,0,1000,250.0,4,D19KW,478,test
624.626874923706,1,0,5,2,4,3,E-,1,5,2,0,1000,250.0,5,D19KW,479,test
896.8029022216797,1,0,5,2,4,3,E-,1,1,0,0,1000,250.0,1,D19KW,480,test
944.6990489959717,1,0,5,2,4,3,E-,1,4,4,0,1000,250.0,4,D19KW,481,test
687.2940063476562,1,0,5,2,4,3,E-,1,0,1,0,1000,250.0,0,D19KW,482,test
1313.1599426269531,1,0,5,2,4,3,E-,1,3,5,0,1000,250.0,3,D19KW,483,test
801.0787963867188,1,0,5,2,4,3,E-,1,3,5,0,1000,250.0,3,D19KW,484,test
608.8709831237793,1,0,5,2,4,3,E-,1,4,4,0,1000,250.0,4,D19KW,485,test
1200.7060050964355,1,0,5,2,4,3,E-,1,2,3,0,1000,250.0,2,D19KW,486,test
656.7769050598145,1,0,5,2,4,3,E-,1,1,0,0,1000,250.0,1,D19KW,487,test
1072.7460384368896,1,0,5,2,4,3,E-,1,3,5,0,1000,250.0,3,D19KW,488,test
800.7850646972656,1,0,5,2,4,3,E-,1,1,0,0,1000,250.0,1,D19KW,489,test
1024.6939659118652,1,0,5,2,4,3,E-,1,3,5,0,1000,250.0,3,D19KW,490,test
608.2899570465088,1,0,5,2,4,3,E-,1,4,4,0,1000,250.0,4,D19KW,491,test
656.6450595855713,1,0,5,2,4,3,E-,1,4,4,0,1000,250.0,4,D19KW,492,test
1344.5730209350586,1,0,5,2,4,3,E-,1,3,5,0,1000,250.0,3,D19KW,493,test
736.5341186523438,1,0,5,2,4,3,E-,1,5,2,0,1000,250.0,5,D19KW,494,test
1376.528024673462,1,0,5,2,4,3,E-,1,2,3,0,1000,250.0,2,D19KW,495,test
608.8070869445801,1,0,5,2,4,3,E-,1,3,5,0,1000,250.0,3,D19KW,496,test
848.607063293457,1,0,5,2,4,3,E-,1,1,0,0,1000,250.0,1,D19KW,497,test
496.6089725494385,1,0,5,2,4,3,E-,1,1,0,0,1000,250.0,1,D19KW,498,test
672.6701259613037,1,0,5,2,4,3,E-,1,2,3,0,1000,250.0,2,D19KW,499,test
