RT,SRmap_0,SRmap_1,SRmap_2,SRmap_3,SRmap_4,SRmap_5,condition,correct,correct_response,curstim,ms-precue,ms-prestimblank,ntrials,response,subject,trial,type
2160.3591442108154,5,2,0,1,4,3,H-,0,1,3,0,1000,250.0,0,D25AS,0,train
2544.485092163086,5,2,0,1,4,3,H-,1,3,5,0,1000,250.0,3,D25AS,1,train
1216.4819240570068,5,2,0,1,4,3,H-,1,1,3,0,1000,250.0,1,D25AS,2,train
3568.7460899353027,5,2,0,1,4,3,H-,0,5,0,0,1000,250.0,3,D25AS,3,train
1696.6829299926758,5,2,0,1,4,3,H-,1,0,2,0,1000,250.0,0,D25AS,4,train
1088.6991024017334,5,2,0,1,4,3,H-,1,5,0,0,1000,250.0,5,D25AS,5,train
1120.7079887390137,5,2,0,1,4,3,H-,1,4,4,0,1000,250.0,4,D25AS,6,train
1232.72705078125,5,2,0,1,4,3,H-,1,2,1,0,1000,250.0,2,D25AS,7,train
736.7198467254639,5,2,0,1,4,3,H-,1,5,0,0,1000,250.0,5,D25AS,8,train
1088.719129562378,5,2,0,1,4,3,H-,1,0,2,0,1000,250.0,0,D25AS,9,train
2128.9100646972656,5,2,0,1,4,3,H-,1,5,0,0,1000,250.0,5,D25AS,10,train
1840.7740592956543,5,2,0,1,4,3,H-,1,2,1,0,1000,250.0,2,D25AS,11,train
1040.816068649292,5,2,0,1,4,3,H-,1,4,4,0,1000,250.0,4,D25AS,12,train
912.6698970794678,5,2,0,1,4,3,H-,1,3,5,0,1000,250.0,3,D25AS,13,train
896.691083908081,5,2,0,1,4,3,H-,1,1,3,0,1000,250.0,1,D25AS,14,train
912.7261638641357,5,2,0,1,4,3,H-,1,0,2,0,1000,250.0,0,D25AS,15,train
704.7021389007568,5,2,0,1,4,3,H-,1,5,0,0,1000,250.0,5,D25AS,16,train
736.7110252380371,5,2,0,1,4,3,H-,1,1,3,0,1000,250.0,1,D25AS,17,train
880.7518482208252,5,2,0,1,4,3,H-,1,3,5,0,1000,250.0,3,D25AS,18,train
656.6948890686035,5,2,0,1,4,3,H-,1,0,2,0,1000,250.0,0,D25AS,19,train
496.71196937561035,5,2,0,1,4,3,H-,1,0,2,0,1000,250.0,0,D25AS,20,train
736.8710041046143,5,2,0,1,4,3,H-,1,3,5,0,1000,250.0,3,D25AS,21,train
944.6840286254883,5,2,0,1,4,3,H-,1,4,4,0,1000,250.0,4,D25AS,22,train
800.8201122283936,5,2,0,1,4,3,H-,1,2,1,0,1000,250.0,2,D25AS,23,train
640.7980918884277,5,2,0,1,4,3,H-,1,1,3,0,1000,250.0,1,D25AS,24,train
672.6019382476807,5,2,0,1,4,3,H-,1,1,3,0,1000,250.0,1,D25AS,25,train
624.6559619903564,5,2,0,1,4,3,H-,0,3,5,0,1000,250.0,1,D25AS,26,train
976.8919944763184,5,2,0,1,4,3,H-,1,4,4,0,1000,250.0,4,D25AS,27,train
656.6691398620605,5,2,0,1,4,3,H-,1,0,2,0,1000,250.0,0,D25AS,28,train
944.8051452636719,5,2,0,1,4,3,H-,1,2,1,0,1000,250.0,2,D25AS,29,train
1088.7911319732666,5,2,0,1,4,3,H-,1,4,4,0,1000,250.0,4,D25AS,30,train
640.5520439147949,5,2,0,1,4,3,H-,1,0,2,0,1000,250.0,0,D25AS,31,train
1168.4329509735107,5,2,0,1,4,3,H-,1,3,5,0,1000,250.0,3,D25AS,32,train
913.0868911743164,5,2,0,1,4,3,H-,1,4,4,0,1000,250.0,4,D25AS,33,train
1553.091049194336,5,2,0,1,4,3,H-,0,3,5,0,1000,250.0,4,D25AS,34,train
1281.069040298462,5,2,0,1,4,3,H-,1,3,5,0,1000,250.0,3,D25AS,35,train
609.1098785400391,5,2,0,1,4,3,H-,1,0,2,0,1000,250.0,0,D25AS,36,train
593.0230617523193,5,2,0,1,4,3,H-,1,5,0,0,1000,250.0,5,D25AS,37,train
833.0118656158447,5,2,0,1,4,3,H-,1,3,5,0,1000,250.0,3,D25AS,38,train
561.0752105712891,5,2,0,1,4,3,H-,1,0,2,0,1000,250.0,0,D25AS,39,train
801.1138439178467,5,2,0,1,4,3,H-,1,2,1,0,1000,250.0,2,D25AS,40,train
513.0159854888916,5,2,0,1,4,3,H-,1,2,1,0,1000,250.0,2,D25AS,41,train
881.0849189758301,5,2,0,1,4,3,H-,0,3,5,0,1000,250.0,4,D25AS,42,train
609.044075012207,5,2,0,1,4,3,H-,1,5,0,0,1000,250.0,5,D25AS,43,train
641.089916229248,5,2,0,1,4,3,H-,1,0,2,0,1000,250.0,0,D25AS,44,train
785.0799560546875,5,2,0,1,4,3,H-,1,1,3,0,1000,250.0,1,D25AS,45,train
625.0591278076172,5,2,0,1,4,3,H-,1,3,5,0,1000,250.0,3,D25AS,46,train
705.0650119781494,5,2,0,1,4,3,H-,1,2,1,0,1000,250.0,2,D25AS,47,train
625.0910758972168,5,2,0,1,4,3,H-,1,2,1,0,1000,250.0,2,D25AS,48,train
737.0870113372803,5,2,0,1,4,3,H-,1,0,2,0,1000,250.0,0,D25AS,49,train
688.9910697937012,5,2,0,1,4,3,H-,1,3,5,0,1000,250.0,3,D25AS,50,train
625.0040531158447,5,2,0,1,4,3,H-,1,0,2,0,1000,250.0,0,D25AS,51,train
1073.091983795166,5,2,0,1,4,3,H-,1,3,5,0,1000,250.0,3,D25AS,52,train
672.968864440918,5,2,0,1,4,3,H-,1,5,0,0,1000,250.0,5,D25AS,53,train
705.003023147583,5,2,0,1,4,3,H-,1,1,3,0,1000,250.0,1,D25AS,54,train
913.1729602813721,5,2,0,1,4,3,H-,1,0,2,0,1000,250.0,0,D25AS,55,train
785.1200103759766,5,2,0,1,4,3,H-,1,1,3,0,1000,250.0,1,D25AS,56,train
673.1541156768799,5,2,0,1,4,3,H-,1,3,5,0,1000,250.0,3,D25AS,57,train
529.033899307251,5,2,0,1,4,3,H-,1,0,2,0,1000,250.0,0,D25AS,58,train
1217.0660495758057,5,2,0,1,4,3,H-,1,4,4,0,1000,250.0,4,D25AS,59,train
673.2139587402344,5,2,0,1,4,3,H-,1,3,5,0,1000,250.0,3,D25AS,60,train
497.04718589782715,5,2,0,1,4,3,H-,1,0,2,0,1000,250.0,0,D25AS,61,train
449.09191131591797,5,2,0,1,4,3,H-,1,5,0,0,1000,250.0,5,D25AS,62,train
801.102876663208,5,2,0,1,4,3,H-,1,5,0,0,1000,250.0,5,D25AS,63,train
577.0399570465088,5,2,0,1,4,3,H-,1,5,0,0,1000,250.0,5,D25AS,64,train
513.0889415740967,5,2,0,1,4,3,H-,1,5,0,0,1000,250.0,5,D25AS,65,train
497.0259666442871,5,2,0,1,4,3,H-,1,0,2,0,1000,250.0,0,D25AS,66,train
721.1418151855469,5,2,0,1,4,3,H-,1,1,3,0,1000,250.0,1,D25AS,67,train
657.1071147918701,5,2,0,1,4,3,H-,1,1,3,0,1000,250.0,1,D25AS,68,train
576.923131942749,5,2,0,1,4,3,H-,1,0,2,0,1000,250.0,0,D25AS,69,train
897.0351219177246,5,2,0,1,4,3,H-,1,5,0,0,1000,250.0,5,D25AS,70,train
609.1768741607666,5,2,0,1,4,3,H-,1,1,3,0,1000,250.0,1,D25AS,71,train
993.2379722595215,5,2,0,1,4,3,H-,1,4,4,0,1000,250.0,4,D25AS,72,train
721.0299968719482,5,2,0,1,4,3,H-,1,2,1,0,1000,250.0,2,D25AS,73,train
912.9650592803955,5,2,0,1,4,3,H-,1,4,4,0,1000,250.0,4,D25AS,74,train
849.0800857543945,5,2,0,1,4,3,H-,1,3,5,0,1000,250.0,3,D25AS,75,train
657.1040153503418,5,2,0,1,4,3,H-,1,5,0,0,1000,250.0,5,D25AS,76,train
961.216926574707,5,2,0,1,4,3,H-,1,3,5,0,1000,250.0,3,D25AS,77,train
721.031904220581,5,2,0,1,4,3,H-,1,3,5,0,1000,250.0,3,D25AS,78,train
769.0269947052002,5,2,0,1,4,3,H-,1,2,1,0,1000,250.0,2,D25AS,79,train
545.0799465179443,5,2,0,1,4,3,H-,1,0,2,0,1000,250.0,0,D25AS,80,train
433.03394317626953,5,2,0,1,4,3,H-,1,0,2,0,1000,250.0,0,D25AS,81,train
785.1459980010986,5,2,0,1,4,3,H-,1,1,3,0,1000,250.0,1,D25AS,82,train
481.01305961608887,5,2,0,1,4,3,H-,1,0,2,0,1000,250.0,0,D25AS,83,train
625.1177787780762,5,2,0,1,4,3,H-,0,4,4,0,1000,250.0,5,D25AS,84,train
1057.0099353790283,5,2,0,1,4,3,H-,1,1,3,0,1000,250.0,1,D25AS,85,train
737.5669479370117,5,2,0,1,4,3,H-,1,0,2,0,1000,250.0,0,D25AS,86,train
657.092809677124,5,2,0,1,4,3,H-,1,3,5,0,1000,250.0,3,D25AS,87,train
657.106876373291,5,2,0,1,4,3,H-,1,5,0,0,1000,250.0,5,D25AS,88,train
640.9170627593994,5,2,0,1,4,3,H-,1,0,2,0,1000,250.0,0,D25AS,89,train
705.0518989562988,5,2,0,1,4,3,H-,1,4,4,0,1000,250.0,4,D25AS,90,train
609.0919971466064,5,2,0,1,4,3,H-,1,5,0,0,1000,250.0,5,D25AS,91,train
688.9150142669678,5,2,0,1,4,3,H-,1,1,3,0,1000,250.0,1,D25AS,92,train
625.2288818359375,5,2,0,1,4,3,H-,1,0,2,0,1000,250.0,0,D25AS,93,train
448.97007942199707,5,2,0,1,4,3,H-,1,0,2,0,1000,250.0,0,D25AS,94,train
961.0710144042969,5,2,0,1,4,3,H-,1,2,1,0,1000,250.0,2,D25AS,95,train
609.0409755706787,5,2,0,1,4,3,H-,1,1,3,0,1000,250.0,1,D25AS,96,train
513.0360126495361,5,2,0,1,4,3,H-,1,2,1,0,1000,250.0,2,D25AS,97,train
625.0848770141602,5,2,0,1,4,3,H-,1,5,0,0,1000,250.0,5,D25AS,98,train
545.086145401001,5,2,0,1,4,3,H-,1,5,0,0,1000,250.0,5,D25AS,99,train
561.176061630249,5,2,0,1,4,3,H-,1,2,1,0,1000,250.0,2,D25AS,100,train
1137.1409893035889,5,2,0,1,4,3,H-,1,4,4,0,1000,250.0,4,D25AS,101,train
592.9970741271973,5,2,0,1,4,3,H-,1,0,2,0,1000,250.0,0,D25AS,102,train
1104.9511432647705,5,2,0,1,4,3,H-,1,3,5,0,1000,250.0,3,D25AS,103,train
1121.1349964141846,5,2,0,1,4,3,H-,1,1,3,0,1000,250.0,1,D25AS,104,train
769.0751552581787,5,2,0,1,4,3,H-,1,1,3,0,1000,250.0,1,D25AS,105,train
689.0349388122559,5,2,0,1,4,3,H-,0,2,1,0,1000,250.0,0,D25AS,106,train
801.1939525604248,5,2,0,1,4,3,H-,1,1,3,0,1000,250.0,1,D25AS,107,train
896.8501091003418,5,2,0,1,4,3,H-,1,3,5,0,1000,250.0,3,D25AS,108,train
560.9769821166992,5,2,0,1,4,3,H-,1,3,5,0,1000,250.0,3,D25AS,109,train
608.9611053466797,5,2,0,1,4,3,H-,1,5,0,0,1000,250.0,5,D25AS,110,train
545.1958179473877,5,2,0,1,4,3,H-,1,0,2,0,1000,250.0,0,D25AS,111,train
449.08690452575684,5,2,0,1,4,3,H-,1,5,0,0,1000,250.0,5,D25AS,112,train
801.0461330413818,5,2,0,1,4,3,H-,1,1,3,0,1000,250.0,1,D25AS,113,train
657.0661067962646,5,2,0,1,4,3,H-,1,0,2,0,1000,250.0,0,D25AS,114,train
624.9978542327881,5,2,0,1,4,3,H-,1,5,0,0,1000,250.0,5,D25AS,115,train
913.0880832672119,5,2,0,1,4,3,H-,1,4,4,0,1000,250.0,4,D25AS,116,train
593.0328369140625,5,2,0,1,4,3,H-,1,5,0,0,1000,250.0,5,D25AS,117,train
673.0999946594238,5,2,0,1,4,3,H-,1,1,3,0,1000,250.0,1,D25AS,118,train
1729.0451526641846,5,2,0,1,4,3,H-,1,1,3,0,1000,250.0,1,D25AS,119,train
576.9929885864258,5,2,0,1,4,3,H-,1,0,2,0,1000,250.0,0,D25AS,120,train
912.8661155700684,5,2,0,1,4,3,H-,1,0,2,0,1000,250.0,0,D25AS,121,train
1680.8788776397705,5,2,0,1,4,3,H-,1,2,1,0,1000,250.0,2,D25AS,122,train
609.0049743652344,5,2,0,1,4,3,H-,1,1,3,0,1000,250.0,1,D25AS,123,train
497.0118999481201,5,2,0,1,4,3,H-,1,1,3,0,1000,250.0,1,D25AS,124,train
592.9999351501465,5,2,0,1,4,3,H-,1,0,2,0,1000,250.0,0,D25AS,125,train
833.0700397491455,5,2,0,1,4,3,H-,1,0,2,0,1000,250.0,0,D25AS,126,train
913.1200313568115,5,2,0,1,4,3,H-,0,3,5,0,1000,250.0,4,D25AS,127,train
897.1538543701172,5,2,0,1,4,3,H-,1,3,5,0,1000,250.0,3,D25AS,128,train
769.0839767456055,5,2,0,1,4,3,H-,1,4,4,0,1000,250.0,4,D25AS,129,train
641.099214553833,5,2,0,1,4,3,H-,1,0,2,0,1000,250.0,0,D25AS,130,train
1616.9819831848145,5,2,0,1,4,3,H-,1,3,5,0,1000,250.0,3,D25AS,131,train
737.0219230651855,5,2,0,1,4,3,H-,1,1,3,0,1000,250.0,1,D25AS,132,train
625.0529289245605,5,2,0,1,4,3,H-,1,4,4,0,1000,250.0,4,D25AS,133,train
865.0181293487549,5,2,0,1,4,3,H-,1,3,5,0,1000,250.0,3,D25AS,134,train
561.1848831176758,5,2,0,1,4,3,H-,1,0,2,0,1000,250.0,0,D25AS,135,train
849.1029739379883,5,2,0,1,4,3,H-,1,2,1,0,1000,250.0,2,D25AS,136,train
672.9979515075684,5,2,0,1,4,3,H-,1,5,0,0,1000,250.0,5,D25AS,137,train
833.1451416015625,5,2,0,1,4,3,H-,1,1,3,0,1000,250.0,1,D25AS,138,train
913.1119251251221,5,2,0,1,4,3,H-,1,4,4,0,1000,250.0,4,D25AS,139,train
657.1390628814697,5,2,0,1,4,3,H-,1,2,1,0,1000,250.0,2,D25AS,140,train
593.0159091949463,5,2,0,1,4,3,H-,1,5,0,0,1000,250.0,5,D25AS,141,train
657.0730209350586,5,2,0,1,4,3,H-,1,5,0,0,1000,250.0,5,D25AS,142,train
801.023006439209,5,2,0,1,4,3,H-,1,2,1,0,1000,250.0,2,D25AS,143,train
865.1390075683594,5,2,0,1,4,3,H-,1,4,4,0,1000,250.0,4,D25AS,144,train
1041.1319732666016,5,2,0,1,4,3,H-,1,3,5,0,1000,250.0,3,D25AS,145,train
865.1988506317139,5,2,0,1,4,3,H-,1,5,0,0,1000,250.0,5,D25AS,146,train
481.18090629577637,5,2,0,1,4,3,H-,1,5,0,0,1000,250.0,5,D25AS,147,train
721.1041450500488,5,2,0,1,4,3,H-,1,0,2,0,1000,250.0,0,D25AS,148,train
801.0871410369873,5,2,0,1,4,3,H-,1,2,1,0,1000,250.0,2,D25AS,149,train
624.8600482940674,5,2,0,1,4,3,H-,1,2,1,0,1000,250.0,2,D25AS,150,train
641.0379409790039,5,2,0,1,4,3,H-,1,0,2,0,1000,250.0,0,D25AS,151,train
961.0669612884521,5,2,0,1,4,3,H-,1,5,0,0,1000,250.0,5,D25AS,152,train
561.2049102783203,5,2,0,1,4,3,H-,1,4,4,0,1000,250.0,4,D25AS,153,train
385.01501083374023,5,2,0,1,4,3,H-,1,3,5,0,1000,250.0,3,D25AS,154,train
593.1961536407471,5,2,0,1,4,3,H-,1,2,1,0,1000,250.0,2,D25AS,155,train
657.0570468902588,5,2,0,1,4,3,H-,1,5,0,0,1000,250.0,5,D25AS,156,train
576.94411277771,5,2,0,1,4,3,H-,1,2,1,0,1000,250.0,2,D25AS,157,train
609.1620922088623,5,2,0,1,4,3,H-,1,4,4,0,1000,250.0,4,D25AS,158,train
657.0439338684082,5,2,0,1,4,3,H-,1,4,4,0,1000,250.0,4,D25AS,159,train
641.0138607025146,5,2,0,1,4,3,H-,1,2,1,0,1000,250.0,2,D25AS,160,train
513.0598545074463,5,2,0,1,4,3,H-,1,0,2,0,1000,250.0,0,D25AS,161,train
480.9989929199219,5,2,0,1,4,3,H-,1,0,2,0,1000,250.0,0,D25AS,162,train
577.0220756530762,5,2,0,1,4,3,H-,1,3,5,0,1000,250.0,3,D25AS,163,train
561.1870288848877,5,2,0,1,4,3,H-,1,5,0,0,1000,250.0,5,D25AS,164,train
545.0859069824219,5,2,0,1,4,3,H-,1,5,0,0,1000,250.0,5,D25AS,165,train
609.0469360351562,5,2,0,1,4,3,H-,1,3,5,0,1000,250.0,3,D25AS,166,train
577.1770477294922,5,2,0,1,4,3,H-,1,1,3,0,1000,250.0,1,D25AS,167,train
657.1521759033203,5,2,0,1,4,3,H-,1,4,4,0,1000,250.0,4,D25AS,168,train
465.17205238342285,5,2,0,1,4,3,H-,1,3,5,0,1000,250.0,3,D25AS,169,train
513.0648612976074,5,2,0,1,4,3,H-,1,3,5,0,1000,250.0,3,D25AS,170,train
433.0868721008301,5,2,0,1,4,3,H-,1,3,5,0,1000,250.0,3,D25AS,171,train
609.0271472930908,5,2,0,1,4,3,H-,1,2,1,0,1000,250.0,2,D25AS,172,train
625.068187713623,5,2,0,1,4,3,H-,1,5,0,0,1000,250.0,5,D25AS,173,train
497.1740245819092,5,2,0,1,4,3,H-,1,0,2,0,1000,250.0,0,D25AS,174,train
689.0299320220947,5,2,0,1,4,3,H-,1,1,3,0,1000,250.0,1,D25AS,175,train
481.00805282592773,5,2,0,1,4,3,H-,1,2,1,0,1000,250.0,2,D25AS,176,train
497.0250129699707,5,2,0,1,4,3,H-,1,5,0,0,1000,250.0,5,D25AS,177,train
1057.2550296783447,5,2,0,1,4,3,H-,1,1,3,0,1000,250.0,1,D25AS,178,train
849.1108417510986,5,2,0,1,4,3,H-,1,1,3,0,1000,250.0,1,D25AS,179,train
513.0970478057861,5,2,0,1,4,3,H-,1,2,1,0,1000,250.0,2,D25AS,180,train
641.218900680542,5,2,0,1,4,3,H-,1,1,3,0,1000,250.0,1,D25AS,181,train
416.823148727417,5,2,0,1,4,3,H-,1,1,3,0,1000,250.0,1,D25AS,182,train
449.1701126098633,5,2,0,1,4,3,H-,1,1,3,0,1000,250.0,1,D25AS,183,train
561.1779689788818,5,2,0,1,4,3,H-,1,2,1,0,1000,250.0,2,D25AS,184,train
497.18499183654785,5,2,0,1,4,3,H-,1,2,1,0,1000,250.0,2,D25AS,185,train
609.1880798339844,5,2,0,1,4,3,H-,0,1,3,0,1000,250.0,3,D25AS,186,train
561.1820220947266,5,2,0,1,4,3,H-,1,2,1,0,1000,250.0,2,D25AS,187,train
513.2050514221191,5,2,0,1,4,3,H-,1,1,3,0,1000,250.0,1,D25AS,188,train
593.1549072265625,5,2,0,1,4,3,H-,1,4,4,0,1000,250.0,4,D25AS,189,train
545.0050830841064,5,2,0,1,4,3,H-,1,2,1,0,1000,250.0,2,D25AS,190,train
529.0799140930176,5,2,0,1,4,3,H-,1,0,2,0,1000,250.0,0,D25AS,191,train
433.05206298828125,5,2,0,1,4,3,H-,1,0,2,0,1000,250.0,0,D25AS,192,train
577.1200656890869,5,2,0,1,4,3,H-,1,4,4,0,1000,250.0,4,D25AS,193,train
737.0898723602295,5,2,0,1,4,3,H-,1,3,5,0,1000,250.0,3,D25AS,194,train
625.0741481781006,5,2,0,1,4,3,H-,1,1,3,0,1000,250.0,1,D25AS,195,train
513.0219459533691,5,2,0,1,4,3,H-,1,2,1,0,1000,250.0,2,D25AS,196,train
497.0839023590088,5,2,0,1,4,3,H-,1,1,3,0,1000,250.0,1,D25AS,197,train
432.99388885498047,5,2,0,1,4,3,H-,1,1,3,0,1000,250.0,1,D25AS,198,train
448.9469528198242,5,2,0,1,4,3,H-,1,1,3,0,1000,250.0,1,D25AS,199,train
561.0470771789551,5,2,0,1,4,3,H-,1,4,4,0,1000,250.0,4,D25AS,200,train
577.1200656890869,5,2,0,1,4,3,H-,1,3,5,0,1000,250.0,3,D25AS,201,train
545.1309680938721,5,2,0,1,4,3,H-,1,4,4,0,1000,250.0,4,D25AS,202,train
609.0600490570068,5,2,0,1,4,3,H-,1,1,3,0,1000,250.0,1,D25AS,203,train
561.0589981079102,5,2,0,1,4,3,H-,1,4,4,0,1000,250.0,4,D25AS,204,train
577.0208835601807,5,2,0,1,4,3,H-,1,0,2,0,1000,250.0,0,D25AS,205,train
529.0970802307129,5,2,0,1,4,3,H-,1,4,4,0,1000,250.0,4,D25AS,206,train
432.999849319458,5,2,0,1,4,3,H-,1,0,2,0,1000,250.0,0,D25AS,207,train
609.21311378479,5,2,0,1,4,3,H-,1,4,4,0,1000,250.0,4,D25AS,208,train
881.0508251190186,5,2,0,1,4,3,H-,1,1,3,0,1000,250.0,1,D25AS,209,train
545.0351238250732,5,2,0,1,4,3,H-,1,0,2,0,1000,250.0,0,D25AS,210,train
529.0830135345459,5,2,0,1,4,3,H-,1,1,3,0,1000,250.0,1,D25AS,211,train
464.89500999450684,5,2,0,1,4,3,H-,1,0,2,0,1000,250.0,0,D25AS,212,train
577.0659446716309,5,2,0,1,4,3,H-,1,2,1,0,1000,250.0,2,D25AS,213,train
561.0752105712891,5,2,0,1,4,3,H-,1,0,2,0,1000,250.0,0,D25AS,214,train
561.1069202423096,5,2,0,1,4,3,H-,1,3,5,0,1000,250.0,3,D25AS,215,train
529.0939807891846,5,2,0,1,4,3,H-,1,2,1,0,1000,250.0,2,D25AS,216,train
497.0719814300537,5,2,0,1,4,3,H-,1,3,5,0,1000,250.0,3,D25AS,217,train
545.0689792633057,5,2,0,1,4,3,H-,1,4,4,0,1000,250.0,4,D25AS,218,train
545.0420379638672,5,2,0,1,4,3,H-,0,0,2,0,1000,250.0,2,D25AS,219,train
608.7360382080078,5,2,0,1,4,3,H-,1,5,0,0,1000,250.0,5,D25AS,220,train
512.6910209655762,5,2,0,1,4,3,H-,1,3,5,0,1000,250.0,3,D25AS,221,train
528.6381244659424,5,2,0,1,4,3,H-,1,4,4,0,1000,250.0,4,D25AS,222,train
640.6009197235107,5,2,0,1,4,3,H-,1,5,0,0,1000,250.0,5,D25AS,223,train
560.7471466064453,5,2,0,1,4,3,H-,1,4,4,0,1000,250.0,4,D25AS,224,train
544.5950031280518,5,2,0,1,4,3,H-,1,0,2,0,1000,250.0,0,D25AS,225,train
608.6180210113525,5,2,0,1,4,3,H-,1,0,2,0,1000,250.0,0,D25AS,226,train
528.5649299621582,5,2,0,1,4,3,H-,1,4,4,0,1000,250.0,4,D25AS,227,train
496.6459274291992,5,2,0,1,4,3,H-,1,3,5,0,1000,250.0,3,D25AS,228,train
528.6319255828857,5,2,0,1,4,3,H-,1,2,1,0,1000,250.0,2,D25AS,229,train
400.62808990478516,5,2,0,1,4,3,H-,1,2,1,0,1000,250.0,2,D25AS,230,train
576.5459537506104,5,2,0,1,4,3,H-,1,5,0,0,1000,250.0,5,D25AS,231,train
512.678861618042,5,2,0,1,4,3,H-,1,3,5,0,1000,250.0,3,D25AS,232,train
608.5679531097412,5,2,0,1,4,3,H-,1,5,0,0,1000,250.0,5,D25AS,233,train
528.6791324615479,5,2,0,1,4,3,H-,1,4,4,0,1000,250.0,4,D25AS,234,train
496.72818183898926,5,2,0,1,4,3,H-,1,3,5,0,1000,250.0,3,D25AS,235,train
464.6930694580078,5,2,0,1,4,3,H-,1,3,5,0,1000,250.0,3,D25AS,236,train
592.6401615142822,5,2,0,1,4,3,H-,1,5,0,0,1000,250.0,5,D25AS,237,train
592.7720069885254,5,2,0,1,4,3,H-,1,5,0,0,1000,250.0,5,D25AS,238,train
880.6288242340088,5,2,0,1,4,3,H-,1,0,2,0,1000,250.0,0,D25AS,239,train
544.5311069488525,5,2,0,1,4,3,H-,0,2,1,0,1000,250.0,0,D25AS,240,train
689.0151500701904,5,2,0,1,4,3,H-,1,1,3,0,1000,250.0,1,D25AS,241,train
592.7469730377197,5,2,0,1,4,3,H-,1,5,0,0,1000,250.0,5,D25AS,242,train
496.66309356689453,5,2,0,1,4,3,H-,1,4,4,0,1000,250.0,4,D25AS,243,train
560.6420040130615,5,2,0,1,4,3,H-,1,0,2,0,1000,250.0,0,D25AS,244,train
576.7230987548828,5,2,0,1,4,3,H-,1,1,3,0,1000,250.0,1,D25AS,245,train
432.74402618408203,5,2,0,1,4,3,H-,1,1,3,0,1000,250.0,1,D25AS,246,train
512.470006942749,5,2,0,1,4,3,H-,1,2,1,0,1000,250.0,2,D25AS,247,train
496.7329502105713,5,2,0,1,4,3,H-,1,2,1,0,1000,250.0,2,D25AS,248,train
512.627124786377,5,2,0,1,4,3,H-,1,3,5,0,1000,250.0,3,D25AS,249,train
1328.5369873046875,1,4,0,2,3,5,H-,1,3,4,0,1000,250.0,3,D25AS,250,test
2128.7841796875,1,4,0,2,3,5,H-,1,4,1,0,1000,250.0,4,D25AS,251,test
545.0170040130615,1,4,0,2,3,5,H-,1,4,1,0,1000,250.0,4,D25AS,252,test
1200.8531093597412,1,4,0,2,3,5,H-,1,0,2,0,1000,250.0,0,D25AS,253,test
1392.6730155944824,1,4,0,2,3,5,H-,1,1,0,0,1000,250.0,1,D25AS,254,test
1024.6789455413818,1,4,0,2,3,5,H-,1,2,3,0,1000,250.0,2,D25AS,255,test
1040.7960414886475,1,4,0,2,3,5,H-,1,5,5,0,1000,250.0,5,D25AS,256,test
1360.6321811676025,1,4,0,2,3,5,H-,1,1,0,0,1000,250.0,1,D25AS,257,test
784.5828533172607,1,4,0,2,3,5,H-,1,0,2,0,1000,250.0,0,D25AS,258,test
896.5878486633301,1,4,0,2,3,5,H-,1,5,5,0,1000,250.0,5,D25AS,259,test
592.6389694213867,1,4,0,2,3,5,H-,1,5,5,0,1000,250.0,5,D25AS,260,test
912.7421379089355,1,4,0,2,3,5,H-,1,4,1,0,1000,250.0,4,D25AS,261,test
480.7860851287842,1,4,0,2,3,5,H-,1,0,2,0,1000,250.0,0,D25AS,262,test
416.6550636291504,1,4,0,2,3,5,H-,1,4,1,0,1000,250.0,4,D25AS,263,test
1296.7140674591064,1,4,0,2,3,5,H-,1,5,5,0,1000,250.0,5,D25AS,264,test
992.6760196685791,1,4,0,2,3,5,H-,1,3,4,0,1000,250.0,3,D25AS,265,test
624.8190402984619,1,4,0,2,3,5,H-,1,3,4,0,1000,250.0,3,D25AS,266,test
656.6200256347656,1,4,0,2,3,5,H-,1,5,5,0,1000,250.0,5,D25AS,267,test
1120.9239959716797,1,4,0,2,3,5,H-,1,4,1,0,1000,250.0,4,D25AS,268,test
576.7209529876709,1,4,0,2,3,5,H-,1,5,5,0,1000,250.0,5,D25AS,269,test
592.573881149292,1,4,0,2,3,5,H-,0,3,4,0,1000,250.0,4,D25AS,270,test
704.7791481018066,1,4,0,2,3,5,H-,1,2,3,0,1000,250.0,2,D25AS,271,test
1040.8129692077637,1,4,0,2,3,5,H-,1,4,1,0,1000,250.0,4,D25AS,272,test
672.7499961853027,1,4,0,2,3,5,H-,1,2,3,0,1000,250.0,2,D25AS,273,test
1008.7218284606934,1,4,0,2,3,5,H-,1,4,1,0,1000,250.0,4,D25AS,274,test
560.762882232666,1,4,0,2,3,5,H-,1,0,2,0,1000,250.0,0,D25AS,275,test
848.6819267272949,1,4,0,2,3,5,H-,1,2,3,0,1000,250.0,2,D25AS,276,test
704.8108577728271,1,4,0,2,3,5,H-,0,1,0,0,1000,250.0,5,D25AS,277,test
1008.7800025939941,1,4,0,2,3,5,H-,1,5,5,0,1000,250.0,5,D25AS,278,test
704.7669887542725,1,4,0,2,3,5,H-,0,3,4,0,1000,250.0,4,D25AS,279,test
944.6771144866943,1,4,0,2,3,5,H-,1,3,4,0,1000,250.0,3,D25AS,280,test
832.7889442443848,1,4,0,2,3,5,H-,1,1,0,0,1000,250.0,1,D25AS,281,test
608.5901260375977,1,4,0,2,3,5,H-,1,0,2,0,1000,250.0,0,D25AS,282,test
672.7888584136963,1,4,0,2,3,5,H-,1,5,5,0,1000,250.0,5,D25AS,283,test
1024.5568752288818,1,4,0,2,3,5,H-,1,2,3,0,1000,250.0,2,D25AS,284,test
752.6919841766357,1,4,0,2,3,5,H-,1,3,4,0,1000,250.0,3,D25AS,285,test
1216.6979312896729,1,4,0,2,3,5,H-,1,4,1,0,1000,250.0,4,D25AS,286,test
1120.818853378296,1,4,0,2,3,5,H-,1,5,5,0,1000,250.0,5,D25AS,287,test
1248.7218379974365,1,4,0,2,3,5,H-,1,1,0,0,1000,250.0,1,D25AS,288,test
640.7680511474609,1,4,0,2,3,5,H-,1,2,3,0,1000,250.0,2,D25AS,289,test
576.6918659210205,1,4,0,2,3,5,H-,1,0,2,0,1000,250.0,0,D25AS,290,test
1056.750774383545,1,4,0,2,3,5,H-,1,1,0,0,1000,250.0,1,D25AS,291,test
624.7448921203613,1,4,0,2,3,5,H-,1,2,3,0,1000,250.0,2,D25AS,292,test
624.5801448822021,1,4,0,2,3,5,H-,0,5,5,0,1000,250.0,1,D25AS,293,test
832.6971530914307,1,4,0,2,3,5,H-,1,4,1,0,1000,250.0,4,D25AS,294,test
656.7518711090088,1,4,0,2,3,5,H-,1,3,4,0,1000,250.0,3,D25AS,295,test
976.6931533813477,1,4,0,2,3,5,H-,1,2,3,0,1000,250.0,2,D25AS,296,test
848.6418724060059,1,4,0,2,3,5,H-,1,3,4,0,1000,250.0,3,D25AS,297,test
432.57594108581543,1,4,0,2,3,5,H-,1,3,4,0,1000,250.0,3,D25AS,298,test
576.7590999603271,1,4,0,2,3,5,H-,1,0,2,0,1000,250.0,0,D25AS,299,test
928.5848140716553,1,4,0,2,3,5,H-,1,5,5,0,1000,250.0,5,D25AS,300,test
832.819938659668,1,4,0,2,3,5,H-,1,4,1,0,1000,250.0,4,D25AS,301,test
896.730899810791,1,4,0,2,3,5,H-,1,2,3,0,1000,250.0,2,D25AS,302,test
912.7309322357178,1,4,0,2,3,5,H-,1,5,5,0,1000,250.0,5,D25AS,303,test
656.7440032958984,1,4,0,2,3,5,H-,1,3,4,0,1000,250.0,3,D25AS,304,test
864.7270202636719,1,4,0,2,3,5,H-,1,2,3,0,1000,250.0,2,D25AS,305,test
928.6739826202393,1,4,0,2,3,5,H-,1,4,1,0,1000,250.0,4,D25AS,306,test
1104.8860549926758,1,4,0,2,3,5,H-,1,4,1,0,1000,250.0,4,D25AS,307,test
864.6838665008545,1,4,0,2,3,5,H-,1,5,5,0,1000,250.0,5,D25AS,308,test
608.7310314178467,1,4,0,2,3,5,H-,1,3,4,0,1000,250.0,3,D25AS,309,test
944.674015045166,1,4,0,2,3,5,H-,1,5,5,0,1000,250.0,5,D25AS,310,test
368.2990074157715,1,4,0,2,3,5,H-,1,5,5,0,1000,250.0,5,D25AS,311,test
384.4778537750244,1,4,0,2,3,5,H-,1,5,5,0,1000,250.0,5,D25AS,312,test
672.6369857788086,1,4,0,2,3,5,H-,1,3,4,0,1000,250.0,3,D25AS,313,test
848.7040996551514,1,4,0,2,3,5,H-,1,5,5,0,1000,250.0,5,D25AS,314,test
625.0591278076172,1,4,0,2,3,5,H-,1,0,2,0,1000,250.0,0,D25AS,315,test
433.11500549316406,1,4,0,2,3,5,H-,1,0,2,0,1000,250.0,0,D25AS,316,test
800.886869430542,1,4,0,2,3,5,H-,1,2,3,0,1000,250.0,2,D25AS,317,test
528.8472175598145,1,4,0,2,3,5,H-,1,3,4,0,1000,250.0,3,D25AS,318,test
544.9159145355225,1,4,0,2,3,5,H-,1,4,1,0,1000,250.0,4,D25AS,319,test
704.9379348754883,1,4,0,2,3,5,H-,1,0,2,0,1000,250.0,0,D25AS,320,test
1088.9599323272705,1,4,0,2,3,5,H-,1,4,1,0,1000,250.0,4,D25AS,321,test
608.6559295654297,1,4,0,2,3,5,H-,1,5,5,0,1000,250.0,5,D25AS,322,test
704.6451568603516,1,4,0,2,3,5,H-,1,4,1,0,1000,250.0,4,D25AS,323,test
640.8729553222656,1,4,0,2,3,5,H-,1,5,5,0,1000,250.0,5,D25AS,324,test
1056.643009185791,1,4,0,2,3,5,H-,1,1,0,0,1000,250.0,1,D25AS,325,test
656.904935836792,1,4,0,2,3,5,H-,1,2,3,0,1000,250.0,2,D25AS,326,test
512.768030166626,1,4,0,2,3,5,H-,1,2,3,0,1000,250.0,2,D25AS,327,test
576.7350196838379,1,4,0,2,3,5,H-,1,3,4,0,1000,250.0,3,D25AS,328,test
544.5899963378906,1,4,0,2,3,5,H-,1,3,4,0,1000,250.0,3,D25AS,329,test
608.8161468505859,1,4,0,2,3,5,H-,1,2,3,0,1000,250.0,2,D25AS,330,test
528.7699699401855,1,4,0,2,3,5,H-,1,0,2,0,1000,250.0,0,D25AS,331,test
608.6831092834473,1,4,0,2,3,5,H-,1,3,4,0,1000,250.0,3,D25AS,332,test
816.7679309844971,1,4,0,2,3,5,H-,1,4,1,0,1000,250.0,4,D25AS,333,test
592.7011966705322,1,4,0,2,3,5,H-,1,3,4,0,1000,250.0,3,D25AS,334,test
672.9199886322021,1,4,0,2,3,5,H-,0,1,0,0,1000,250.0,5,D25AS,335,test
1312.9119873046875,1,4,0,2,3,5,H-,1,1,0,0,1000,250.0,1,D25AS,336,test
384.83691215515137,1,4,0,2,3,5,H-,1,1,0,0,1000,250.0,1,D25AS,337,test
1072.882890701294,1,4,0,2,3,5,H-,1,4,1,0,1000,250.0,4,D25AS,338,test
705.1429748535156,1,4,0,2,3,5,H-,1,1,0,0,1000,250.0,1,D25AS,339,test
592.9110050201416,1,4,0,2,3,5,H-,1,0,2,0,1000,250.0,0,D25AS,340,test
1009.0939998626709,1,4,0,2,3,5,H-,1,1,0,0,1000,250.0,1,D25AS,341,test
544.8451042175293,1,4,0,2,3,5,H-,1,5,5,0,1000,250.0,5,D25AS,342,test
576.8580436706543,1,4,0,2,3,5,H-,1,3,4,0,1000,250.0,3,D25AS,343,test
864.9771213531494,1,4,0,2,3,5,H-,1,5,5,0,1000,250.0,5,D25AS,344,test
560.6799125671387,1,4,0,2,3,5,H-,1,5,5,0,1000,250.0,5,D25AS,345,test
496.57201766967773,1,4,0,2,3,5,H-,1,4,1,0,1000,250.0,4,D25AS,346,test
640.6278610229492,1,4,0,2,3,5,H-,1,5,5,0,1000,250.0,5,D25AS,347,test
1344.693899154663,1,4,0,2,3,5,H-,1,2,3,0,1000,250.0,2,D25AS,348,test
640.610933303833,1,4,0,2,3,5,H-,1,5,5,0,1000,250.0,5,D25AS,349,test
752.7470588684082,1,4,0,2,3,5,H-,1,1,0,0,1000,250.0,1,D25AS,350,test
1056.6940307617188,1,4,0,2,3,5,H-,1,2,3,0,1000,250.0,2,D25AS,351,test
416.3830280303955,1,4,0,2,3,5,H-,1,2,3,0,1000,250.0,2,D25AS,352,test
672.792911529541,1,4,0,2,3,5,H-,0,1,0,0,1000,250.0,5,D25AS,353,test
672.6748943328857,1,4,0,2,3,5,H-,1,5,5,0,1000,250.0,5,D25AS,354,test
368.7150478363037,1,4,0,2,3,5,H-,1,1,0,0,1000,250.0,1,D25AS,355,test
640.7091617584229,1,4,0,2,3,5,H-,1,0,2,0,1000,250.0,0,D25AS,356,test
528.7032127380371,1,4,0,2,3,5,H-,1,0,2,0,1000,250.0,0,D25AS,357,test
672.6179122924805,1,4,0,2,3,5,H-,1,4,1,0,1000,250.0,4,D25AS,358,test
720.6881046295166,1,4,0,2,3,5,H-,1,1,0,0,1000,250.0,1,D25AS,359,test
928.7319183349609,1,4,0,2,3,5,H-,1,2,3,0,1000,250.0,2,D25AS,360,test
704.841136932373,1,4,0,2,3,5,H-,1,5,5,0,1000,250.0,5,D25AS,361,test
512.5870704650879,1,4,0,2,3,5,H-,1,5,5,0,1000,250.0,5,D25AS,362,test
640.671968460083,1,4,0,2,3,5,H-,1,4,1,0,1000,250.0,4,D25AS,363,test
560.5919361114502,1,4,0,2,3,5,H-,1,5,5,0,1000,250.0,5,D25AS,364,test
704.6468257904053,1,4,0,2,3,5,H-,1,0,2,0,1000,250.0,0,D25AS,365,test
480.665922164917,1,4,0,2,3,5,H-,1,0,2,0,1000,250.0,0,D25AS,366,test
720.7469940185547,1,4,0,2,3,5,H-,1,5,5,0,1000,250.0,5,D25AS,367,test
576.7500400543213,1,4,0,2,3,5,H-,1,3,4,0,1000,250.0,3,D25AS,368,test
544.640064239502,1,4,0,2,3,5,H-,1,3,4,0,1000,250.0,3,D25AS,369,test
656.6219329833984,1,4,0,2,3,5,H-,1,4,1,0,1000,250.0,4,D25AS,370,test
512.9258632659912,1,4,0,2,3,5,H-,1,3,4,0,1000,250.0,3,D25AS,371,test
816.5469169616699,1,4,0,2,3,5,H-,1,1,0,0,1000,250.0,1,D25AS,372,test
464.69593048095703,1,4,0,2,3,5,H-,1,2,3,0,1000,250.0,2,D25AS,373,test
432.61098861694336,1,4,0,2,3,5,H-,1,2,3,0,1000,250.0,2,D25AS,374,test
560.6920719146729,1,4,0,2,3,5,H-,1,3,4,0,1000,250.0,3,D25AS,375,test
672.6570129394531,1,4,0,2,3,5,H-,1,1,0,0,1000,250.0,1,D25AS,376,test
704.5729160308838,1,4,0,2,3,5,H-,1,4,1,0,1000,250.0,4,D25AS,377,test
496.722936630249,1,4,0,2,3,5,H-,1,0,2,0,1000,250.0,0,D25AS,378,test
592.5707817077637,1,4,0,2,3,5,H-,1,2,3,0,1000,250.0,2,D25AS,379,test
384.6909999847412,1,4,0,2,3,5,H-,1,2,3,0,1000,250.0,2,D25AS,380,test
656.7530632019043,1,4,0,2,3,5,H-,1,5,5,0,1000,250.0,5,D25AS,381,test
624.6778964996338,1,4,0,2,3,5,H-,1,2,3,0,1000,250.0,2,D25AS,382,test
592.5798416137695,1,4,0,2,3,5,H-,1,0,2,0,1000,250.0,0,D25AS,383,test
624.5639324188232,1,4,0,2,3,5,H-,1,3,4,0,1000,250.0,3,D25AS,384,test
671.7782020568848,1,4,0,2,3,5,H-,1,1,0,0,1000,250.0,1,D25AS,385,test
624.7310638427734,1,4,0,2,3,5,H-,1,5,5,0,1000,250.0,5,D25AS,386,test
816.7901039123535,1,4,0,2,3,5,H-,1,1,0,0,1000,250.0,1,D25AS,387,test
448.6351013183594,1,4,0,2,3,5,H-,1,1,0,0,1000,250.0,1,D25AS,388,test
1296.6818809509277,1,4,0,2,3,5,H-,1,2,3,0,1000,250.0,2,D25AS,389,test
608.5641384124756,1,4,0,2,3,5,H-,1,4,1,0,1000,250.0,4,D25AS,390,test
672.7519035339355,1,4,0,2,3,5,H-,1,1,0,0,1000,250.0,1,D25AS,391,test
512.1870040893555,1,4,0,2,3,5,H-,1,3,4,0,1000,250.0,3,D25AS,392,test
656.6147804260254,1,4,0,2,3,5,H-,1,1,0,0,1000,250.0,1,D25AS,393,test
560.6880187988281,1,4,0,2,3,5,H-,0,4,1,0,1000,250.0,0,D25AS,394,test
592.216968536377,1,4,0,2,3,5,H-,1,2,3,0,1000,250.0,2,D25AS,395,test
592.7450656890869,1,4,0,2,3,5,H-,1,5,5,0,1000,250.0,5,D25AS,396,test
768.6071395874023,1,4,0,2,3,5,H-,1,5,5,0,1000,250.0,5,D25AS,397,test
368.72291564941406,1,4,0,2,3,5,H-,1,1,0,0,1000,250.0,1,D25AS,398,test
592.6969051361084,1,4,0,2,3,5,H-,1,1,0,0,1000,250.0,1,D25AS,399,test
432.6128959655762,1,4,0,2,3,5,H-,1,1,0,0,1000,250.0,1,D25AS,400,test
1104.9299240112305,1,4,0,2,3,5,H-,1,2,3,0,1000,250.0,2,D25AS,401,test
352.5280952453613,1,4,0,2,3,5,H-,1,2,3,0,1000,250.0,2,D25AS,402,test
624.7670650482178,1,4,0,2,3,5,H-,1,4,1,0,1000,250.0,4,D25AS,403,test
608.8070869445801,1,4,0,2,3,5,H-,1,5,5,0,1000,250.0,5,D25AS,404,test
656.8379402160645,1,4,0,2,3,5,H-,1,2,3,0,1000,250.0,2,D25AS,405,test
688.3358955383301,1,4,0,2,3,5,H-,1,1,0,0,1000,250.0,1,D25AS,406,test
560.7330799102783,1,4,0,2,3,5,H-,1,0,2,0,1000,250.0,0,D25AS,407,test
544.9848175048828,1,4,0,2,3,5,H-,1,3,4,0,1000,250.0,3,D25AS,408,test
592.9090976715088,1,4,0,2,3,5,H-,1,2,3,0,1000,250.0,2,D25AS,409,test
528.7609100341797,1,4,0,2,3,5,H-,1,3,4,0,1000,250.0,3,D25AS,410,test
640.9971714019775,1,4,0,2,3,5,H-,1,4,1,0,1000,250.0,4,D25AS,411,test
560.9080791473389,1,4,0,2,3,5,H-,1,5,5,0,1000,250.0,5,D25AS,412,test
640.9029960632324,1,4,0,2,3,5,H-,1,2,3,0,1000,250.0,2,D25AS,413,test
640.5229568481445,1,4,0,2,3,5,H-,1,1,0,0,1000,250.0,1,D25AS,414,test
576.6699314117432,1,4,0,2,3,5,H-,1,0,2,0,1000,250.0,0,D25AS,415,test
544.6529388427734,1,4,0,2,3,5,H-,1,1,0,0,1000,250.0,1,D25AS,416,test
448.69303703308105,1,4,0,2,3,5,H-,1,2,3,0,1000,250.0,2,D25AS,417,test
544.7819232940674,1,4,0,2,3,5,H-,1,3,4,0,1000,250.0,3,D25AS,418,test
1280.6639671325684,1,4,0,2,3,5,H-,1,4,1,0,1000,250.0,4,D25AS,419,test
480.7701110839844,1,4,0,2,3,5,H-,1,4,1,0,1000,250.0,4,D25AS,420,test
448.7791061401367,1,4,0,2,3,5,H-,1,4,1,0,1000,250.0,4,D25AS,421,test
512.7859115600586,1,4,0,2,3,5,H-,1,3,4,0,1000,250.0,3,D25AS,422,test
592.566967010498,1,4,0,2,3,5,H-,1,2,3,0,1000,250.0,2,D25AS,423,test
656.6247940063477,1,4,0,2,3,5,H-,1,0,2,0,1000,250.0,0,D25AS,424,test
720.7779884338379,1,4,0,2,3,5,H-,1,2,3,0,1000,250.0,2,D25AS,425,test
592.5168991088867,1,4,0,2,3,5,H-,1,2,3,0,1000,250.0,2,D25AS,426,test
704.6599388122559,1,4,0,2,3,5,H-,1,0,2,0,1000,250.0,0,D25AS,427,test
512.6659870147705,1,4,0,2,3,5,H-,1,2,3,0,1000,250.0,2,D25AS,428,test
640.7649517059326,1,4,0,2,3,5,H-,1,0,2,0,1000,250.0,0,D25AS,429,test
496.6909885406494,1,4,0,2,3,5,H-,0,5,5,0,1000,250.0,2,D25AS,430,test
512.7270221710205,1,4,0,2,3,5,H-,1,2,3,0,1000,250.0,2,D25AS,431,test
400.56395530700684,1,4,0,2,3,5,H-,1,2,3,0,1000,250.0,2,D25AS,432,test
336.6549015045166,1,4,0,2,3,5,H-,1,2,3,0,1000,250.0,2,D25AS,433,test
576.6780376434326,1,4,0,2,3,5,H-,1,3,4,0,1000,250.0,3,D25AS,434,test
496.5238571166992,1,4,0,2,3,5,H-,1,5,5,0,1000,250.0,5,D25AS,435,test
544.654130935669,1,4,0,2,3,5,H-,1,4,1,0,1000,250.0,4,D25AS,436,test
464.75696563720703,1,4,0,2,3,5,H-,1,4,1,0,1000,250.0,4,D25AS,437,test
464.5509719848633,1,4,0,2,3,5,H-,1,2,3,0,1000,250.0,2,D25AS,438,test
512.6540660858154,1,4,0,2,3,5,H-,1,4,1,0,1000,250.0,4,D25AS,439,test
496.6909885406494,1,4,0,2,3,5,H-,1,3,4,0,1000,250.0,3,D25AS,440,test
672.8489398956299,1,4,0,2,3,5,H-,1,5,5,0,1000,250.0,5,D25AS,441,test
464.5500183105469,1,4,0,2,3,5,H-,1,5,5,0,1000,250.0,5,D25AS,442,test
496.56200408935547,1,4,0,2,3,5,H-,0,2,3,0,1000,250.0,3,D25AS,443,test
591.9520854949951,1,4,0,2,3,5,H-,1,0,2,0,1000,250.0,0,D25AS,444,test
1040.5688285827637,1,4,0,2,3,5,H-,1,1,0,0,1000,250.0,1,D25AS,445,test
576.7040252685547,1,4,0,2,3,5,H-,1,0,2,0,1000,250.0,0,D25AS,446,test
544.597864151001,1,4,0,2,3,5,H-,1,3,4,0,1000,250.0,3,D25AS,447,test
528.7990570068359,1,4,0,2,3,5,H-,1,5,5,0,1000,250.0,5,D25AS,448,test
576.8120288848877,1,4,0,2,3,5,H-,1,5,5,0,1000,250.0,5,D25AS,449,test
480.8001518249512,1,4,0,2,3,5,H-,1,2,3,0,1000,250.0,2,D25AS,450,test
512.5038623809814,1,4,0,2,3,5,H-,1,3,4,0,1000,250.0,3,D25AS,451,test
688.7588500976562,1,4,0,2,3,5,H-,1,4,1,0,1000,250.0,4,D25AS,452,test
688.6239051818848,1,4,0,2,3,5,H-,0,1,0,0,1000,250.0,2,D25AS,453,test
592.8049087524414,1,4,0,2,3,5,H-,1,2,3,0,1000,250.0,2,D25AS,454,test
384.40990447998047,1,4,0,2,3,5,H-,1,1,0,0,1000,250.0,1,D25AS,455,test
784.5799922943115,1,4,0,2,3,5,H-,1,5,5,0,1000,250.0,5,D25AS,456,test
464.71595764160156,1,4,0,2,3,5,H-,1,4,1,0,1000,250.0,4,D25AS,457,test
560.6279373168945,1,4,0,2,3,5,H-,0,1,0,0,1000,250.0,2,D25AS,458,test
816.7178630828857,1,4,0,2,3,5,H-,1,5,5,0,1000,250.0,5,D25AS,459,test
976.7730236053467,1,4,0,2,3,5,H-,1,1,0,0,1000,250.0,1,D25AS,460,test
896.8508243560791,1,4,0,2,3,5,H-,1,2,3,0,1000,250.0,2,D25AS,461,test
464.6949768066406,1,4,0,2,3,5,H-,1,3,4,0,1000,250.0,3,D25AS,462,test
720.6242084503174,1,4,0,2,3,5,H-,1,0,2,0,1000,250.0,0,D25AS,463,test
496.5949058532715,1,4,0,2,3,5,H-,1,4,1,0,1000,250.0,4,D25AS,464,test
512.584924697876,1,4,0,2,3,5,H-,1,2,3,0,1000,250.0,2,D25AS,465,test
560.6858730316162,1,4,0,2,3,5,H-,1,3,4,0,1000,250.0,3,D25AS,466,test
544.766902923584,1,4,0,2,3,5,H-,1,2,3,0,1000,250.0,2,D25AS,467,test
544.5971488952637,1,4,0,2,3,5,H-,1,3,4,0,1000,250.0,3,D25AS,468,test
496.6709613800049,1,4,0,2,3,5,H-,1,2,3,0,1000,250.0,2,D25AS,469,test
656.8331718444824,1,4,0,2,3,5,H-,1,1,0,0,1000,250.0,1,D25AS,470,test
912.7349853515625,1,4,0,2,3,5,H-,1,4,1,0,1000,250.0,4,D25AS,471,test
960.684061050415,1,4,0,2,3,5,H-,1,5,5,0,1000,250.0,5,D25AS,472,test
528.5050868988037,1,4,0,2,3,5,H-,1,3,4,0,1000,250.0,3,D25AS,473,test
688.7331008911133,1,4,0,2,3,5,H-,1,1,0,0,1000,250.0,1,D25AS,474,test
704.8330307006836,1,4,0,2,3,5,H-,1,1,0,0,1000,250.0,1,D25AS,475,test
368.635892868042,1,4,0,2,3,5,H-,1,1,0,0,1000,250.0,1,D25AS,476,test
544.6131229400635,1,4,0,2,3,5,H-,1,4,1,0,1000,250.0,4,D25AS,477,test
496.86288833618164,1,4,0,2,3,5,H-,1,2,3,0,1000,250.0,2,D25AS,478,test
720.7138538360596,1,4,0,2,3,5,H-,1,5,5,0,1000,250.0,5,D25AS,479,test
608.738899230957,1,4,0,2,3,5,H-,1,2,3,0,1000,250.0,2,D25AS,480,test
496.5078830718994,1,4,0,2,3,5,H-,1,3,4,0,1000,250.0,3,D25AS,481,test
576.6799449920654,1,4,0,2,3,5,H-,1,0,2,0,1000,250.0,0,D25AS,482,test
464.71190452575684,1,4,0,2,3,5,H-,1,4,1,0,1000,250.0,4,D25AS,483,test
400.6359577178955,1,4,0,2,3,5,H-,1,4,1,0,1000,250.0,4,D25AS,484,test
624.643087387085,1,4,0,2,3,5,H-,0,0,2,0,1000,250.0,2,D25AS,485,test
672.8169918060303,1,4,0,2,3,5,H-,1,2,3,0,1000,250.0,2,D25AS,486,test
592.5860404968262,1,4,0,2,3,5,H-,1,4,1,0,1000,250.0,4,D25AS,487,test
528.6779403686523,1,4,0,2,3,5,H-,1,4,1,0,1000,250.0,4,D25AS,488,test
448.6429691314697,1,4,0,2,3,5,H-,1,4,1,0,1000,250.0,4,D25AS,489,test
640.6669616699219,1,4,0,2,3,5,H-,1,1,0,0,1000,250.0,1,D25AS,490,test
704.5910358428955,1,4,0,2,3,5,H-,1,5,5,0,1000,250.0,5,D25AS,491,test
528.5441875457764,1,4,0,2,3,5,H-,1,0,2,0,1000,250.0,0,D25AS,492,test
720.7279205322266,1,4,0,2,3,5,H-,1,5,5,0,1000,250.0,5,D25AS,493,test
528.7299156188965,1,4,0,2,3,5,H-,1,5,5,0,1000,250.0,5,D25AS,494,test
784.4438552856445,1,4,0,2,3,5,H-,1,0,2,0,1000,250.0,0,D25AS,495,test
576.5199661254883,1,4,0,2,3,5,H-,1,1,0,0,1000,250.0,1,D25AS,496,test
752.7248859405518,1,4,0,2,3,5,H-,1,0,2,0,1000,250.0,0,D25AS,497,test
528.7399291992188,1,4,0,2,3,5,H-,1,5,5,0,1000,250.0,5,D25AS,498,test
656.6479206085205,1,4,0,2,3,5,H-,1,1,0,0,1000,250.0,1,D25AS,499,test
