RT,SRmap_0,SRmap_1,SRmap_2,SRmap_3,SRmap_4,SRmap_5,condition,correct,correct_response,curstim,ms-precue,ms-prestimblank,ntrials,response,subject,trial,type
2969.7000980377197,1,5,3,0,2,4,E+,1,5,1,400,600,250.0,5,c33aw,0,train
784.574031829834,1,5,3,0,2,4,E+,1,0,3,400,600,250.0,0,c33aw,1,train
571.1719989776611,1,5,3,0,2,4,E+,1,0,3,400,600,250.0,0,c33aw,2,train
2971.08793258667,1,5,3,0,2,4,E+,1,2,4,400,600,250.0,2,c33aw,3,train
1131.051778793335,1,5,3,0,2,4,E+,1,1,0,400,600,250.0,1,c33aw,4,train
1867.0909404754639,1,5,3,0,2,4,E+,1,4,5,400,600,250.0,4,c33aw,5,train
330.8689594268799,1,5,3,0,2,4,E+,1,0,3,400,600,250.0,0,c33aw,6,train
794.9140071868896,1,5,3,0,2,4,E+,1,3,2,400,600,250.0,3,c33aw,7,train
379.08101081848145,1,5,3,0,2,4,E+,1,1,0,400,600,250.0,1,c33aw,8,train
331.0110569000244,1,5,3,0,2,4,E+,1,2,4,400,600,250.0,2,c33aw,9,train
585.5028629302979,1,5,3,0,2,4,E+,1,2,4,400,600,250.0,2,c33aw,10,train
555.1350116729736,1,5,3,0,2,4,E+,1,1,0,400,600,250.0,1,c33aw,11,train
731.269121170044,1,5,3,0,2,4,E+,1,2,4,400,600,250.0,2,c33aw,12,train
475.30221939086914,1,5,3,0,2,4,E+,1,3,2,400,600,250.0,3,c33aw,13,train
283.2479476928711,1,5,3,0,2,4,E+,1,3,2,400,600,250.0,3,c33aw,14,train
219.17104721069336,1,5,3,0,2,4,E+,1,1,0,400,600,250.0,1,c33aw,15,train
410.17603874206543,1,5,3,0,2,4,E+,1,2,4,400,600,250.0,2,c33aw,16,train
363.13915252685547,1,5,3,0,2,4,E+,1,4,5,400,600,250.0,4,c33aw,17,train
731.2819957733154,1,5,3,0,2,4,E+,1,2,4,400,600,250.0,2,c33aw,18,train
170.89509963989258,1,5,3,0,2,4,E+,1,2,4,400,600,250.0,2,c33aw,19,train
171.2489128112793,1,5,3,0,2,4,E+,1,1,0,400,600,250.0,1,c33aw,20,train
312.730073928833,1,5,3,0,2,4,E+,1,4,5,400,600,250.0,4,c33aw,21,train
219.10595893859863,1,5,3,0,2,4,E+,1,0,3,400,600,250.0,0,c33aw,22,train
298.8569736480713,1,5,3,0,2,4,E+,1,2,4,400,600,250.0,2,c33aw,23,train
331.1188220977783,1,5,3,0,2,4,E+,1,3,2,400,600,250.0,3,c33aw,24,train
729.1018962860107,1,5,3,0,2,4,E+,1,2,4,400,600,250.0,2,c33aw,25,train
539.2909049987793,1,5,3,0,2,4,E+,1,4,5,400,600,250.0,4,c33aw,26,train
331.29096031188965,1,5,3,0,2,4,E+,1,5,1,400,600,250.0,5,c33aw,27,train
347.1550941467285,1,5,3,0,2,4,E+,1,2,4,400,600,250.0,2,c33aw,28,train
619.2281246185303,1,5,3,0,2,4,E+,1,5,1,400,600,250.0,5,c33aw,29,train
266.1318778991699,1,5,3,0,2,4,E+,1,4,5,400,600,250.0,4,c33aw,30,train
379.3351650238037,1,5,3,0,2,4,E+,1,1,0,400,600,250.0,1,c33aw,31,train
395.09105682373047,1,5,3,0,2,4,E+,0,3,2,400,600,250.0,4,c33aw,32,train
235.20398139953613,1,5,3,0,2,4,E+,1,0,3,400,600,250.0,0,c33aw,33,train
107.11812973022461,1,5,3,0,2,4,E+,1,1,0,400,600,250.0,1,c33aw,34,train
187.28303909301758,1,5,3,0,2,4,E+,1,5,1,400,600,250.0,5,c33aw,35,train
411.0851287841797,1,5,3,0,2,4,E+,1,3,2,400,600,250.0,3,c33aw,36,train
923.0401515960693,1,5,3,0,2,4,E+,1,3,2,400,600,250.0,3,c33aw,37,train
331.05993270874023,1,5,3,0,2,4,E+,1,5,1,400,600,250.0,5,c33aw,38,train
443.19701194763184,1,5,3,0,2,4,E+,1,2,4,400,600,250.0,2,c33aw,39,train
139.27197456359863,1,5,3,0,2,4,E+,1,0,3,400,600,250.0,0,c33aw,40,train
523.0669975280762,1,5,3,0,2,4,E+,1,0,3,400,600,250.0,0,c33aw,41,train
651.2448787689209,1,5,3,0,2,4,E+,1,3,2,400,600,250.0,3,c33aw,42,train
250.94914436340332,1,5,3,0,2,4,E+,1,3,2,400,600,250.0,3,c33aw,43,train
219.160795211792,1,5,3,0,2,4,E+,1,4,5,400,600,250.0,4,c33aw,44,train
331.057071685791,1,5,3,0,2,4,E+,1,1,0,400,600,250.0,1,c33aw,45,train
315.25588035583496,1,5,3,0,2,4,E+,0,4,5,400,600,250.0,3,c33aw,46,train
395.24078369140625,1,5,3,0,2,4,E+,1,5,1,400,600,250.0,5,c33aw,47,train
714.555025100708,1,5,3,0,2,4,E+,1,4,5,400,600,250.0,4,c33aw,48,train
859.2979907989502,1,5,3,0,2,4,E+,1,3,2,400,600,250.0,3,c33aw,49,train
379.1670799255371,1,5,3,0,2,4,E+,1,1,0,400,600,250.0,1,c33aw,50,train
235.6100082397461,1,5,3,0,2,4,E+,1,3,2,400,600,250.0,3,c33aw,51,train
379.26506996154785,1,5,3,0,2,4,E+,1,2,4,400,600,250.0,2,c33aw,52,train
619.6520328521729,1,5,3,0,2,4,E+,1,5,1,400,600,250.0,5,c33aw,53,train
377.57086753845215,1,5,3,0,2,4,E+,1,2,4,400,600,250.0,2,c33aw,54,train
43.13015937805176,1,5,3,0,2,4,E+,1,1,0,400,600,250.0,1,c33aw,55,train
235.245943069458,1,5,3,0,2,4,E+,1,1,0,400,600,250.0,1,c33aw,56,train
91.0789966583252,1,5,3,0,2,4,E+,1,5,1,400,600,250.0,5,c33aw,57,train
331.1178684234619,1,5,3,0,2,4,E+,1,5,1,400,600,250.0,5,c33aw,58,train
426.29384994506836,1,5,3,0,2,4,E+,1,1,0,400,600,250.0,1,c33aw,59,train
75.12497901916504,1,5,3,0,2,4,E+,1,2,4,400,600,250.0,2,c33aw,60,train
345.54100036621094,1,5,3,0,2,4,E+,1,5,1,400,600,250.0,5,c33aw,61,train
283.1439971923828,1,5,3,0,2,4,E+,1,0,3,400,600,250.0,0,c33aw,62,train
155.07793426513672,1,5,3,0,2,4,E+,1,3,2,400,600,250.0,3,c33aw,63,train
59.16309356689453,1,5,3,0,2,4,E+,1,0,3,400,600,250.0,0,c33aw,64,train
1048.6900806427002,1,5,3,0,2,4,E+,1,2,4,400,600,250.0,2,c33aw,65,train
170.90320587158203,1,5,3,0,2,4,E+,1,3,2,400,600,250.0,3,c33aw,66,train
42.09780693054199,1,5,3,0,2,4,E+,1,1,0,400,600,250.0,1,c33aw,67,train
59.165000915527344,1,5,3,0,2,4,E+,0,1,0,400,600,250.0,0,c33aw,68,train
91.07613563537598,1,5,3,0,2,4,E+,1,1,0,400,600,250.0,1,c33aw,69,train
187.06512451171875,1,5,3,0,2,4,E+,1,3,2,400,600,250.0,3,c33aw,70,train
107.18202590942383,1,5,3,0,2,4,E+,1,2,4,400,600,250.0,2,c33aw,71,train
91.06111526489258,1,5,3,0,2,4,E+,1,2,4,400,600,250.0,2,c33aw,72,train
187.11209297180176,1,5,3,0,2,4,E+,1,2,4,400,600,250.0,2,c33aw,73,train
0.12803077697753906,1,5,3,0,2,4,E+,1,3,2,400,600,250.0,3,c33aw,74,train
91.18390083312988,1,5,3,0,2,4,E+,1,4,5,400,600,250.0,4,c33aw,75,train
11.083126068115234,1,5,3,0,2,4,E+,1,3,2,400,600,250.0,3,c33aw,76,train
299.2570400238037,1,5,3,0,2,4,E+,1,0,3,400,600,250.0,0,c33aw,77,train
42.929887771606445,1,5,3,0,2,4,E+,1,0,3,400,600,250.0,0,c33aw,78,train
43.21002960205078,1,5,3,0,2,4,E+,1,2,4,400,600,250.0,2,c33aw,79,train
122.25484848022461,1,5,3,0,2,4,E+,1,3,2,400,600,250.0,3,c33aw,80,train
58.70819091796875,1,5,3,0,2,4,E+,1,2,4,400,600,250.0,2,c33aw,81,train
26.541948318481445,1,5,3,0,2,4,E+,1,1,0,400,600,250.0,1,c33aw,82,train
106.35018348693848,1,5,3,0,2,4,E+,1,5,1,400,600,250.0,5,c33aw,83,train
491.26696586608887,1,5,3,0,2,4,E+,1,3,2,400,600,250.0,3,c33aw,84,train
1402.1658897399902,1,5,3,0,2,4,E+,1,3,2,400,600,250.0,3,c33aw,85,train
1003.1290054321289,1,5,3,0,2,4,E+,1,3,2,400,600,250.0,3,c33aw,86,train
107.18202590942383,1,5,3,0,2,4,E+,1,4,5,400,600,250.0,4,c33aw,87,train
59.05508995056152,1,5,3,0,2,4,E+,1,2,4,400,600,250.0,2,c33aw,88,train
699.11789894104,1,5,3,0,2,4,E+,1,3,2,400,600,250.0,3,c33aw,89,train
138.97204399108887,1,5,3,0,2,4,E+,1,1,0,400,600,250.0,1,c33aw,90,train
154.97303009033203,1,5,3,0,2,4,E+,1,2,4,400,600,250.0,2,c33aw,91,train
123.02494049072266,1,5,3,0,2,4,E+,1,0,3,400,600,250.0,0,c33aw,92,train
0.17118453979492188,1,5,3,0,2,4,E+,1,3,2,400,600,250.0,3,c33aw,93,train
235.1701259613037,1,5,3,0,2,4,E+,1,0,3,400,600,250.0,0,c33aw,94,train
170.74918746948242,1,5,3,0,2,4,E+,1,0,3,400,600,250.0,0,c33aw,95,train
107.21993446350098,1,5,3,0,2,4,E+,1,0,3,400,600,250.0,0,c33aw,96,train
170.57204246520996,1,5,3,0,2,4,E+,1,2,4,400,600,250.0,2,c33aw,97,train
0.1308917999267578,1,5,3,0,2,4,E+,1,3,2,400,600,250.0,3,c33aw,98,train
26.89194679260254,1,5,3,0,2,4,E+,1,4,5,400,600,250.0,4,c33aw,99,train
251.2221336364746,1,5,3,0,2,4,E+,1,1,0,400,600,250.0,1,c33aw,100,train
154.60610389709473,1,5,3,0,2,4,E+,1,4,5,400,600,250.0,4,c33aw,101,train
138.8399600982666,1,5,3,0,2,4,E+,1,0,3,400,600,250.0,0,c33aw,102,train
123.25596809387207,1,5,3,0,2,4,E+,1,3,2,400,600,250.0,3,c33aw,103,train
121.94013595581055,1,5,3,0,2,4,E+,1,2,4,400,600,250.0,2,c33aw,104,train
90.01493453979492,1,5,3,0,2,4,E+,1,4,5,400,600,250.0,4,c33aw,105,train
299.10898208618164,1,5,3,0,2,4,E+,1,2,4,400,600,250.0,2,c33aw,106,train
74.7218132019043,1,5,3,0,2,4,E+,1,0,3,400,600,250.0,0,c33aw,107,train
59.04197692871094,1,5,3,0,2,4,E+,1,1,0,400,600,250.0,1,c33aw,108,train
58.22491645812988,1,5,3,0,2,4,E+,1,2,4,400,600,250.0,2,c33aw,109,train
139.1289234161377,1,5,3,0,2,4,E+,1,0,3,400,600,250.0,0,c33aw,110,train
235.05711555480957,1,5,3,0,2,4,E+,1,4,5,400,600,250.0,4,c33aw,111,train
696.6991424560547,1,5,3,0,2,4,E+,0,3,2,400,600,250.0,4,c33aw,112,train
42.762041091918945,1,5,3,0,2,4,E+,1,2,4,400,600,250.0,2,c33aw,113,train
122.90000915527344,1,5,3,0,2,4,E+,1,4,5,400,600,250.0,4,c33aw,114,train
122.99394607543945,1,5,3,0,2,4,E+,1,1,0,400,600,250.0,1,c33aw,115,train
203.20916175842285,1,5,3,0,2,4,E+,1,0,3,400,600,250.0,0,c33aw,116,train
747.1060752868652,1,5,3,0,2,4,E+,1,4,5,400,600,250.0,4,c33aw,117,train
171.21100425720215,1,5,3,0,2,4,E+,1,1,0,400,600,250.0,1,c33aw,118,train
523.0138301849365,1,5,3,0,2,4,E+,1,1,0,400,600,250.0,1,c33aw,119,train
219.2249298095703,1,5,3,0,2,4,E+,1,2,4,400,600,250.0,2,c33aw,120,train
171.09990119934082,1,5,3,0,2,4,E+,1,4,5,400,600,250.0,4,c33aw,121,train
11.126995086669922,1,5,3,0,2,4,E+,1,4,5,400,600,250.0,4,c33aw,122,train
171.2348461151123,1,5,3,0,2,4,E+,1,2,4,400,600,250.0,2,c33aw,123,train
75.2110481262207,1,5,3,0,2,4,E+,1,1,0,400,600,250.0,1,c33aw,124,train
4955.205917358398,1,5,3,0,2,4,E+,1,2,4,400,600,250.0,2,c33aw,125,train
571.1560249328613,1,5,3,0,2,4,E+,0,4,5,400,600,250.0,1,c33aw,126,train
139.14108276367188,1,5,3,0,2,4,E+,1,0,3,400,600,250.0,0,c33aw,127,train
219.21205520629883,1,5,3,0,2,4,E+,1,5,1,400,600,250.0,5,c33aw,128,train
107.2390079498291,1,5,3,0,2,4,E+,1,5,1,400,600,250.0,5,c33aw,129,train
329.5731544494629,1,5,3,0,2,4,E+,1,2,4,400,600,250.0,2,c33aw,130,train
186.80095672607422,1,5,3,0,2,4,E+,1,4,5,400,600,250.0,4,c33aw,131,train
298.92587661743164,1,5,3,0,2,4,E+,1,4,5,400,600,250.0,4,c33aw,132,train
123.20780754089355,1,5,3,0,2,4,E+,1,3,2,400,600,250.0,3,c33aw,133,train
443.0539608001709,1,5,3,0,2,4,E+,0,1,0,400,600,250.0,2,c33aw,134,train
298.95782470703125,1,5,3,0,2,4,E+,1,3,2,400,600,250.0,3,c33aw,135,train
106.95314407348633,1,5,3,0,2,4,E+,1,0,3,400,600,250.0,0,c33aw,136,train
1995.081901550293,1,5,3,0,2,4,E+,1,1,0,400,600,250.0,1,c33aw,137,train
248.37493896484375,1,5,3,0,2,4,E+,1,4,5,400,600,250.0,4,c33aw,138,train
107.12909698486328,1,5,3,0,2,4,E+,1,5,1,400,600,250.0,5,c33aw,139,train
107.23686218261719,1,5,3,0,2,4,E+,1,0,3,400,600,250.0,0,c33aw,140,train
779.1390419006348,1,5,3,0,2,4,E+,1,0,3,400,600,250.0,0,c33aw,141,train
91.21108055114746,1,5,3,0,2,4,E+,1,2,4,400,600,250.0,2,c33aw,142,train
171.1430549621582,1,5,3,0,2,4,E+,1,2,4,400,600,250.0,2,c33aw,143,train
107.15699195861816,1,5,3,0,2,4,E+,1,2,4,400,600,250.0,2,c33aw,144,train
107.08904266357422,1,5,3,0,2,4,E+,1,2,4,400,600,250.0,2,c33aw,145,train
331.15696907043457,1,5,3,0,2,4,E+,1,5,1,400,600,250.0,5,c33aw,146,train
155.05099296569824,1,5,3,0,2,4,E+,1,3,2,400,600,250.0,3,c33aw,147,train
172.12796211242676,1,5,3,0,2,4,E+,1,1,0,400,600,250.0,1,c33aw,148,train
475.27313232421875,1,5,3,0,2,4,E+,1,3,2,400,600,250.0,3,c33aw,149,train
123.10409545898438,1,5,3,0,2,4,E+,1,4,5,400,600,250.0,4,c33aw,150,train
330.9750556945801,1,5,3,0,2,4,E+,1,2,4,400,600,250.0,2,c33aw,151,train
74.64098930358887,1,5,3,0,2,4,E+,1,2,4,400,600,250.0,2,c33aw,152,train
91.19200706481934,1,5,3,0,2,4,E+,1,4,5,400,600,250.0,4,c33aw,153,train
251.2061595916748,1,5,3,0,2,4,E+,1,5,1,400,600,250.0,5,c33aw,154,train
58.992862701416016,1,5,3,0,2,4,E+,1,5,1,400,600,250.0,5,c33aw,155,train
59.15498733520508,1,5,3,0,2,4,E+,1,1,0,400,600,250.0,1,c33aw,156,train
123.17800521850586,1,5,3,0,2,4,E+,1,2,4,400,600,250.0,2,c33aw,157,train
171.27013206481934,1,5,3,0,2,4,E+,1,1,0,400,600,250.0,1,c33aw,158,train
955.0509452819824,1,5,3,0,2,4,E+,1,0,3,400,600,250.0,0,c33aw,159,train
171.13280296325684,1,5,3,0,2,4,E+,0,5,1,400,600,250.0,2,c33aw,160,train
218.9159393310547,1,5,3,0,2,4,E+,1,2,4,400,600,250.0,2,c33aw,161,train
155.1799774169922,1,5,3,0,2,4,E+,1,5,1,400,600,250.0,5,c33aw,162,train
123.1999397277832,1,5,3,0,2,4,E+,1,1,0,400,600,250.0,1,c33aw,163,train
235.02111434936523,1,5,3,0,2,4,E+,1,5,1,400,600,250.0,5,c33aw,164,train
443.18199157714844,1,5,3,0,2,4,E+,1,1,0,400,600,250.0,1,c33aw,165,train
187.15405464172363,1,5,3,0,2,4,E+,1,4,5,400,600,250.0,4,c33aw,166,train
27.153968811035156,1,5,3,0,2,4,E+,1,4,5,400,600,250.0,4,c33aw,167,train
539.1650199890137,1,5,3,0,2,4,E+,1,3,2,400,600,250.0,3,c33aw,168,train
123.05307388305664,1,5,3,0,2,4,E+,1,1,0,400,600,250.0,1,c33aw,169,train
346.2519645690918,1,5,3,0,2,4,E+,1,2,4,400,600,250.0,2,c33aw,170,train
235.0289821624756,1,5,3,0,2,4,E+,1,3,2,400,600,250.0,3,c33aw,171,train
155.20000457763672,1,5,3,0,2,4,E+,1,5,1,400,600,250.0,5,c33aw,172,train
249.62806701660156,1,5,3,0,2,4,E+,1,4,5,400,600,250.0,4,c33aw,173,train
187.1359348297119,1,5,3,0,2,4,E+,1,1,0,400,600,250.0,1,c33aw,174,train
171.22387886047363,1,5,3,0,2,4,E+,1,1,0,400,600,250.0,1,c33aw,175,train
267.2419548034668,1,5,3,0,2,4,E+,1,4,5,400,600,250.0,4,c33aw,176,train
91.1409854888916,1,5,3,0,2,4,E+,1,5,1,400,600,250.0,5,c33aw,177,train
139.2359733581543,1,5,3,0,2,4,E+,1,0,3,400,600,250.0,0,c33aw,178,train
1227.268934249878,1,5,3,0,2,4,E+,1,1,0,400,600,250.0,1,c33aw,179,train
395.1389789581299,1,5,3,0,2,4,E+,1,4,5,400,600,250.0,4,c33aw,180,train
139.17899131774902,1,5,3,0,2,4,E+,1,1,0,400,600,250.0,1,c33aw,181,train
491.0409450531006,1,5,3,0,2,4,E+,0,3,2,400,600,250.0,2,c33aw,182,train
267.2009468078613,1,5,3,0,2,4,E+,1,5,1,400,600,250.0,5,c33aw,183,train
139.03188705444336,1,5,3,0,2,4,E+,1,0,3,400,600,250.0,0,c33aw,184,train
266.8190002441406,1,5,3,0,2,4,E+,1,3,2,400,600,250.0,3,c33aw,185,train
138.80181312561035,1,5,3,0,2,4,E+,1,5,1,400,600,250.0,5,c33aw,186,train
139.19711112976074,1,5,3,0,2,4,E+,1,2,4,400,600,250.0,2,c33aw,187,train
43.15686225891113,1,5,3,0,2,4,E+,1,5,1,400,600,250.0,5,c33aw,188,train
75.22296905517578,1,5,3,0,2,4,E+,1,0,3,400,600,250.0,0,c33aw,189,train
0.1289844512939453,1,5,3,0,2,4,E+,1,0,3,400,600,250.0,0,c33aw,190,train
155.03787994384766,1,5,3,0,2,4,E+,1,2,4,400,600,250.0,2,c33aw,191,train
171.26893997192383,1,5,3,0,2,4,E+,1,4,5,400,600,250.0,4,c33aw,192,train
91.13407135009766,1,5,3,0,2,4,E+,1,2,4,400,600,250.0,2,c33aw,193,train
4539.087772369385,1,5,3,0,2,4,E+,1,3,2,400,600,250.0,3,c33aw,194,train
459.14506912231445,1,5,3,0,2,4,E+,1,1,0,400,600,250.0,1,c33aw,195,train
3771.242141723633,1,5,3,0,2,4,E+,1,4,5,400,600,250.0,4,c33aw,196,train
635.1258754730225,1,5,3,0,2,4,E+,1,1,0,400,600,250.0,1,c33aw,197,train
571.0551738739014,1,5,3,0,2,4,E+,1,2,4,400,600,250.0,2,c33aw,198,train
299.1759777069092,1,5,3,0,2,4,E+,1,2,4,400,600,250.0,2,c33aw,199,train
618.6850070953369,1,5,3,0,2,4,E+,1,3,2,400,600,250.0,3,c33aw,200,train
235.06593704223633,1,5,3,0,2,4,E+,1,3,2,400,600,250.0,3,c33aw,201,train
312.72006034851074,1,5,3,0,2,4,E+,1,4,5,400,600,250.0,4,c33aw,202,train
459.2399597167969,1,5,3,0,2,4,E+,1,2,4,400,600,250.0,2,c33aw,203,train
187.18290328979492,1,5,3,0,2,4,E+,1,5,1,400,600,250.0,5,c33aw,204,train
667.4749851226807,1,5,3,0,2,4,E+,1,2,4,400,600,250.0,2,c33aw,205,train
587.3289108276367,1,5,3,0,2,4,E+,1,3,2,400,600,250.0,3,c33aw,206,train
203.0642032623291,1,5,3,0,2,4,E+,1,5,1,400,600,250.0,5,c33aw,207,train
27.25815773010254,1,5,3,0,2,4,E+,1,4,5,400,600,250.0,4,c33aw,208,train
283.3268642425537,1,5,3,0,2,4,E+,1,5,1,400,600,250.0,5,c33aw,209,train
299.166202545166,1,5,3,0,2,4,E+,1,1,0,400,600,250.0,1,c33aw,210,train
59.179067611694336,1,5,3,0,2,4,E+,1,0,3,400,600,250.0,0,c33aw,211,train
90.63100814819336,1,5,3,0,2,4,E+,1,5,1,400,600,250.0,5,c33aw,212,train
107.20992088317871,1,5,3,0,2,4,E+,1,5,1,400,600,250.0,5,c33aw,213,train
123.23403358459473,1,5,3,0,2,4,E+,1,1,0,400,600,250.0,1,c33aw,214,train
171.20814323425293,1,5,3,0,2,4,E+,1,2,4,400,600,250.0,2,c33aw,215,train
171.13709449768066,1,5,3,0,2,4,E+,1,5,1,400,600,250.0,5,c33aw,216,train
43.19190979003906,1,5,3,0,2,4,E+,1,4,5,400,600,250.0,4,c33aw,217,train
266.3428783416748,1,5,3,0,2,4,E+,1,4,5,400,600,250.0,4,c33aw,218,train
169.80886459350586,1,5,3,0,2,4,E+,1,2,4,400,600,250.0,2,c33aw,219,train
139.01090621948242,1,5,3,0,2,4,E+,1,1,0,400,600,250.0,1,c33aw,220,train
203.07111740112305,1,5,3,0,2,4,E+,1,0,3,400,600,250.0,0,c33aw,221,train
411.1011028289795,1,5,3,0,2,4,E+,1,0,3,400,600,250.0,0,c33aw,222,train
171.13995552062988,1,5,3,0,2,4,E+,1,1,0,400,600,250.0,1,c33aw,223,train
219.25902366638184,1,5,3,0,2,4,E+,1,1,0,400,600,250.0,1,c33aw,224,train
283.0531597137451,1,5,3,0,2,4,E+,1,5,1,400,600,250.0,5,c33aw,225,train
379.03404235839844,1,5,3,0,2,4,E+,0,0,3,400,600,250.0,5,c33aw,226,train
347.03898429870605,1,5,3,0,2,4,E+,1,4,5,400,600,250.0,4,c33aw,227,train
346.6181755065918,1,5,3,0,2,4,E+,1,4,5,400,600,250.0,4,c33aw,228,train
187.21818923950195,1,5,3,0,2,4,E+,1,5,1,400,600,250.0,5,c33aw,229,train
1195.052146911621,1,5,3,0,2,4,E+,0,4,5,400,600,250.0,3,c33aw,230,train
218.81699562072754,1,5,3,0,2,4,E+,1,0,3,400,600,250.0,0,c33aw,231,train
250.72908401489258,1,5,3,0,2,4,E+,1,4,5,400,600,250.0,4,c33aw,232,train
139.19496536254883,1,5,3,0,2,4,E+,1,0,3,400,600,250.0,0,c33aw,233,train
523.176908493042,1,5,3,0,2,4,E+,1,0,3,400,600,250.0,0,c33aw,234,train
283.07509422302246,1,5,3,0,2,4,E+,1,5,1,400,600,250.0,5,c33aw,235,train
651.2339115142822,1,5,3,0,2,4,E+,1,3,2,400,600,250.0,3,c33aw,236,train
251.04689598083496,1,5,3,0,2,4,E+,1,5,1,400,600,250.0,5,c33aw,237,train
203.17983627319336,1,5,3,0,2,4,E+,1,2,4,400,600,250.0,2,c33aw,238,train
235.16011238098145,1,5,3,0,2,4,E+,1,4,5,400,600,250.0,4,c33aw,239,train
538.9049053192139,1,5,3,0,2,4,E+,1,3,2,400,600,250.0,3,c33aw,240,train
122.97511100769043,1,5,3,0,2,4,E+,1,0,3,400,600,250.0,0,c33aw,241,train
264.5449638366699,1,5,3,0,2,4,E+,1,3,2,400,600,250.0,3,c33aw,242,train
170.20893096923828,1,5,3,0,2,4,E+,1,3,2,400,600,250.0,3,c33aw,243,train
106.87112808227539,1,5,3,0,2,4,E+,1,1,0,400,600,250.0,1,c33aw,244,train
202.87585258483887,1,5,3,0,2,4,E+,1,3,2,400,600,250.0,3,c33aw,245,train
171.0669994354248,1,5,3,0,2,4,E+,1,5,1,400,600,250.0,5,c33aw,246,train
139.24884796142578,1,5,3,0,2,4,E+,1,5,1,400,600,250.0,5,c33aw,247,train
362.76888847351074,1,5,3,0,2,4,E+,1,1,0,400,600,250.0,1,c33aw,248,train
266.6780948638916,1,5,3,0,2,4,E+,1,3,2,400,600,250.0,3,c33aw,249,train
3825.0510692596436,1,5,3,0,2,4,E+,1,3,2,0,1000,250.0,3,c33aw,250,test
513.1018161773682,1,5,3,0,2,4,E+,1,3,2,0,1000,250.0,3,c33aw,251,test
816.9782161712646,1,5,3,0,2,4,E+,1,3,2,0,1000,250.0,3,c33aw,252,test
560.9111785888672,1,5,3,0,2,4,E+,1,5,1,0,1000,250.0,5,c33aw,253,test
576.9579410552979,1,5,3,0,2,4,E+,1,0,3,0,1000,250.0,0,c33aw,254,test
480.8998107910156,1,5,3,0,2,4,E+,1,5,1,0,1000,250.0,5,c33aw,255,test
625.0932216644287,1,5,3,0,2,4,E+,1,1,0,0,1000,250.0,1,c33aw,256,test
641.0009860992432,1,5,3,0,2,4,E+,1,3,2,0,1000,250.0,3,c33aw,257,test
592.4410820007324,1,5,3,0,2,4,E+,1,2,4,0,1000,250.0,2,c33aw,258,test
544.2318916320801,1,5,3,0,2,4,E+,1,2,4,0,1000,250.0,2,c33aw,259,test
881.0579776763916,1,5,3,0,2,4,E+,1,1,0,0,1000,250.0,1,c33aw,260,test
945.2359676361084,1,5,3,0,2,4,E+,0,4,5,0,1000,250.0,0,c33aw,261,test
657.0570468902588,1,5,3,0,2,4,E+,1,1,0,0,1000,250.0,1,c33aw,262,test
609.0731620788574,1,5,3,0,2,4,E+,1,2,4,0,1000,250.0,2,c33aw,263,test
496.9339370727539,1,5,3,0,2,4,E+,1,3,2,0,1000,250.0,3,c33aw,264,test
336.94005012512207,1,5,3,0,2,4,E+,0,0,3,0,1000,250.0,1,c33aw,265,test
720.937967300415,1,5,3,0,2,4,E+,1,4,5,0,1000,250.0,4,c33aw,266,test
640.8090591430664,1,5,3,0,2,4,E+,1,2,4,0,1000,250.0,2,c33aw,267,test
753.0548572540283,1,5,3,0,2,4,E+,1,0,3,0,1000,250.0,0,c33aw,268,test
977.1580696105957,1,5,3,0,2,4,E+,1,0,3,0,1000,250.0,0,c33aw,269,test
609.0099811553955,1,5,3,0,2,4,E+,1,2,4,0,1000,250.0,2,c33aw,270,test
561.0339641571045,1,5,3,0,2,4,E+,1,3,2,0,1000,250.0,3,c33aw,271,test
560.899019241333,1,5,3,0,2,4,E+,1,5,1,0,1000,250.0,5,c33aw,272,test
737.1618747711182,1,5,3,0,2,4,E+,1,0,3,0,1000,250.0,0,c33aw,273,test
768.8450813293457,1,5,3,0,2,4,E+,1,4,5,0,1000,250.0,4,c33aw,274,test
688.9290809631348,1,5,3,0,2,4,E+,1,1,0,0,1000,250.0,1,c33aw,275,test
593.0459499359131,1,5,3,0,2,4,E+,1,2,4,0,1000,250.0,2,c33aw,276,test
656.4640998840332,1,5,3,0,2,4,E+,1,1,0,0,1000,250.0,1,c33aw,277,test
576.8630504608154,1,5,3,0,2,4,E+,1,0,3,0,1000,250.0,0,c33aw,278,test
625.1449584960938,1,5,3,0,2,4,E+,1,0,3,0,1000,250.0,0,c33aw,279,test
801.0210990905762,1,5,3,0,2,4,E+,1,2,4,0,1000,250.0,2,c33aw,280,test
608.8380813598633,1,5,3,0,2,4,E+,1,1,0,0,1000,250.0,1,c33aw,281,test
641.03102684021,1,5,3,0,2,4,E+,1,2,4,0,1000,250.0,2,c33aw,282,test
528.9530754089355,1,5,3,0,2,4,E+,1,5,1,0,1000,250.0,5,c33aw,283,test
672.874927520752,1,5,3,0,2,4,E+,1,1,0,0,1000,250.0,1,c33aw,284,test
512.9129886627197,1,5,3,0,2,4,E+,1,1,0,0,1000,250.0,1,c33aw,285,test
417.02985763549805,1,5,3,0,2,4,E+,1,3,2,0,1000,250.0,3,c33aw,286,test
544.9600219726562,1,5,3,0,2,4,E+,0,2,4,0,1000,250.0,1,c33aw,287,test
609.0590953826904,1,5,3,0,2,4,E+,1,1,0,0,1000,250.0,1,c33aw,288,test
704.8890590667725,1,5,3,0,2,4,E+,1,1,0,0,1000,250.0,1,c33aw,289,test
576.7428874969482,1,5,3,0,2,4,E+,1,2,4,0,1000,250.0,2,c33aw,290,test
544.9399948120117,1,5,3,0,2,4,E+,1,1,0,0,1000,250.0,1,c33aw,291,test
528.9261341094971,1,5,3,0,2,4,E+,1,3,2,0,1000,250.0,3,c33aw,292,test
592.9579734802246,1,5,3,0,2,4,E+,1,2,4,0,1000,250.0,2,c33aw,293,test
673.0399131774902,1,5,3,0,2,4,E+,1,4,5,0,1000,250.0,4,c33aw,294,test
577.2120952606201,1,5,3,0,2,4,E+,0,4,5,0,1000,250.0,2,c33aw,295,test
641.0059928894043,1,5,3,0,2,4,E+,1,1,0,0,1000,250.0,1,c33aw,296,test
544.9998378753662,1,5,3,0,2,4,E+,1,5,1,0,1000,250.0,5,c33aw,297,test
545.1009273529053,1,5,3,0,2,4,E+,1,0,3,0,1000,250.0,0,c33aw,298,test
528.817892074585,1,5,3,0,2,4,E+,1,1,0,0,1000,250.0,1,c33aw,299,test
528.8760662078857,1,5,3,0,2,4,E+,1,3,2,0,1000,250.0,3,c33aw,300,test
497.04909324645996,1,5,3,0,2,4,E+,1,5,1,0,1000,250.0,5,c33aw,301,test
5471.176862716675,1,5,3,0,2,4,E+,1,1,0,0,1000,250.0,1,c33aw,302,test
1008.9900493621826,1,5,3,0,2,4,E+,1,2,4,0,1000,250.0,2,c33aw,303,test
480.44514656066895,1,5,3,0,2,4,E+,1,3,2,0,1000,250.0,3,c33aw,304,test
721.1370468139648,1,5,3,0,2,4,E+,1,4,5,0,1000,250.0,4,c33aw,305,test
849.1220474243164,1,5,3,0,2,4,E+,1,2,4,0,1000,250.0,2,c33aw,306,test
1392.9598331451416,1,5,3,0,2,4,E+,1,4,5,0,1000,250.0,4,c33aw,307,test
609.0011596679688,1,5,3,0,2,4,E+,1,1,0,0,1000,250.0,1,c33aw,308,test
544.9590682983398,1,5,3,0,2,4,E+,1,5,1,0,1000,250.0,5,c33aw,309,test
929.0640354156494,1,5,3,0,2,4,E+,1,2,4,0,1000,250.0,2,c33aw,310,test
560.8549118041992,1,5,3,0,2,4,E+,1,1,0,0,1000,250.0,1,c33aw,311,test
561.0840320587158,1,5,3,0,2,4,E+,1,1,0,0,1000,250.0,1,c33aw,312,test
849.1160869598389,1,5,3,0,2,4,E+,1,3,2,0,1000,250.0,3,c33aw,313,test
560.3210926055908,1,5,3,0,2,4,E+,1,3,2,0,1000,250.0,3,c33aw,314,test
688.9100074768066,1,5,3,0,2,4,E+,1,0,3,0,1000,250.0,0,c33aw,315,test
737.0009422302246,1,5,3,0,2,4,E+,1,4,5,0,1000,250.0,4,c33aw,316,test
512.8798484802246,1,5,3,0,2,4,E+,1,5,1,0,1000,250.0,5,c33aw,317,test
592.9930210113525,1,5,3,0,2,4,E+,1,0,3,0,1000,250.0,0,c33aw,318,test
433.0160617828369,1,5,3,0,2,4,E+,0,5,1,0,1000,250.0,3,c33aw,319,test
625.0731945037842,1,5,3,0,2,4,E+,1,1,0,0,1000,250.0,1,c33aw,320,test
576.0688781738281,1,5,3,0,2,4,E+,0,3,2,0,1000,250.0,4,c33aw,321,test
720.9689617156982,1,5,3,0,2,4,E+,1,2,4,0,1000,250.0,2,c33aw,322,test
784.8470211029053,1,5,3,0,2,4,E+,1,3,2,0,1000,250.0,3,c33aw,323,test
721.0888862609863,1,5,3,0,2,4,E+,1,0,3,0,1000,250.0,0,c33aw,324,test
721.0149765014648,1,5,3,0,2,4,E+,1,2,4,0,1000,250.0,2,c33aw,325,test
784.8911285400391,1,5,3,0,2,4,E+,1,4,5,0,1000,250.0,4,c33aw,326,test
816.8230056762695,1,5,3,0,2,4,E+,1,1,0,0,1000,250.0,1,c33aw,327,test
496.959924697876,1,5,3,0,2,4,E+,1,5,1,0,1000,250.0,5,c33aw,328,test
465.11316299438477,1,5,3,0,2,4,E+,1,5,1,0,1000,250.0,5,c33aw,329,test
577.0020484924316,1,5,3,0,2,4,E+,1,4,5,0,1000,250.0,4,c33aw,330,test
480.8979034423828,1,5,3,0,2,4,E+,1,3,2,0,1000,250.0,3,c33aw,331,test
1152.845859527588,1,5,3,0,2,4,E+,1,4,5,0,1000,250.0,4,c33aw,332,test
464.88499641418457,1,5,3,0,2,4,E+,1,3,2,0,1000,250.0,3,c33aw,333,test
448.7278461456299,1,5,3,0,2,4,E+,1,4,5,0,1000,250.0,4,c33aw,334,test
672.9331016540527,1,5,3,0,2,4,E+,1,1,0,0,1000,250.0,1,c33aw,335,test
528.9309024810791,1,5,3,0,2,4,E+,1,3,2,0,1000,250.0,3,c33aw,336,test
561.0978603363037,1,5,3,0,2,4,E+,1,4,5,0,1000,250.0,4,c33aw,337,test
736.8578910827637,1,5,3,0,2,4,E+,1,2,4,0,1000,250.0,2,c33aw,338,test
593.0030345916748,1,5,3,0,2,4,E+,1,4,5,0,1000,250.0,4,c33aw,339,test
544.9469089508057,1,5,3,0,2,4,E+,1,4,5,0,1000,250.0,4,c33aw,340,test
384.9360942840576,1,5,3,0,2,4,E+,1,4,5,0,1000,250.0,4,c33aw,341,test
656.7058563232422,1,5,3,0,2,4,E+,1,0,3,0,1000,250.0,0,c33aw,342,test
608.9541912078857,1,5,3,0,2,4,E+,1,1,0,0,1000,250.0,1,c33aw,343,test
576.9789218902588,1,5,3,0,2,4,E+,1,3,2,0,1000,250.0,3,c33aw,344,test
481.05692863464355,1,5,3,0,2,4,E+,1,5,1,0,1000,250.0,5,c33aw,345,test
1248.878002166748,1,5,3,0,2,4,E+,0,5,1,0,1000,250.0,3,c33aw,346,test
1232.7849864959717,1,5,3,0,2,4,E+,1,1,0,0,1000,250.0,1,c33aw,347,test
576.9081115722656,1,5,3,0,2,4,E+,1,1,0,0,1000,250.0,1,c33aw,348,test
1056.8959712982178,1,5,3,0,2,4,E+,1,4,5,0,1000,250.0,4,c33aw,349,test
1953.0351161956787,1,5,3,0,2,4,E+,0,2,4,0,1000,250.0,1,c33aw,350,test
640.9220695495605,1,5,3,0,2,4,E+,1,1,0,0,1000,250.0,1,c33aw,351,test
416.8529510498047,1,5,3,0,2,4,E+,1,2,4,0,1000,250.0,2,c33aw,352,test
560.7919692993164,1,5,3,0,2,4,E+,1,5,1,0,1000,250.0,5,c33aw,353,test
736.8149757385254,1,5,3,0,2,4,E+,1,1,0,0,1000,250.0,1,c33aw,354,test
576.7068862915039,1,5,3,0,2,4,E+,1,0,3,0,1000,250.0,0,c33aw,355,test
448.96602630615234,1,5,3,0,2,4,E+,1,5,1,0,1000,250.0,5,c33aw,356,test
656.9178104400635,1,5,3,0,2,4,E+,1,2,4,0,1000,250.0,2,c33aw,357,test
1089.2560482025146,1,5,3,0,2,4,E+,0,4,5,0,1000,250.0,0,c33aw,358,test
608.8669300079346,1,5,3,0,2,4,E+,1,0,3,0,1000,250.0,0,c33aw,359,test
528.8560390472412,1,5,3,0,2,4,E+,1,5,1,0,1000,250.0,5,c33aw,360,test
880.0580501556396,1,5,3,0,2,4,E+,1,4,5,0,1000,250.0,4,c33aw,361,test
528.8851261138916,1,5,3,0,2,4,E+,1,4,5,0,1000,250.0,4,c33aw,362,test
528.9309024810791,1,5,3,0,2,4,E+,0,5,1,0,1000,250.0,4,c33aw,363,test
993.2820796966553,1,5,3,0,2,4,E+,1,4,5,0,1000,250.0,4,c33aw,364,test
672.888994216919,1,5,3,0,2,4,E+,1,5,1,0,1000,250.0,5,c33aw,365,test
928.9700984954834,1,5,3,0,2,4,E+,1,1,0,0,1000,250.0,1,c33aw,366,test
657.0489406585693,1,5,3,0,2,4,E+,1,5,1,0,1000,250.0,5,c33aw,367,test
528.8560390472412,1,5,3,0,2,4,E+,1,5,1,0,1000,250.0,5,c33aw,368,test
545.0608730316162,1,5,3,0,2,4,E+,1,5,1,0,1000,250.0,5,c33aw,369,test
704.909086227417,1,5,3,0,2,4,E+,1,4,5,0,1000,250.0,4,c33aw,370,test
577.0571231842041,1,5,3,0,2,4,E+,1,0,3,0,1000,250.0,0,c33aw,371,test
625.0641345977783,1,5,3,0,2,4,E+,1,2,4,0,1000,250.0,2,c33aw,372,test
865.0920391082764,1,5,3,0,2,4,E+,1,1,0,0,1000,250.0,1,c33aw,373,test
497.15113639831543,1,5,3,0,2,4,E+,1,1,0,0,1000,250.0,1,c33aw,374,test
400.8669853210449,1,5,3,0,2,4,E+,0,3,2,0,1000,250.0,1,c33aw,375,test
704.9620151519775,1,5,3,0,2,4,E+,1,2,4,0,1000,250.0,2,c33aw,376,test
433.08210372924805,1,5,3,0,2,4,E+,1,3,2,0,1000,250.0,3,c33aw,377,test
401.1049270629883,1,5,3,0,2,4,E+,1,3,2,0,1000,250.0,3,c33aw,378,test
928.9450645446777,1,5,3,0,2,4,E+,1,1,0,0,1000,250.0,1,c33aw,379,test
624.6130466461182,1,5,3,0,2,4,E+,1,0,3,0,1000,250.0,0,c33aw,380,test
448.81606101989746,1,5,3,0,2,4,E+,1,0,3,0,1000,250.0,0,c33aw,381,test
576.8051147460938,1,5,3,0,2,4,E+,1,1,0,0,1000,250.0,1,c33aw,382,test
849.0149974822998,1,5,3,0,2,4,E+,1,3,2,0,1000,250.0,3,c33aw,383,test
704.9961090087891,1,5,3,0,2,4,E+,1,0,3,0,1000,250.0,0,c33aw,384,test
848.8521575927734,1,5,3,0,2,4,E+,1,0,3,0,1000,250.0,0,c33aw,385,test
4576.11083984375,1,5,3,0,2,4,E+,0,1,0,0,1000,250.0,2,c33aw,386,test
494.7330951690674,1,5,3,0,2,4,E+,1,1,0,0,1000,250.0,1,c33aw,387,test
496.86217308044434,1,5,3,0,2,4,E+,1,5,1,0,1000,250.0,5,c33aw,388,test
576.3809680938721,1,5,3,0,2,4,E+,1,5,1,0,1000,250.0,5,c33aw,389,test
544.9538230895996,1,5,3,0,2,4,E+,1,0,3,0,1000,250.0,0,c33aw,390,test
560.6739521026611,1,5,3,0,2,4,E+,1,3,2,0,1000,250.0,3,c33aw,391,test
1008.213996887207,1,5,3,0,2,4,E+,1,4,5,0,1000,250.0,4,c33aw,392,test
544.8858737945557,1,5,3,0,2,4,E+,1,0,3,0,1000,250.0,0,c33aw,393,test
752.3069381713867,1,5,3,0,2,4,E+,1,2,4,0,1000,250.0,2,c33aw,394,test
688.4160041809082,1,5,3,0,2,4,E+,1,1,0,0,1000,250.0,1,c33aw,395,test
1105.1130294799805,1,5,3,0,2,4,E+,0,1,0,0,1000,250.0,4,c33aw,396,test
1248.534917831421,1,5,3,0,2,4,E+,1,4,5,0,1000,250.0,4,c33aw,397,test
576.9460201263428,1,5,3,0,2,4,E+,1,1,0,0,1000,250.0,1,c33aw,398,test
544.9130535125732,1,5,3,0,2,4,E+,1,3,2,0,1000,250.0,3,c33aw,399,test
545.0048446655273,1,5,3,0,2,4,E+,1,0,3,0,1000,250.0,0,c33aw,400,test
992.8889274597168,1,5,3,0,2,4,E+,1,4,5,0,1000,250.0,4,c33aw,401,test
768.9590454101562,1,5,3,0,2,4,E+,1,2,4,0,1000,250.0,2,c33aw,402,test
576.4269828796387,1,5,3,0,2,4,E+,1,0,3,0,1000,250.0,0,c33aw,403,test
768.8930034637451,1,5,3,0,2,4,E+,0,0,3,0,1000,250.0,2,c33aw,404,test
672.8200912475586,1,5,3,0,2,4,E+,0,0,3,0,1000,250.0,4,c33aw,405,test
816.7150020599365,1,5,3,0,2,4,E+,1,3,2,0,1000,250.0,3,c33aw,406,test
720.5319404602051,1,5,3,0,2,4,E+,1,0,3,0,1000,250.0,0,c33aw,407,test
626.2810230255127,1,5,3,0,2,4,E+,1,0,3,0,1000,250.0,0,c33aw,408,test
1328.9778232574463,1,5,3,0,2,4,E+,0,4,5,0,1000,250.0,0,c33aw,409,test
1280.9488773345947,1,5,3,0,2,4,E+,1,4,5,0,1000,250.0,4,c33aw,410,test
752.9308795928955,1,5,3,0,2,4,E+,1,0,3,0,1000,250.0,0,c33aw,411,test
576.6971111297607,1,5,3,0,2,4,E+,1,0,3,0,1000,250.0,0,c33aw,412,test
528.9819240570068,1,5,3,0,2,4,E+,0,3,2,0,1000,250.0,4,c33aw,413,test
705.042839050293,1,5,3,0,2,4,E+,1,2,4,0,1000,250.0,2,c33aw,414,test
592.9300785064697,1,5,3,0,2,4,E+,1,2,4,0,1000,250.0,2,c33aw,415,test
720.7770347595215,1,5,3,0,2,4,E+,1,4,5,0,1000,250.0,4,c33aw,416,test
640.8989429473877,1,5,3,0,2,4,E+,1,2,4,0,1000,250.0,2,c33aw,417,test
721.066951751709,1,5,3,0,2,4,E+,0,1,0,0,1000,250.0,2,c33aw,418,test
688.5271072387695,1,5,3,0,2,4,E+,1,2,4,0,1000,250.0,2,c33aw,419,test
446.4859962463379,1,5,3,0,2,4,E+,1,2,4,0,1000,250.0,2,c33aw,420,test
960.8690738677979,1,5,3,0,2,4,E+,1,4,5,0,1000,250.0,4,c33aw,421,test
976.6519069671631,1,5,3,0,2,4,E+,1,0,3,0,1000,250.0,0,c33aw,422,test
512.998104095459,1,5,3,0,2,4,E+,1,5,1,0,1000,250.0,5,c33aw,423,test
992.9850101470947,1,5,3,0,2,4,E+,1,1,0,0,1000,250.0,1,c33aw,424,test
482.3789596557617,1,5,3,0,2,4,E+,1,3,2,0,1000,250.0,3,c33aw,425,test
448.9290714263916,1,5,3,0,2,4,E+,1,3,2,0,1000,250.0,3,c33aw,426,test
1025.0489711761475,1,5,3,0,2,4,E+,1,2,4,0,1000,250.0,2,c33aw,427,test
1600.6100177764893,1,5,3,0,2,4,E+,1,0,3,0,1000,250.0,0,c33aw,428,test
513.0541324615479,1,5,3,0,2,4,E+,1,0,3,0,1000,250.0,0,c33aw,429,test
753.0331611633301,1,5,3,0,2,4,E+,1,0,3,0,1000,250.0,0,c33aw,430,test
576.8930912017822,1,5,3,0,2,4,E+,1,5,1,0,1000,250.0,5,c33aw,431,test
704.5989036560059,1,5,3,0,2,4,E+,1,3,2,0,1000,250.0,3,c33aw,432,test
784.6469879150391,1,5,3,0,2,4,E+,1,3,2,0,1000,250.0,3,c33aw,433,test
577.1670341491699,1,5,3,0,2,4,E+,1,1,0,0,1000,250.0,1,c33aw,434,test
801.023006439209,1,5,3,0,2,4,E+,1,0,3,0,1000,250.0,0,c33aw,435,test
561.0730648040771,1,5,3,0,2,4,E+,1,3,2,0,1000,250.0,3,c33aw,436,test
1840.9860134124756,1,5,3,0,2,4,E+,1,0,3,0,1000,250.0,0,c33aw,437,test
673.0618476867676,1,5,3,0,2,4,E+,1,0,3,0,1000,250.0,0,c33aw,438,test
1569.0968036651611,1,5,3,0,2,4,E+,1,0,3,0,1000,250.0,0,c33aw,439,test
545.0499057769775,1,5,3,0,2,4,E+,1,3,2,0,1000,250.0,3,c33aw,440,test
545.0990200042725,1,5,3,0,2,4,E+,1,1,0,0,1000,250.0,1,c33aw,441,test
512.9199028015137,1,5,3,0,2,4,E+,1,5,1,0,1000,250.0,5,c33aw,442,test
497.04885482788086,1,5,3,0,2,4,E+,1,5,1,0,1000,250.0,5,c33aw,443,test
289.0889644622803,1,5,3,0,2,4,E+,0,4,5,0,1000,250.0,5,c33aw,444,test
561.0299110412598,1,5,3,0,2,4,E+,1,0,3,0,1000,250.0,0,c33aw,445,test
672.9581356048584,1,5,3,0,2,4,E+,1,3,2,0,1000,250.0,3,c33aw,446,test
704.7951221466064,1,5,3,0,2,4,E+,1,0,3,0,1000,250.0,0,c33aw,447,test
672.5330352783203,1,5,3,0,2,4,E+,1,2,4,0,1000,250.0,2,c33aw,448,test
3184.8440170288086,1,5,3,0,2,4,E+,1,4,5,0,1000,250.0,4,c33aw,449,test
576.8849849700928,1,5,3,0,2,4,E+,1,4,5,0,1000,250.0,4,c33aw,450,test
400.9130001068115,1,5,3,0,2,4,E+,1,4,5,0,1000,250.0,4,c33aw,451,test
544.990062713623,1,5,3,0,2,4,E+,1,3,2,0,1000,250.0,3,c33aw,452,test
544.9981689453125,1,5,3,0,2,4,E+,0,2,4,0,1000,250.0,3,c33aw,453,test
768.75901222229,1,5,3,0,2,4,E+,1,1,0,0,1000,250.0,1,c33aw,454,test
768.7420845031738,1,5,3,0,2,4,E+,1,1,0,0,1000,250.0,1,c33aw,455,test
608.4070205688477,1,5,3,0,2,4,E+,1,2,4,0,1000,250.0,2,c33aw,456,test
720.4420566558838,1,5,3,0,2,4,E+,1,4,5,0,1000,250.0,4,c33aw,457,test
913.0418300628662,1,5,3,0,2,4,E+,1,5,1,0,1000,250.0,5,c33aw,458,test
592.5390720367432,1,5,3,0,2,4,E+,1,0,3,0,1000,250.0,0,c33aw,459,test
976.1679172515869,1,5,3,0,2,4,E+,1,4,5,0,1000,250.0,4,c33aw,460,test
801.0680675506592,1,5,3,0,2,4,E+,1,1,0,0,1000,250.0,1,c33aw,461,test
430.5760860443115,1,5,3,0,2,4,E+,1,2,4,0,1000,250.0,2,c33aw,462,test
1344.9819087982178,1,5,3,0,2,4,E+,1,3,2,0,1000,250.0,3,c33aw,463,test
590.5439853668213,1,5,3,0,2,4,E+,1,3,2,0,1000,250.0,3,c33aw,464,test
657.0298671722412,1,5,3,0,2,4,E+,1,3,2,0,1000,250.0,3,c33aw,465,test
544.9559688568115,1,5,3,0,2,4,E+,1,0,3,0,1000,250.0,0,c33aw,466,test
609.050989151001,1,5,3,0,2,4,E+,1,0,3,0,1000,250.0,0,c33aw,467,test
1008.6679458618164,1,5,3,0,2,4,E+,1,0,3,0,1000,250.0,0,c33aw,468,test
656.7840576171875,1,5,3,0,2,4,E+,1,2,4,0,1000,250.0,2,c33aw,469,test
592.724084854126,1,5,3,0,2,4,E+,1,1,0,0,1000,250.0,1,c33aw,470,test
977.0469665527344,1,5,3,0,2,4,E+,1,1,0,0,1000,250.0,1,c33aw,471,test
560.9660148620605,1,5,3,0,2,4,E+,1,1,0,0,1000,250.0,1,c33aw,472,test
544.4741249084473,1,5,3,0,2,4,E+,1,2,4,0,1000,250.0,2,c33aw,473,test
592.8859710693359,1,5,3,0,2,4,E+,1,2,4,0,1000,250.0,2,c33aw,474,test
608.4139347076416,1,5,3,0,2,4,E+,1,0,3,0,1000,250.0,0,c33aw,475,test
368.3590888977051,1,5,3,0,2,4,E+,0,3,2,0,1000,250.0,2,c33aw,476,test
465.09408950805664,1,5,3,0,2,4,E+,1,3,2,0,1000,250.0,3,c33aw,477,test
1472.7709293365479,1,5,3,0,2,4,E+,1,2,4,0,1000,250.0,2,c33aw,478,test
752.6659965515137,1,5,3,0,2,4,E+,1,2,4,0,1000,250.0,2,c33aw,479,test
528.7790298461914,1,5,3,0,2,4,E+,1,1,0,0,1000,250.0,1,c33aw,480,test
912.9178524017334,1,5,3,0,2,4,E+,1,4,5,0,1000,250.0,4,c33aw,481,test
608.9620590209961,1,5,3,0,2,4,E+,1,0,3,0,1000,250.0,0,c33aw,482,test
560.8298778533936,1,5,3,0,2,4,E+,1,5,1,0,1000,250.0,5,c33aw,483,test
1808.6748123168945,1,5,3,0,2,4,E+,0,1,0,0,1000,250.0,2,c33aw,484,test
609.076976776123,1,5,3,0,2,4,E+,1,2,4,0,1000,250.0,2,c33aw,485,test
752.6838779449463,1,5,3,0,2,4,E+,1,2,4,0,1000,250.0,2,c33aw,486,test
640.9399509429932,1,5,3,0,2,4,E+,1,0,3,0,1000,250.0,0,c33aw,487,test
752.8030872344971,1,5,3,0,2,4,E+,1,0,3,0,1000,250.0,0,c33aw,488,test
576.7538547515869,1,5,3,0,2,4,E+,1,5,1,0,1000,250.0,5,c33aw,489,test
832.8688144683838,1,5,3,0,2,4,E+,1,2,4,0,1000,250.0,2,c33aw,490,test
512.6888751983643,1,5,3,0,2,4,E+,1,5,1,0,1000,250.0,5,c33aw,491,test
688.9889240264893,1,5,3,0,2,4,E+,1,1,0,0,1000,250.0,1,c33aw,492,test
544.7900295257568,1,5,3,0,2,4,E+,1,5,1,0,1000,250.0,5,c33aw,493,test
1312.9000663757324,1,5,3,0,2,4,E+,1,3,2,0,1000,250.0,3,c33aw,494,test
558.4301948547363,1,5,3,0,2,4,E+,1,5,1,0,1000,250.0,5,c33aw,495,test
480.6530475616455,1,5,3,0,2,4,E+,1,3,2,0,1000,250.0,3,c33aw,496,test
608.8869571685791,1,5,3,0,2,4,E+,1,4,5,0,1000,250.0,4,c33aw,497,test
560.9650611877441,1,5,3,0,2,4,E+,1,4,5,0,1000,250.0,4,c33aw,498,test
512.9978656768799,1,5,3,0,2,4,E+,1,3,2,0,1000,250.0,3,c33aw,499,test
