RT,SRmap_0,SRmap_1,SRmap_2,SRmap_3,SRmap_4,SRmap_5,condition,correct,correct_response,curstim,ms-precue,ms-prestimblank,ntrials,response,subject,trial,type
1774.2960453033447,1,2,4,5,3,0,E+,1,5,3,400,600,250.0,5,E17RM,0,train
4687.422037124634,1,2,4,5,3,0,E+,1,4,2,400,600,250.0,4,E17RM,1,train
2591.1929607391357,1,2,4,5,3,0,E+,1,5,3,400,600,250.0,5,E17RM,2,train
1615.2877807617188,1,2,4,5,3,0,E+,1,2,1,400,600,250.0,2,E17RM,3,train
719.1939353942871,1,2,4,5,3,0,E+,1,1,0,400,600,250.0,1,E17RM,4,train
1135.8709335327148,1,2,4,5,3,0,E+,1,2,1,400,600,250.0,2,E17RM,5,train
511.7039680480957,1,2,4,5,3,0,E+,1,1,0,400,600,250.0,1,E17RM,6,train
847.8350639343262,1,2,4,5,3,0,E+,1,5,3,400,600,250.0,5,E17RM,7,train
847.844123840332,1,2,4,5,3,0,E+,1,1,0,400,600,250.0,1,E17RM,8,train
719.7878360748291,1,2,4,5,3,0,E+,1,3,4,400,600,250.0,3,E17RM,9,train
351.8400192260742,1,2,4,5,3,0,E+,1,5,3,400,600,250.0,5,E17RM,10,train
559.8008632659912,1,2,4,5,3,0,E+,1,1,0,400,600,250.0,1,E17RM,11,train
735.7609272003174,1,2,4,5,3,0,E+,1,3,4,400,600,250.0,3,E17RM,12,train
511.8739604949951,1,2,4,5,3,0,E+,1,3,4,400,600,250.0,3,E17RM,13,train
671.7162132263184,1,2,4,5,3,0,E+,1,0,5,400,600,250.0,0,E17RM,14,train
542.2978401184082,1,2,4,5,3,0,E+,1,3,4,400,600,250.0,3,E17RM,15,train
703.7861347198486,1,2,4,5,3,0,E+,1,0,5,400,600,250.0,0,E17RM,16,train
1055.8090209960938,1,2,4,5,3,0,E+,1,3,4,400,600,250.0,3,E17RM,17,train
1455.8019638061523,1,2,4,5,3,0,E+,0,2,1,400,600,250.0,1,E17RM,18,train
479.77185249328613,1,2,4,5,3,0,E+,1,3,4,400,600,250.0,3,E17RM,19,train
463.76800537109375,1,2,4,5,3,0,E+,1,0,5,400,600,250.0,0,E17RM,20,train
367.76208877563477,1,2,4,5,3,0,E+,1,5,3,400,600,250.0,5,E17RM,21,train
1839.7941589355469,1,2,4,5,3,0,E+,1,2,1,400,600,250.0,2,E17RM,22,train
815.3150081634521,1,2,4,5,3,0,E+,1,3,4,400,600,250.0,3,E17RM,23,train
1055.3410053253174,1,2,4,5,3,0,E+,1,4,2,400,600,250.0,4,E17RM,24,train
1071.608066558838,1,2,4,5,3,0,E+,1,2,1,400,600,250.0,2,E17RM,25,train
991.4159774780273,1,2,4,5,3,0,E+,1,5,3,400,600,250.0,5,E17RM,26,train
543.3368682861328,1,2,4,5,3,0,E+,1,5,3,400,600,250.0,5,E17RM,27,train
511.31296157836914,1,2,4,5,3,0,E+,1,0,5,400,600,250.0,0,E17RM,28,train
1071.3179111480713,1,2,4,5,3,0,E+,1,1,0,400,600,250.0,1,E17RM,29,train
1119.143009185791,1,2,4,5,3,0,E+,1,4,2,400,600,250.0,4,E17RM,30,train
447.2830295562744,1,2,4,5,3,0,E+,1,4,2,400,600,250.0,4,E17RM,31,train
239.25185203552246,1,2,4,5,3,0,E+,1,4,2,400,600,250.0,4,E17RM,32,train
399.2581367492676,1,2,4,5,3,0,E+,1,0,5,400,600,250.0,0,E17RM,33,train
159.25979614257812,1,2,4,5,3,0,E+,1,0,5,400,600,250.0,0,E17RM,34,train
943.3481693267822,1,2,4,5,3,0,E+,1,2,1,400,600,250.0,2,E17RM,35,train
1263.2551193237305,1,2,4,5,3,0,E+,1,4,2,400,600,250.0,4,E17RM,36,train
334.78307723999023,1,2,4,5,3,0,E+,1,5,3,400,600,250.0,5,E17RM,37,train
735.3928089141846,1,2,4,5,3,0,E+,1,3,4,400,600,250.0,3,E17RM,38,train
495.3150749206543,1,2,4,5,3,0,E+,1,4,2,400,600,250.0,4,E17RM,39,train
239.24493789672852,1,2,4,5,3,0,E+,1,3,4,400,600,250.0,3,E17RM,40,train
143.18394660949707,1,2,4,5,3,0,E+,1,3,4,400,600,250.0,3,E17RM,41,train
159.21521186828613,1,2,4,5,3,0,E+,1,3,4,400,600,250.0,3,E17RM,42,train
399.28293228149414,1,2,4,5,3,0,E+,1,0,5,400,600,250.0,0,E17RM,43,train
1023.6480236053467,1,2,4,5,3,0,E+,1,4,2,400,600,250.0,4,E17RM,44,train
255.18393516540527,1,2,4,5,3,0,E+,1,4,2,400,600,250.0,4,E17RM,45,train
735.3730201721191,1,2,4,5,3,0,E+,1,4,2,400,600,250.0,4,E17RM,46,train
239.3209934234619,1,2,4,5,3,0,E+,1,0,5,400,600,250.0,0,E17RM,47,train
559.54909324646,1,2,4,5,3,0,E+,1,4,2,400,600,250.0,4,E17RM,48,train
447.18098640441895,1,2,4,5,3,0,E+,1,1,0,400,600,250.0,1,E17RM,49,train
335.4170322418213,1,2,4,5,3,0,E+,1,5,3,400,600,250.0,5,E17RM,50,train
463.3679389953613,1,2,4,5,3,0,E+,1,5,3,400,600,250.0,5,E17RM,51,train
1727.3550033569336,1,2,4,5,3,0,E+,1,3,4,400,600,250.0,3,E17RM,52,train
399.616003036499,1,2,4,5,3,0,E+,1,1,0,400,600,250.0,1,E17RM,53,train
799.3671894073486,1,2,4,5,3,0,E+,1,2,1,400,600,250.0,2,E17RM,54,train
415.29011726379395,1,2,4,5,3,0,E+,1,2,1,400,600,250.0,2,E17RM,55,train
111.53697967529297,1,2,4,5,3,0,E+,1,0,5,400,600,250.0,0,E17RM,56,train
575.2298831939697,1,2,4,5,3,0,E+,1,4,2,400,600,250.0,4,E17RM,57,train
511.2340450286865,1,2,4,5,3,0,E+,1,1,0,400,600,250.0,1,E17RM,58,train
703.2790184020996,1,2,4,5,3,0,E+,1,5,3,400,600,250.0,5,E17RM,59,train
255.18298149108887,1,2,4,5,3,0,E+,0,1,0,400,600,250.0,0,E17RM,60,train
415.3749942779541,1,2,4,5,3,0,E+,1,2,1,400,600,250.0,2,E17RM,61,train
351.16100311279297,1,2,4,5,3,0,E+,1,2,1,400,600,250.0,2,E17RM,62,train
383.530855178833,1,2,4,5,3,0,E+,1,5,3,400,600,250.0,5,E17RM,63,train
207.20410346984863,1,2,4,5,3,0,E+,1,0,5,400,600,250.0,0,E17RM,64,train
399.2280960083008,1,2,4,5,3,0,E+,1,4,2,400,600,250.0,4,E17RM,65,train
255.8600902557373,1,2,4,5,3,0,E+,1,4,2,400,600,250.0,4,E17RM,66,train
175.17685890197754,1,2,4,5,3,0,E+,1,0,5,400,600,250.0,0,E17RM,67,train
95.02601623535156,1,2,4,5,3,0,E+,1,0,5,400,600,250.0,0,E17RM,68,train
303.2341003417969,1,2,4,5,3,0,E+,1,4,2,400,600,250.0,4,E17RM,69,train
495.0268268585205,1,2,4,5,3,0,E+,1,2,1,400,600,250.0,2,E17RM,70,train
351.2389659881592,1,2,4,5,3,0,E+,1,1,0,400,600,250.0,1,E17RM,71,train
303.24697494506836,1,2,4,5,3,0,E+,1,2,1,400,600,250.0,2,E17RM,72,train
223.2041358947754,1,2,4,5,3,0,E+,1,2,1,400,600,250.0,2,E17RM,73,train
111.23800277709961,1,2,4,5,3,0,E+,1,2,1,400,600,250.0,2,E17RM,74,train
383.2368850708008,1,2,4,5,3,0,E+,1,1,0,400,600,250.0,1,E17RM,75,train
207.1700096130371,1,2,4,5,3,0,E+,1,0,5,400,600,250.0,0,E17RM,76,train
63.35186958312988,1,2,4,5,3,0,E+,1,0,5,400,600,250.0,0,E17RM,77,train
223.2949733734131,1,2,4,5,3,0,E+,1,4,2,400,600,250.0,4,E17RM,78,train
79.37908172607422,1,2,4,5,3,0,E+,1,4,2,400,600,250.0,4,E17RM,79,train
175.28295516967773,1,2,4,5,3,0,E+,1,3,4,400,600,250.0,3,E17RM,80,train
191.57099723815918,1,2,4,5,3,0,E+,1,3,4,400,600,250.0,3,E17RM,81,train
63.3389949798584,1,2,4,5,3,0,E+,1,3,4,400,600,250.0,3,E17RM,82,train
399.23977851867676,1,2,4,5,3,0,E+,1,2,1,400,600,250.0,2,E17RM,83,train
191.24317169189453,1,2,4,5,3,0,E+,1,3,4,400,600,250.0,3,E17RM,84,train
319.15903091430664,1,2,4,5,3,0,E+,1,5,3,400,600,250.0,5,E17RM,85,train
431.2570095062256,1,2,4,5,3,0,E+,1,3,4,400,600,250.0,3,E17RM,86,train
223.2198715209961,1,2,4,5,3,0,E+,1,5,3,400,600,250.0,5,E17RM,87,train
239.29095268249512,1,2,4,5,3,0,E+,1,0,5,400,600,250.0,0,E17RM,88,train
1231.30202293396,1,2,4,5,3,0,E+,1,3,4,400,600,250.0,3,E17RM,89,train
223.36506843566895,1,2,4,5,3,0,E+,1,0,5,400,600,250.0,0,E17RM,90,train
191.26200675964355,1,2,4,5,3,0,E+,1,0,5,400,600,250.0,0,E17RM,91,train
191.2670135498047,1,2,4,5,3,0,E+,1,3,4,400,600,250.0,3,E17RM,92,train
223.27089309692383,1,2,4,5,3,0,E+,1,0,5,400,600,250.0,0,E17RM,93,train
191.27202033996582,1,2,4,5,3,0,E+,1,0,5,400,600,250.0,0,E17RM,94,train
143.2349681854248,1,2,4,5,3,0,E+,1,0,5,400,600,250.0,0,E17RM,95,train
175.27008056640625,1,2,4,5,3,0,E+,1,1,0,400,600,250.0,1,E17RM,96,train
63.287973403930664,1,2,4,5,3,0,E+,1,1,0,400,600,250.0,1,E17RM,97,train
303.23219299316406,1,2,4,5,3,0,E+,1,2,1,400,600,250.0,2,E17RM,98,train
463.31787109375,1,2,4,5,3,0,E+,1,1,0,400,600,250.0,1,E17RM,99,train
158.97202491760254,1,2,4,5,3,0,E+,1,1,0,400,600,250.0,1,E17RM,100,train
111.25397682189941,1,2,4,5,3,0,E+,1,0,5,400,600,250.0,0,E17RM,101,train
207.23509788513184,1,2,4,5,3,0,E+,0,3,4,400,600,250.0,2,E17RM,102,train
719.2890644073486,1,2,4,5,3,0,E+,1,1,0,400,600,250.0,1,E17RM,103,train
319.3228244781494,1,2,4,5,3,0,E+,1,1,0,400,600,250.0,1,E17RM,104,train
271.54994010925293,1,2,4,5,3,0,E+,1,5,3,400,600,250.0,5,E17RM,105,train
79.3149471282959,1,2,4,5,3,0,E+,1,4,2,400,600,250.0,4,E17RM,106,train
191.52283668518066,1,2,4,5,3,0,E+,1,3,4,400,600,250.0,3,E17RM,107,train
47.30415344238281,1,2,4,5,3,0,E+,1,4,2,400,600,250.0,4,E17RM,108,train
79.6670913696289,1,2,4,5,3,0,E+,1,3,4,400,600,250.0,3,E17RM,109,train
175.20880699157715,1,2,4,5,3,0,E+,1,5,3,400,600,250.0,5,E17RM,110,train
383.2108974456787,1,2,4,5,3,0,E+,1,0,5,400,600,250.0,0,E17RM,111,train
431.3530921936035,1,2,4,5,3,0,E+,1,3,4,400,600,250.0,3,E17RM,112,train
303.65800857543945,1,2,4,5,3,0,E+,1,4,2,400,600,250.0,4,E17RM,113,train
383.2390308380127,1,2,4,5,3,0,E+,1,1,0,400,600,250.0,1,E17RM,114,train
271.61192893981934,1,2,4,5,3,0,E+,1,3,4,400,600,250.0,3,E17RM,115,train
159.32917594909668,1,2,4,5,3,0,E+,1,0,5,400,600,250.0,0,E17RM,116,train
127.51984596252441,1,2,4,5,3,0,E+,1,1,0,400,600,250.0,1,E17RM,117,train
959.2549800872803,1,2,4,5,3,0,E+,1,4,2,400,600,250.0,4,E17RM,118,train
767.3549652099609,1,2,4,5,3,0,E+,1,4,2,400,600,250.0,4,E17RM,119,train
335.50310134887695,1,2,4,5,3,0,E+,1,5,3,400,600,250.0,5,E17RM,120,train
463.4711742401123,1,2,4,5,3,0,E+,1,0,5,400,600,250.0,0,E17RM,121,train
1775.2580642700195,1,2,4,5,3,0,E+,1,0,5,400,600,250.0,0,E17RM,122,train
303.3180236816406,1,2,4,5,3,0,E+,1,1,0,400,600,250.0,1,E17RM,123,train
671.4949607849121,1,2,4,5,3,0,E+,1,2,1,400,600,250.0,2,E17RM,124,train
255.9070587158203,1,2,4,5,3,0,E+,1,1,0,400,600,250.0,1,E17RM,125,train
191.7250156402588,1,2,4,5,3,0,E+,1,5,3,400,600,250.0,5,E17RM,126,train
703.7601470947266,1,2,4,5,3,0,E+,1,1,0,400,600,250.0,1,E17RM,127,train
559.7529411315918,1,2,4,5,3,0,E+,1,0,5,400,600,250.0,0,E17RM,128,train
655.432939529419,1,2,4,5,3,0,E+,1,4,2,400,600,250.0,4,E17RM,129,train
735.7199192047119,1,2,4,5,3,0,E+,1,4,2,400,600,250.0,4,E17RM,130,train
399.8560905456543,1,2,4,5,3,0,E+,1,4,2,400,600,250.0,4,E17RM,131,train
399.9619483947754,1,2,4,5,3,0,E+,1,1,0,400,600,250.0,1,E17RM,132,train
607.5642108917236,1,2,4,5,3,0,E+,1,4,2,400,600,250.0,4,E17RM,133,train
191.81108474731445,1,2,4,5,3,0,E+,1,4,2,400,600,250.0,4,E17RM,134,train
175.79197883605957,1,2,4,5,3,0,E+,1,5,3,400,600,250.0,5,E17RM,135,train
351.63187980651855,1,2,4,5,3,0,E+,1,2,1,400,600,250.0,2,E17RM,136,train
783.7989330291748,1,2,4,5,3,0,E+,1,4,2,400,600,250.0,4,E17RM,137,train
255.8891773223877,1,2,4,5,3,0,E+,0,3,4,400,600,250.0,2,E17RM,138,train
639.8310661315918,1,2,4,5,3,0,E+,1,2,1,400,600,250.0,2,E17RM,139,train
527.8029441833496,1,2,4,5,3,0,E+,0,4,2,400,600,250.0,3,E17RM,140,train
543.9691543579102,1,2,4,5,3,0,E+,1,4,2,400,600,250.0,4,E17RM,141,train
415.7400131225586,1,2,4,5,3,0,E+,1,1,0,400,600,250.0,1,E17RM,142,train
175.89688301086426,1,2,4,5,3,0,E+,1,0,5,400,600,250.0,0,E17RM,143,train
303.78198623657227,1,2,4,5,3,0,E+,1,1,0,400,600,250.0,1,E17RM,144,train
207.841157913208,1,2,4,5,3,0,E+,1,0,5,400,600,250.0,0,E17RM,145,train
943.9611434936523,1,2,4,5,3,0,E+,1,4,2,400,600,250.0,4,E17RM,146,train
575.7899284362793,1,2,4,5,3,0,E+,1,1,0,400,600,250.0,1,E17RM,147,train
383.79693031311035,1,2,4,5,3,0,E+,1,0,5,400,600,250.0,0,E17RM,148,train
671.9121932983398,1,2,4,5,3,0,E+,1,5,3,400,600,250.0,5,E17RM,149,train
239.71295356750488,1,2,4,5,3,0,E+,1,0,5,400,600,250.0,0,E17RM,150,train
447.80993461608887,1,2,4,5,3,0,E+,1,2,1,400,600,250.0,2,E17RM,151,train
223.43707084655762,1,2,4,5,3,0,E+,1,5,3,400,600,250.0,5,E17RM,152,train
127.83408164978027,1,2,4,5,3,0,E+,1,3,4,400,600,250.0,3,E17RM,153,train
111.81282997131348,1,2,4,5,3,0,E+,1,3,4,400,600,250.0,3,E17RM,154,train
239.78900909423828,1,2,4,5,3,0,E+,1,1,0,400,600,250.0,1,E17RM,155,train
111.7088794708252,1,2,4,5,3,0,E+,1,0,5,400,600,250.0,0,E17RM,156,train
143.33796501159668,1,2,4,5,3,0,E+,1,1,0,400,600,250.0,1,E17RM,157,train
399.2021083831787,1,2,4,5,3,0,E+,1,4,2,400,600,250.0,4,E17RM,158,train
303.1630516052246,1,2,4,5,3,0,E+,1,0,5,400,600,250.0,0,E17RM,159,train
303.2050132751465,1,2,4,5,3,0,E+,1,5,3,400,600,250.0,5,E17RM,160,train
831.7561149597168,1,2,4,5,3,0,E+,1,2,1,400,600,250.0,2,E17RM,161,train
191.270112991333,1,2,4,5,3,0,E+,1,5,3,400,600,250.0,5,E17RM,162,train
223.33407402038574,1,2,4,5,3,0,E+,1,5,3,400,600,250.0,5,E17RM,163,train
239.31503295898438,1,2,4,5,3,0,E+,1,4,2,400,600,250.0,4,E17RM,164,train
383.32486152648926,1,2,4,5,3,0,E+,1,4,2,400,600,250.0,4,E17RM,165,train
543.4021949768066,1,2,4,5,3,0,E+,0,3,4,400,600,250.0,2,E17RM,166,train
239.42089080810547,1,2,4,5,3,0,E+,1,0,5,400,600,250.0,0,E17RM,167,train
431.3971996307373,1,2,4,5,3,0,E+,1,5,3,400,600,250.0,5,E17RM,168,train
383.2840919494629,1,2,4,5,3,0,E+,1,0,5,400,600,250.0,0,E17RM,169,train
223.1600284576416,1,2,4,5,3,0,E+,1,1,0,400,600,250.0,1,E17RM,170,train
223.24204444885254,1,2,4,5,3,0,E+,1,5,3,400,600,250.0,5,E17RM,171,train
319.2920684814453,1,2,4,5,3,0,E+,1,2,1,400,600,250.0,2,E17RM,172,train
511.2800598144531,1,2,4,5,3,0,E+,1,3,4,400,600,250.0,3,E17RM,173,train
319.227933883667,1,2,4,5,3,0,E+,1,4,2,400,600,250.0,4,E17RM,174,train
303.26199531555176,1,2,4,5,3,0,E+,1,1,0,400,600,250.0,1,E17RM,175,train
399.3048667907715,1,2,4,5,3,0,E+,1,5,3,400,600,250.0,5,E17RM,176,train
527.3690223693848,1,2,4,5,3,0,E+,1,1,0,400,600,250.0,1,E17RM,177,train
415.3599739074707,1,2,4,5,3,0,E+,1,1,0,400,600,250.0,1,E17RM,178,train
1663.356065750122,1,2,4,5,3,0,E+,1,3,4,400,600,250.0,3,E17RM,179,train
223.24609756469727,1,2,4,5,3,0,E+,1,5,3,400,600,250.0,5,E17RM,180,train
367.20800399780273,1,2,4,5,3,0,E+,1,1,0,400,600,250.0,1,E17RM,181,train
447.42584228515625,1,2,4,5,3,0,E+,1,3,4,400,600,250.0,3,E17RM,182,train
559.2801570892334,1,2,4,5,3,0,E+,1,4,2,400,600,250.0,4,E17RM,183,train
319.29802894592285,1,2,4,5,3,0,E+,1,1,0,400,600,250.0,1,E17RM,184,train
159.34109687805176,1,2,4,5,3,0,E+,1,1,0,400,600,250.0,1,E17RM,185,train
239.21799659729004,1,2,4,5,3,0,E+,1,1,0,400,600,250.0,1,E17RM,186,train
255.17892837524414,1,2,4,5,3,0,E+,1,5,3,400,600,250.0,5,E17RM,187,train
383.3038806915283,1,2,4,5,3,0,E+,1,3,4,400,600,250.0,3,E17RM,188,train
255.5859088897705,1,2,4,5,3,0,E+,1,5,3,400,600,250.0,5,E17RM,189,train
367.9659366607666,1,2,4,5,3,0,E+,1,5,3,400,600,250.0,5,E17RM,190,train
287.5959873199463,1,2,4,5,3,0,E+,1,0,5,400,600,250.0,0,E17RM,191,train
319.80395317077637,1,2,4,5,3,0,E+,1,5,3,400,600,250.0,5,E17RM,192,train
303.9059638977051,1,2,4,5,3,0,E+,1,0,5,400,600,250.0,0,E17RM,193,train
415.9870147705078,1,2,4,5,3,0,E+,1,3,4,400,600,250.0,3,E17RM,194,train
303.86900901794434,1,2,4,5,3,0,E+,1,0,5,400,600,250.0,0,E17RM,195,train
191.47396087646484,1,2,4,5,3,0,E+,1,5,3,400,600,250.0,5,E17RM,196,train
287.78791427612305,1,2,4,5,3,0,E+,1,3,4,400,600,250.0,3,E17RM,197,train
207.76796340942383,1,2,4,5,3,0,E+,1,0,5,400,600,250.0,0,E17RM,198,train
271.38781547546387,1,2,4,5,3,0,E+,1,3,4,400,600,250.0,3,E17RM,199,train
783.9500904083252,1,2,4,5,3,0,E+,1,2,1,400,600,250.0,2,E17RM,200,train
271.8338966369629,1,2,4,5,3,0,E+,1,1,0,400,600,250.0,1,E17RM,201,train
303.91502380371094,1,2,4,5,3,0,E+,1,2,1,400,600,250.0,2,E17RM,202,train
495.6519603729248,1,2,4,5,3,0,E+,0,4,2,400,600,250.0,3,E17RM,203,train
287.9328727722168,1,2,4,5,3,0,E+,1,5,3,400,600,250.0,5,E17RM,204,train
335.89792251586914,1,2,4,5,3,0,E+,1,5,3,400,600,250.0,5,E17RM,205,train
511.4400386810303,1,2,4,5,3,0,E+,1,2,1,400,600,250.0,2,E17RM,206,train
303.71904373168945,1,2,4,5,3,0,E+,1,1,0,400,600,250.0,1,E17RM,207,train
191.80989265441895,1,2,4,5,3,0,E+,1,1,0,400,600,250.0,1,E17RM,208,train
415.7569408416748,1,2,4,5,3,0,E+,1,1,0,400,600,250.0,1,E17RM,209,train
143.9211368560791,1,2,4,5,3,0,E+,1,0,5,400,600,250.0,0,E17RM,210,train
239.7770881652832,1,2,4,5,3,0,E+,1,3,4,400,600,250.0,3,E17RM,211,train
303.76482009887695,1,2,4,5,3,0,E+,1,2,1,400,600,250.0,2,E17RM,212,train
175.7209300994873,1,2,4,5,3,0,E+,1,0,5,400,600,250.0,0,E17RM,213,train
223.71792793273926,1,2,4,5,3,0,E+,1,2,1,400,600,250.0,2,E17RM,214,train
159.7888469696045,1,2,4,5,3,0,E+,1,0,5,400,600,250.0,0,E17RM,215,train
207.7019214630127,1,2,4,5,3,0,E+,0,4,2,400,600,250.0,3,E17RM,216,train
1343.4388637542725,1,2,4,5,3,0,E+,1,4,2,400,600,250.0,4,E17RM,217,train
303.7109375,1,2,4,5,3,0,E+,1,5,3,400,600,250.0,5,E17RM,218,train
1215.7790660858154,1,2,4,5,3,0,E+,1,2,1,400,600,250.0,2,E17RM,219,train
383.81218910217285,1,2,4,5,3,0,E+,1,4,2,400,600,250.0,4,E17RM,220,train
31.920909881591797,1,2,4,5,3,0,E+,1,4,2,400,600,250.0,4,E17RM,221,train
527.2269248962402,1,2,4,5,3,0,E+,1,1,0,400,600,250.0,1,E17RM,222,train
335.4010581970215,1,2,4,5,3,0,E+,1,2,1,400,600,250.0,2,E17RM,223,train
527.2619724273682,1,2,4,5,3,0,E+,1,1,0,400,600,250.0,1,E17RM,224,train
366.7318820953369,1,2,4,5,3,0,E+,1,4,2,400,600,250.0,4,E17RM,225,train
479.97307777404785,1,2,4,5,3,0,E+,1,4,2,400,600,250.0,4,E17RM,226,train
351.40395164489746,1,2,4,5,3,0,E+,0,1,0,400,600,250.0,0,E17RM,227,train
879.4419765472412,1,2,4,5,3,0,E+,1,4,2,400,600,250.0,4,E17RM,228,train
527.379035949707,1,2,4,5,3,0,E+,1,2,1,400,600,250.0,2,E17RM,229,train
1887.3639106750488,1,2,4,5,3,0,E+,1,2,1,400,600,250.0,2,E17RM,230,train
367.34485626220703,1,2,4,5,3,0,E+,1,5,3,400,600,250.0,5,E17RM,231,train
527.3211002349854,1,2,4,5,3,0,E+,1,2,1,400,600,250.0,2,E17RM,232,train
447.37792015075684,1,2,4,5,3,0,E+,1,2,1,400,600,250.0,2,E17RM,233,train
0.052928924560546875,1,2,4,5,3,0,E+,1,2,1,400,600,250.0,2,E17RM,234,train
511.33084297180176,1,2,4,5,3,0,E+,1,4,2,400,600,250.0,4,E17RM,235,train
63.340187072753906,1,2,4,5,3,0,E+,1,4,2,400,600,250.0,4,E17RM,236,train
127.29406356811523,1,2,4,5,3,0,E+,1,4,2,400,600,250.0,4,E17RM,237,train
351.26304626464844,1,2,4,5,3,0,E+,1,1,0,400,600,250.0,1,E17RM,238,train
1359.2519760131836,1,2,4,5,3,0,E+,1,3,4,400,600,250.0,3,E17RM,239,train
271.2209224700928,1,2,4,5,3,0,E+,1,4,2,400,600,250.0,4,E17RM,240,train
175.06790161132812,1,2,4,5,3,0,E+,1,5,3,400,600,250.0,5,E17RM,241,train
175.19402503967285,1,2,4,5,3,0,E+,1,5,3,400,600,250.0,5,E17RM,242,train
447.3581314086914,1,2,4,5,3,0,E+,1,3,4,400,600,250.0,3,E17RM,243,train
351.40419006347656,1,2,4,5,3,0,E+,1,2,1,400,600,250.0,2,E17RM,244,train
271.3940143585205,1,2,4,5,3,0,E+,1,4,2,400,600,250.0,4,E17RM,245,train
527.1310806274414,1,2,4,5,3,0,E+,1,4,2,400,600,250.0,4,E17RM,246,train
511.57402992248535,1,2,4,5,3,0,E+,1,2,1,400,600,250.0,2,E17RM,247,train
431.2129020690918,1,2,4,5,3,0,E+,1,2,1,400,600,250.0,2,E17RM,248,train
175.25410652160645,1,2,4,5,3,0,E+,1,2,1,400,600,250.0,2,E17RM,249,train
6096.575975418091,1,2,4,5,3,0,E+,1,1,0,0,1000,250.0,1,E17RM,250,test
4576.527118682861,1,2,4,5,3,0,E+,1,2,1,0,1000,250.0,2,E17RM,251,test
6624.490976333618,1,2,4,5,3,0,E+,1,1,0,0,1000,250.0,1,E17RM,252,test
4112.606048583984,1,2,4,5,3,0,E+,1,3,4,0,1000,250.0,3,E17RM,253,test
704.5738697052002,1,2,4,5,3,0,E+,1,3,4,0,1000,250.0,3,E17RM,254,test
2400.6240367889404,1,2,4,5,3,0,E+,1,2,1,0,1000,250.0,2,E17RM,255,test
1104.5801639556885,1,2,4,5,3,0,E+,1,3,4,0,1000,250.0,3,E17RM,256,test
1552.7069568634033,1,2,4,5,3,0,E+,1,0,5,0,1000,250.0,0,E17RM,257,test
704.7021389007568,1,2,4,5,3,0,E+,1,0,5,0,1000,250.0,0,E17RM,258,test
4144.989013671875,1,2,4,5,3,0,E+,1,4,2,0,1000,250.0,4,E17RM,259,test
2448.5201835632324,1,2,4,5,3,0,E+,1,5,3,0,1000,250.0,5,E17RM,260,test
2016.5958404541016,1,2,4,5,3,0,E+,0,2,1,0,1000,250.0,1,E17RM,261,test
1152.8329849243164,1,2,4,5,3,0,E+,1,3,4,0,1000,250.0,3,E17RM,262,test
944.6089267730713,1,2,4,5,3,0,E+,1,5,3,0,1000,250.0,5,E17RM,263,test
2320.528984069824,1,2,4,5,3,0,E+,1,3,4,0,1000,250.0,3,E17RM,264,test
880.6819915771484,1,2,4,5,3,0,E+,1,3,4,0,1000,250.0,3,E17RM,265,test
1136.6310119628906,1,2,4,5,3,0,E+,1,5,3,0,1000,250.0,5,E17RM,266,test
832.5309753417969,1,2,4,5,3,0,E+,1,5,3,0,1000,250.0,5,E17RM,267,test
3584.439992904663,1,2,4,5,3,0,E+,1,1,0,0,1000,250.0,1,E17RM,268,test
1152.7750492095947,1,2,4,5,3,0,E+,1,0,5,0,1000,250.0,0,E17RM,269,test
784.4910621643066,1,2,4,5,3,0,E+,1,5,3,0,1000,250.0,5,E17RM,270,test
1344.552993774414,1,2,4,5,3,0,E+,1,0,5,0,1000,250.0,0,E17RM,271,test
1776.5908241271973,1,2,4,5,3,0,E+,1,2,1,0,1000,250.0,2,E17RM,272,test
1552.5739192962646,1,2,4,5,3,0,E+,1,5,3,0,1000,250.0,5,E17RM,273,test
736.475944519043,1,2,4,5,3,0,E+,1,5,3,0,1000,250.0,5,E17RM,274,test
944.5970058441162,1,2,4,5,3,0,E+,1,4,2,0,1000,250.0,4,E17RM,275,test
992.5498962402344,1,2,4,5,3,0,E+,1,0,5,0,1000,250.0,0,E17RM,276,test
1312.6349449157715,1,2,4,5,3,0,E+,1,1,0,0,1000,250.0,1,E17RM,277,test
688.5950565338135,1,2,4,5,3,0,E+,1,1,0,0,1000,250.0,1,E17RM,278,test
1232.5921058654785,1,2,4,5,3,0,E+,1,2,1,0,1000,250.0,2,E17RM,279,test
992.5811290740967,1,2,4,5,3,0,E+,1,1,0,0,1000,250.0,1,E17RM,280,test
800.706148147583,1,2,4,5,3,0,E+,1,1,0,0,1000,250.0,1,E17RM,281,test
736.555814743042,1,2,4,5,3,0,E+,1,5,3,0,1000,250.0,5,E17RM,282,test
1536.4201068878174,1,2,4,5,3,0,E+,1,0,5,0,1000,250.0,0,E17RM,283,test
1008.6259841918945,1,2,4,5,3,0,E+,1,4,2,0,1000,250.0,4,E17RM,284,test
640.5510902404785,1,2,4,5,3,0,E+,1,5,3,0,1000,250.0,5,E17RM,285,test
976.5801429748535,1,2,4,5,3,0,E+,1,3,4,0,1000,250.0,3,E17RM,286,test
928.5781383514404,1,2,4,5,3,0,E+,1,2,1,0,1000,250.0,2,E17RM,287,test
1520.5340385437012,1,2,4,5,3,0,E+,1,5,3,0,1000,250.0,5,E17RM,288,test
768.5849666595459,1,2,4,5,3,0,E+,1,4,2,0,1000,250.0,4,E17RM,289,test
880.5129528045654,1,2,4,5,3,0,E+,1,2,1,0,1000,250.0,2,E17RM,290,test
960.5817794799805,1,2,4,5,3,0,E+,1,5,3,0,1000,250.0,5,E17RM,291,test
1024.519920349121,1,2,4,5,3,0,E+,1,3,4,0,1000,250.0,3,E17RM,292,test
720.5729484558105,1,2,4,5,3,0,E+,1,4,2,0,1000,250.0,4,E17RM,293,test
1360.4729175567627,1,2,4,5,3,0,E+,1,1,0,0,1000,250.0,1,E17RM,294,test
784.5840454101562,1,2,4,5,3,0,E+,1,3,4,0,1000,250.0,3,E17RM,295,test
992.588996887207,1,2,4,5,3,0,E+,1,3,4,0,1000,250.0,3,E17RM,296,test
672.4910736083984,1,2,4,5,3,0,E+,1,5,3,0,1000,250.0,5,E17RM,297,test
960.5369567871094,1,2,4,5,3,0,E+,1,0,5,0,1000,250.0,0,E17RM,298,test
1600.5759239196777,1,2,4,5,3,0,E+,1,1,0,0,1000,250.0,1,E17RM,299,test
752.6769638061523,1,2,4,5,3,0,E+,1,0,5,0,1000,250.0,0,E17RM,300,test
704.6630382537842,1,2,4,5,3,0,E+,1,4,2,0,1000,250.0,4,E17RM,301,test
768.5840129852295,1,2,4,5,3,0,E+,1,0,5,0,1000,250.0,0,E17RM,302,test
1024.6620178222656,1,2,4,5,3,0,E+,1,2,1,0,1000,250.0,2,E17RM,303,test
800.4970550537109,1,2,4,5,3,0,E+,1,3,4,0,1000,250.0,3,E17RM,304,test
1008.5818767547607,1,2,4,5,3,0,E+,1,5,3,0,1000,250.0,5,E17RM,305,test
896.5389728546143,1,2,4,5,3,0,E+,1,1,0,0,1000,250.0,1,E17RM,306,test
880.5620670318604,1,2,4,5,3,0,E+,1,5,3,0,1000,250.0,5,E17RM,307,test
784.5120429992676,1,2,4,5,3,0,E+,1,5,3,0,1000,250.0,5,E17RM,308,test
768.51487159729,1,2,4,5,3,0,E+,1,4,2,0,1000,250.0,4,E17RM,309,test
800.0600337982178,1,2,4,5,3,0,E+,1,0,5,0,1000,250.0,0,E17RM,310,test
768.9969539642334,1,2,4,5,3,0,E+,1,0,5,0,1000,250.0,0,E17RM,311,test
848.8988876342773,1,2,4,5,3,0,E+,1,2,1,0,1000,250.0,2,E17RM,312,test
576.880931854248,1,2,4,5,3,0,E+,1,4,2,0,1000,250.0,4,E17RM,313,test
864.997148513794,1,2,4,5,3,0,E+,1,3,4,0,1000,250.0,3,E17RM,314,test
608.936071395874,1,2,4,5,3,0,E+,1,3,4,0,1000,250.0,3,E17RM,315,test
881.0060024261475,1,2,4,5,3,0,E+,1,1,0,0,1000,250.0,1,E17RM,316,test
784.9540710449219,1,2,4,5,3,0,E+,1,3,4,0,1000,250.0,3,E17RM,317,test
689.0788078308105,1,2,4,5,3,0,E+,1,3,4,0,1000,250.0,3,E17RM,318,test
817.0299530029297,1,2,4,5,3,0,E+,1,0,5,0,1000,250.0,0,E17RM,319,test
769.0379619598389,1,2,4,5,3,0,E+,1,1,0,0,1000,250.0,1,E17RM,320,test
1232.9621315002441,1,2,4,5,3,0,E+,1,5,3,0,1000,250.0,5,E17RM,321,test
961.115837097168,1,2,4,5,3,0,E+,1,2,1,0,1000,250.0,2,E17RM,322,test
545.0141429901123,1,2,4,5,3,0,E+,1,4,2,0,1000,250.0,4,E17RM,323,test
705.0228118896484,1,2,4,5,3,0,E+,1,5,3,0,1000,250.0,5,E17RM,324,test
769.0129280090332,1,2,4,5,3,0,E+,1,4,2,0,1000,250.0,4,E17RM,325,test
721.0249900817871,1,2,4,5,3,0,E+,1,5,3,0,1000,250.0,5,E17RM,326,test
896.9531059265137,1,2,4,5,3,0,E+,1,3,4,0,1000,250.0,3,E17RM,327,test
689.0928745269775,1,2,4,5,3,0,E+,1,5,3,0,1000,250.0,5,E17RM,328,test
896.9879150390625,1,2,4,5,3,0,E+,1,0,5,0,1000,250.0,0,E17RM,329,test
849.0989208221436,1,2,4,5,3,0,E+,1,0,5,0,1000,250.0,0,E17RM,330,test
624.9818801879883,1,2,4,5,3,0,E+,1,4,2,0,1000,250.0,4,E17RM,331,test
688.9839172363281,1,2,4,5,3,0,E+,1,5,3,0,1000,250.0,5,E17RM,332,test
688.9808177947998,1,2,4,5,3,0,E+,1,4,2,0,1000,250.0,4,E17RM,333,test
608.8969707489014,1,2,4,5,3,0,E+,1,3,4,0,1000,250.0,3,E17RM,334,test
960.9880447387695,1,2,4,5,3,0,E+,1,5,3,0,1000,250.0,5,E17RM,335,test
736.6170883178711,1,2,4,5,3,0,E+,1,0,5,0,1000,250.0,0,E17RM,336,test
672.9769706726074,1,2,4,5,3,0,E+,1,0,5,0,1000,250.0,0,E17RM,337,test
721.0249900817871,1,2,4,5,3,0,E+,1,0,5,0,1000,250.0,0,E17RM,338,test
640.8369541168213,1,2,4,5,3,0,E+,1,3,4,0,1000,250.0,3,E17RM,339,test
865.0288581848145,1,2,4,5,3,0,E+,1,2,1,0,1000,250.0,2,E17RM,340,test
864.3810749053955,1,2,4,5,3,0,E+,1,3,4,0,1000,250.0,3,E17RM,341,test
673.0411052703857,1,2,4,5,3,0,E+,1,4,2,0,1000,250.0,4,E17RM,342,test
816.9820308685303,1,2,4,5,3,0,E+,1,0,5,0,1000,250.0,0,E17RM,343,test
785.0100994110107,1,2,4,5,3,0,E+,1,5,3,0,1000,250.0,5,E17RM,344,test
624.9990463256836,1,2,4,5,3,0,E+,1,4,2,0,1000,250.0,4,E17RM,345,test
592.9338932037354,1,2,4,5,3,0,E+,0,5,3,0,1000,250.0,0,E17RM,346,test
721.1520671844482,1,2,4,5,3,0,E+,1,0,5,0,1000,250.0,0,E17RM,347,test
752.9289722442627,1,2,4,5,3,0,E+,1,3,4,0,1000,250.0,3,E17RM,348,test
864.3991947174072,1,2,4,5,3,0,E+,1,4,2,0,1000,250.0,4,E17RM,349,test
993.0269718170166,1,2,4,5,3,0,E+,1,1,0,0,1000,250.0,1,E17RM,350,test
816.9980049133301,1,2,4,5,3,0,E+,1,2,1,0,1000,250.0,2,E17RM,351,test
736.8650436401367,1,2,4,5,3,0,E+,1,5,3,0,1000,250.0,5,E17RM,352,test
672.9381084442139,1,2,4,5,3,0,E+,1,5,3,0,1000,250.0,5,E17RM,353,test
816.9901371002197,1,2,4,5,3,0,E+,1,2,1,0,1000,250.0,2,E17RM,354,test
881.1318874359131,1,2,4,5,3,0,E+,1,1,0,0,1000,250.0,1,E17RM,355,test
625.0100135803223,1,2,4,5,3,0,E+,1,3,4,0,1000,250.0,3,E17RM,356,test
689.093828201294,1,2,4,5,3,0,E+,1,0,5,0,1000,250.0,0,E17RM,357,test
640.9530639648438,1,2,4,5,3,0,E+,1,0,5,0,1000,250.0,0,E17RM,358,test
928.9541244506836,1,2,4,5,3,0,E+,1,3,4,0,1000,250.0,3,E17RM,359,test
833.122968673706,1,2,4,5,3,0,E+,1,0,5,0,1000,250.0,0,E17RM,360,test
737.0920181274414,1,2,4,5,3,0,E+,1,0,5,0,1000,250.0,0,E17RM,361,test
657.0720672607422,1,2,4,5,3,0,E+,1,4,2,0,1000,250.0,4,E17RM,362,test
736.9749546051025,1,2,4,5,3,0,E+,1,2,1,0,1000,250.0,2,E17RM,363,test
752.8419494628906,1,2,4,5,3,0,E+,1,2,1,0,1000,250.0,2,E17RM,364,test
864.7439479827881,1,2,4,5,3,0,E+,1,1,0,0,1000,250.0,1,E17RM,365,test
657.0100784301758,1,2,4,5,3,0,E+,1,1,0,0,1000,250.0,1,E17RM,366,test
721.1380004882812,1,2,4,5,3,0,E+,1,3,4,0,1000,250.0,3,E17RM,367,test
1233.0601215362549,1,2,4,5,3,0,E+,1,1,0,0,1000,250.0,1,E17RM,368,test
752.9058456420898,1,2,4,5,3,0,E+,1,5,3,0,1000,250.0,5,E17RM,369,test
513.1030082702637,1,2,4,5,3,0,E+,1,5,3,0,1000,250.0,5,E17RM,370,test
896.6259956359863,1,2,4,5,3,0,E+,1,2,1,0,1000,250.0,2,E17RM,371,test
609.1208457946777,1,2,4,5,3,0,E+,1,2,1,0,1000,250.0,2,E17RM,372,test
464.53309059143066,1,2,4,5,3,0,E+,1,3,4,0,1000,250.0,3,E17RM,373,test
624.8631477355957,1,2,4,5,3,0,E+,0,2,1,0,1000,250.0,1,E17RM,374,test
769.1240310668945,1,2,4,5,3,0,E+,1,2,1,0,1000,250.0,2,E17RM,375,test
1248.6507892608643,1,2,4,5,3,0,E+,1,1,0,0,1000,250.0,1,E17RM,376,test
865.009069442749,1,2,4,5,3,0,E+,1,1,0,0,1000,250.0,1,E17RM,377,test
624.9799728393555,1,2,4,5,3,0,E+,1,4,2,0,1000,250.0,4,E17RM,378,test
737.0572090148926,1,2,4,5,3,0,E+,1,5,3,0,1000,250.0,5,E17RM,379,test
913.017988204956,1,2,4,5,3,0,E+,1,0,5,0,1000,250.0,0,E17RM,380,test
721.0111618041992,1,2,4,5,3,0,E+,1,4,2,0,1000,250.0,4,E17RM,381,test
640.9599781036377,1,2,4,5,3,0,E+,1,5,3,0,1000,250.0,5,E17RM,382,test
656.8458080291748,1,2,4,5,3,0,E+,0,4,2,0,1000,250.0,5,E17RM,383,test
625.06103515625,1,2,4,5,3,0,E+,1,3,4,0,1000,250.0,3,E17RM,384,test
800.745964050293,1,2,4,5,3,0,E+,1,3,4,0,1000,250.0,3,E17RM,385,test
512.9621028900146,1,2,4,5,3,0,E+,1,3,4,0,1000,250.0,3,E17RM,386,test
688.6038780212402,1,2,4,5,3,0,E+,1,0,5,0,1000,250.0,0,E17RM,387,test
609.1110706329346,1,2,4,5,3,0,E+,0,3,4,0,1000,250.0,4,E17RM,388,test
848.8659858703613,1,2,4,5,3,0,E+,1,5,3,0,1000,250.0,5,E17RM,389,test
769.110918045044,1,2,4,5,3,0,E+,1,0,5,0,1000,250.0,0,E17RM,390,test
576.6289234161377,1,2,4,5,3,0,E+,1,4,2,0,1000,250.0,4,E17RM,391,test
688.9300346374512,1,2,4,5,3,0,E+,1,0,5,0,1000,250.0,0,E17RM,392,test
800.9870052337646,1,2,4,5,3,0,E+,1,1,0,0,1000,250.0,1,E17RM,393,test
720.9808826446533,1,2,4,5,3,0,E+,1,5,3,0,1000,250.0,5,E17RM,394,test
656.9080352783203,1,2,4,5,3,0,E+,1,0,5,0,1000,250.0,0,E17RM,395,test
801.0730743408203,1,2,4,5,3,0,E+,1,1,0,0,1000,250.0,1,E17RM,396,test
544.9450016021729,1,2,4,5,3,0,E+,0,2,1,0,1000,250.0,4,E17RM,397,test
768.7690258026123,1,2,4,5,3,0,E+,1,0,5,0,1000,250.0,0,E17RM,398,test
656.7277908325195,1,2,4,5,3,0,E+,1,4,2,0,1000,250.0,4,E17RM,399,test
977.121114730835,1,2,4,5,3,0,E+,1,5,3,0,1000,250.0,5,E17RM,400,test
656.9738388061523,1,2,4,5,3,0,E+,1,4,2,0,1000,250.0,4,E17RM,401,test
880.9280395507812,1,2,4,5,3,0,E+,1,2,1,0,1000,250.0,2,E17RM,402,test
625.0360012054443,1,2,4,5,3,0,E+,1,2,1,0,1000,250.0,2,E17RM,403,test
672.9631423950195,1,2,4,5,3,0,E+,1,5,3,0,1000,250.0,5,E17RM,404,test
784.9230766296387,1,2,4,5,3,0,E+,1,1,0,0,1000,250.0,1,E17RM,405,test
640.9931182861328,1,2,4,5,3,0,E+,1,3,4,0,1000,250.0,3,E17RM,406,test
912.9300117492676,1,2,4,5,3,0,E+,1,2,1,0,1000,250.0,2,E17RM,407,test
1440.8900737762451,1,2,4,5,3,0,E+,1,1,0,0,1000,250.0,1,E17RM,408,test
688.9040470123291,1,2,4,5,3,0,E+,1,0,5,0,1000,250.0,0,E17RM,409,test
816.9610500335693,1,2,4,5,3,0,E+,1,5,3,0,1000,250.0,5,E17RM,410,test
689.1350746154785,1,2,4,5,3,0,E+,1,4,2,0,1000,250.0,4,E17RM,411,test
609.0919971466064,1,2,4,5,3,0,E+,1,4,2,0,1000,250.0,4,E17RM,412,test
897.1397876739502,1,2,4,5,3,0,E+,1,2,1,0,1000,250.0,2,E17RM,413,test
817.0359134674072,1,2,4,5,3,0,E+,1,1,0,0,1000,250.0,1,E17RM,414,test
817.0509338378906,1,2,4,5,3,0,E+,1,1,0,0,1000,250.0,1,E17RM,415,test
657.1109294891357,1,2,4,5,3,0,E+,1,3,4,0,1000,250.0,3,E17RM,416,test
561.0971450805664,1,2,4,5,3,0,E+,1,3,4,0,1000,250.0,3,E17RM,417,test
545.0870990753174,1,2,4,5,3,0,E+,1,3,4,0,1000,250.0,3,E17RM,418,test
849.0068912506104,1,2,4,5,3,0,E+,1,0,5,0,1000,250.0,0,E17RM,419,test
817.0981407165527,1,2,4,5,3,0,E+,1,4,2,0,1000,250.0,4,E17RM,420,test
961.1189365386963,1,2,4,5,3,0,E+,1,1,0,0,1000,250.0,1,E17RM,421,test
753.0679702758789,1,2,4,5,3,0,E+,1,4,2,0,1000,250.0,4,E17RM,422,test
785.1190567016602,1,2,4,5,3,0,E+,1,2,1,0,1000,250.0,2,E17RM,423,test
656.7621231079102,1,2,4,5,3,0,E+,1,0,5,0,1000,250.0,0,E17RM,424,test
624.9740123748779,1,2,4,5,3,0,E+,1,0,5,0,1000,250.0,0,E17RM,425,test
784.9950790405273,1,2,4,5,3,0,E+,1,4,2,0,1000,250.0,4,E17RM,426,test
785.0029468536377,1,2,4,5,3,0,E+,1,1,0,0,1000,250.0,1,E17RM,427,test
881.0172080993652,1,2,4,5,3,0,E+,1,2,1,0,1000,250.0,2,E17RM,428,test
688.9891624450684,1,2,4,5,3,0,E+,1,1,0,0,1000,250.0,1,E17RM,429,test
641.010046005249,1,2,4,5,3,0,E+,1,3,4,0,1000,250.0,3,E17RM,430,test
672.9578971862793,1,2,4,5,3,0,E+,1,0,5,0,1000,250.0,0,E17RM,431,test
592.8821563720703,1,2,4,5,3,0,E+,1,0,5,0,1000,250.0,0,E17RM,432,test
609.0788841247559,1,2,4,5,3,0,E+,1,4,2,0,1000,250.0,4,E17RM,433,test
576.7958164215088,1,2,4,5,3,0,E+,1,3,4,0,1000,250.0,3,E17RM,434,test
544.9450016021729,1,2,4,5,3,0,E+,1,4,2,0,1000,250.0,4,E17RM,435,test
864.9311065673828,1,2,4,5,3,0,E+,1,1,0,0,1000,250.0,1,E17RM,436,test
688.9650821685791,1,2,4,5,3,0,E+,1,1,0,0,1000,250.0,1,E17RM,437,test
801.0838031768799,1,2,4,5,3,0,E+,1,5,3,0,1000,250.0,5,E17RM,438,test
640.949010848999,1,2,4,5,3,0,E+,1,0,5,0,1000,250.0,0,E17RM,439,test
769.010066986084,1,2,4,5,3,0,E+,1,2,1,0,1000,250.0,2,E17RM,440,test
736.9430065155029,1,2,4,5,3,0,E+,1,0,5,0,1000,250.0,0,E17RM,441,test
560.9951019287109,1,2,4,5,3,0,E+,0,2,1,0,1000,250.0,4,E17RM,442,test
849.0450382232666,1,2,4,5,3,0,E+,1,5,3,0,1000,250.0,5,E17RM,443,test
1056.9989681243896,1,2,4,5,3,0,E+,1,2,1,0,1000,250.0,2,E17RM,444,test
593.0790901184082,1,2,4,5,3,0,E+,1,4,2,0,1000,250.0,4,E17RM,445,test
768.9728736877441,1,2,4,5,3,0,E+,1,2,1,0,1000,250.0,2,E17RM,446,test
640.9540176391602,1,2,4,5,3,0,E+,1,5,3,0,1000,250.0,5,E17RM,447,test
849.0478992462158,1,2,4,5,3,0,E+,1,1,0,0,1000,250.0,1,E17RM,448,test
768.9929008483887,1,2,4,5,3,0,E+,1,0,5,0,1000,250.0,0,E17RM,449,test
640.9430503845215,1,2,4,5,3,0,E+,1,3,4,0,1000,250.0,3,E17RM,450,test
833.0080509185791,1,2,4,5,3,0,E+,1,2,1,0,1000,250.0,2,E17RM,451,test
704.89501953125,1,2,4,5,3,0,E+,1,3,4,0,1000,250.0,3,E17RM,452,test
721.0988998413086,1,2,4,5,3,0,E+,1,0,5,0,1000,250.0,0,E17RM,453,test
784.9640846252441,1,2,4,5,3,0,E+,1,2,1,0,1000,250.0,2,E17RM,454,test
656.4650535583496,1,2,4,5,3,0,E+,1,0,5,0,1000,250.0,0,E17RM,455,test
640.9158706665039,1,2,4,5,3,0,E+,1,4,2,0,1000,250.0,4,E17RM,456,test
768.7869071960449,1,2,4,5,3,0,E+,1,5,3,0,1000,250.0,5,E17RM,457,test
688.9960765838623,1,2,4,5,3,0,E+,1,4,2,0,1000,250.0,4,E17RM,458,test
641.0019397735596,1,2,4,5,3,0,E+,1,4,2,0,1000,250.0,4,E17RM,459,test
577.0399570465088,1,2,4,5,3,0,E+,1,5,3,0,1000,250.0,5,E17RM,460,test
704.941987991333,1,2,4,5,3,0,E+,1,0,5,0,1000,250.0,0,E17RM,461,test
944.9479579925537,1,2,4,5,3,0,E+,1,5,3,0,1000,250.0,5,E17RM,462,test
529.1550159454346,1,2,4,5,3,0,E+,1,5,3,0,1000,250.0,5,E17RM,463,test
528.8779735565186,1,2,4,5,3,0,E+,1,5,3,0,1000,250.0,5,E17RM,464,test
912.9781723022461,1,2,4,5,3,0,E+,1,1,0,0,1000,250.0,1,E17RM,465,test
673.119068145752,1,2,4,5,3,0,E+,0,4,2,0,1000,250.0,3,E17RM,466,test
1633.1160068511963,1,2,4,5,3,0,E+,1,4,2,0,1000,250.0,4,E17RM,467,test
1008.9919567108154,1,2,4,5,3,0,E+,1,1,0,0,1000,250.0,1,E17RM,468,test
928.9541244506836,1,2,4,5,3,0,E+,1,2,1,0,1000,250.0,2,E17RM,469,test
576.9290924072266,1,2,4,5,3,0,E+,1,5,3,0,1000,250.0,5,E17RM,470,test
704.8540115356445,1,2,4,5,3,0,E+,1,5,3,0,1000,250.0,5,E17RM,471,test
672.9319095611572,1,2,4,5,3,0,E+,1,4,2,0,1000,250.0,4,E17RM,472,test
832.9579830169678,1,2,4,5,3,0,E+,1,0,5,0,1000,250.0,0,E17RM,473,test
848.9429950714111,1,2,4,5,3,0,E+,1,2,1,0,1000,250.0,2,E17RM,474,test
705.0051689147949,1,2,4,5,3,0,E+,1,1,0,0,1000,250.0,1,E17RM,475,test
768.9609527587891,1,2,4,5,3,0,E+,1,4,2,0,1000,250.0,4,E17RM,476,test
657.0930480957031,1,2,4,5,3,0,E+,1,0,5,0,1000,250.0,0,E17RM,477,test
928.6749362945557,1,2,4,5,3,0,E+,1,3,4,0,1000,250.0,3,E17RM,478,test
785.0048542022705,1,2,4,5,3,0,E+,1,0,5,0,1000,250.0,0,E17RM,479,test
656.9399833679199,1,2,4,5,3,0,E+,1,4,2,0,1000,250.0,4,E17RM,480,test
961.1899852752686,1,2,4,5,3,0,E+,1,1,0,0,1000,250.0,1,E17RM,481,test
704.9000263214111,1,2,4,5,3,0,E+,1,5,3,0,1000,250.0,5,E17RM,482,test
865.0848865509033,1,2,4,5,3,0,E+,1,1,0,0,1000,250.0,1,E17RM,483,test
704.4329643249512,1,2,4,5,3,0,E+,1,5,3,0,1000,250.0,5,E17RM,484,test
672.9960441589355,1,2,4,5,3,0,E+,1,5,3,0,1000,250.0,5,E17RM,485,test
832.9958915710449,1,2,4,5,3,0,E+,1,2,1,0,1000,250.0,2,E17RM,486,test
913.0129814147949,1,2,4,5,3,0,E+,1,1,0,0,1000,250.0,1,E17RM,487,test
704.9407958984375,1,2,4,5,3,0,E+,1,2,1,0,1000,250.0,2,E17RM,488,test
689.021110534668,1,2,4,5,3,0,E+,1,2,1,0,1000,250.0,2,E17RM,489,test
625.1089572906494,1,2,4,5,3,0,E+,1,3,4,0,1000,250.0,3,E17RM,490,test
753.0410289764404,1,2,4,5,3,0,E+,1,2,1,0,1000,250.0,2,E17RM,491,test
784.9330902099609,1,2,4,5,3,0,E+,1,4,2,0,1000,250.0,4,E17RM,492,test
832.7100276947021,1,2,4,5,3,0,E+,1,1,0,0,1000,250.0,1,E17RM,493,test
737.076997756958,1,2,4,5,3,0,E+,1,0,5,0,1000,250.0,0,E17RM,494,test
832.9949378967285,1,2,4,5,3,0,E+,1,1,0,0,1000,250.0,1,E17RM,495,test
736.8738651275635,1,2,4,5,3,0,E+,1,5,3,0,1000,250.0,5,E17RM,496,test
849.0049839019775,1,2,4,5,3,0,E+,1,1,0,0,1000,250.0,1,E17RM,497,test
640.9270763397217,1,2,4,5,3,0,E+,1,3,4,0,1000,250.0,3,E17RM,498,test
593.0240154266357,1,2,4,5,3,0,E+,1,5,3,0,1000,250.0,5,E17RM,499,test
