RT,SRmap_0,SRmap_1,SRmap_2,SRmap_3,SRmap_4,SRmap_5,condition,correct,correct_response,curstim,ms-precue,ms-prestimblank,ntrials,response,subject,trial,type
3983.8900566101074,5,3,0,4,2,1,H+,1,5,0,0,1000,250.0,5,C17HP,0,train
1176.6672134399414,5,3,0,4,2,1,H+,1,1,5,0,1000,250.0,1,C17HP,1,train
1633.0749988555908,5,3,0,4,2,1,H+,1,2,4,0,1000,250.0,2,C17HP,2,train
1712.2750282287598,5,3,0,4,2,1,H+,1,5,0,0,1000,250.0,5,C17HP,3,train
1168.5919761657715,5,3,0,4,2,1,H+,1,3,1,0,1000,250.0,3,C17HP,4,train
1344.4218635559082,5,3,0,4,2,1,H+,1,0,2,0,1000,250.0,0,C17HP,5,train
1296.6089248657227,5,3,0,4,2,1,H+,1,4,3,0,1000,250.0,4,C17HP,6,train
752.4199485778809,5,3,0,4,2,1,H+,1,1,5,0,1000,250.0,1,C17HP,7,train
1360.6631755828857,5,3,0,4,2,1,H+,0,2,4,0,1000,250.0,1,C17HP,8,train
1568.3159828186035,5,3,0,4,2,1,H+,1,3,1,0,1000,250.0,3,C17HP,9,train
1408.7178707122803,5,3,0,4,2,1,H+,0,2,4,0,1000,250.0,5,C17HP,10,train
1313.040018081665,5,3,0,4,2,1,H+,1,4,3,0,1000,250.0,4,C17HP,11,train
1376.6272068023682,5,3,0,4,2,1,H+,1,2,4,0,1000,250.0,2,C17HP,12,train
1248.3758926391602,5,3,0,4,2,1,H+,1,0,2,0,1000,250.0,0,C17HP,13,train
1344.7229862213135,5,3,0,4,2,1,H+,1,4,3,0,1000,250.0,4,C17HP,14,train
1184.2598915100098,5,3,0,4,2,1,H+,1,4,3,0,1000,250.0,4,C17HP,15,train
1104.3131351470947,5,3,0,4,2,1,H+,1,3,1,0,1000,250.0,3,C17HP,16,train
705.0549983978271,5,3,0,4,2,1,H+,1,3,1,0,1000,250.0,3,C17HP,17,train
734.3578338623047,5,3,0,4,2,1,H+,1,4,3,0,1000,250.0,4,C17HP,18,train
896.8319892883301,5,3,0,4,2,1,H+,1,2,4,0,1000,250.0,2,C17HP,19,train
992.8600788116455,5,3,0,4,2,1,H+,1,3,1,0,1000,250.0,3,C17HP,20,train
1168.3950424194336,5,3,0,4,2,1,H+,0,2,4,0,1000,250.0,1,C17HP,21,train
1169.4529056549072,5,3,0,4,2,1,H+,1,0,2,0,1000,250.0,0,C17HP,22,train
1376.3210773468018,5,3,0,4,2,1,H+,1,5,0,0,1000,250.0,5,C17HP,23,train
912.8220081329346,5,3,0,4,2,1,H+,1,5,0,0,1000,250.0,5,C17HP,24,train
1200.270175933838,5,3,0,4,2,1,H+,1,5,0,0,1000,250.0,5,C17HP,25,train
785.7480049133301,5,3,0,4,2,1,H+,1,3,1,0,1000,250.0,3,C17HP,26,train
705.0209045410156,5,3,0,4,2,1,H+,1,0,2,0,1000,250.0,0,C17HP,27,train
848.6909866333008,5,3,0,4,2,1,H+,1,1,5,0,1000,250.0,1,C17HP,28,train
911.0479354858398,5,3,0,4,2,1,H+,1,0,2,0,1000,250.0,0,C17HP,29,train
1360.1059913635254,5,3,0,4,2,1,H+,1,5,0,0,1000,250.0,5,C17HP,30,train
752.2869110107422,5,3,0,4,2,1,H+,1,1,5,0,1000,250.0,1,C17HP,31,train
801.0480403900146,5,3,0,4,2,1,H+,1,3,1,0,1000,250.0,3,C17HP,32,train
864.3951416015625,5,3,0,4,2,1,H+,1,1,5,0,1000,250.0,1,C17HP,33,train
1568.4928894042969,5,3,0,4,2,1,H+,1,4,3,0,1000,250.0,4,C17HP,34,train
1296.8480587005615,5,3,0,4,2,1,H+,1,5,0,0,1000,250.0,5,C17HP,35,train
1329.0331363677979,5,3,0,4,2,1,H+,1,5,0,0,1000,250.0,5,C17HP,36,train
1264.327049255371,5,3,0,4,2,1,H+,1,0,2,0,1000,250.0,0,C17HP,37,train
1088.5469913482666,5,3,0,4,2,1,H+,1,4,3,0,1000,250.0,4,C17HP,38,train
736.6681098937988,5,3,0,4,2,1,H+,1,0,2,0,1000,250.0,0,C17HP,39,train
1264.5690441131592,5,3,0,4,2,1,H+,1,5,0,0,1000,250.0,5,C17HP,40,train
944.2839622497559,5,3,0,4,2,1,H+,1,4,3,0,1000,250.0,4,C17HP,41,train
912.6379489898682,5,3,0,4,2,1,H+,1,1,5,0,1000,250.0,1,C17HP,42,train
1024.4789123535156,5,3,0,4,2,1,H+,1,4,3,0,1000,250.0,4,C17HP,43,train
1136.6691589355469,5,3,0,4,2,1,H+,1,5,0,0,1000,250.0,5,C17HP,44,train
897.0189094543457,5,3,0,4,2,1,H+,1,3,1,0,1000,250.0,3,C17HP,45,train
1168.2469844818115,5,3,0,4,2,1,H+,1,5,0,0,1000,250.0,5,C17HP,46,train
783.1900119781494,5,3,0,4,2,1,H+,1,2,4,0,1000,250.0,2,C17HP,47,train
865.4611110687256,5,3,0,4,2,1,H+,1,4,3,0,1000,250.0,4,C17HP,48,train
737.1480464935303,5,3,0,4,2,1,H+,1,4,3,0,1000,250.0,4,C17HP,49,train
832.2019577026367,5,3,0,4,2,1,H+,1,2,4,0,1000,250.0,2,C17HP,50,train
800.590991973877,5,3,0,4,2,1,H+,1,3,1,0,1000,250.0,3,C17HP,51,train
512.6490592956543,5,3,0,4,2,1,H+,1,0,2,0,1000,250.0,0,C17HP,52,train
912.2750759124756,5,3,0,4,2,1,H+,1,5,0,0,1000,250.0,5,C17HP,53,train
689.1920566558838,5,3,0,4,2,1,H+,1,1,5,0,1000,250.0,1,C17HP,54,train
560.5900287628174,5,3,0,4,2,1,H+,1,1,5,0,1000,250.0,1,C17HP,55,train
641.232967376709,5,3,0,4,2,1,H+,1,3,1,0,1000,250.0,3,C17HP,56,train
688.5948181152344,5,3,0,4,2,1,H+,1,4,3,0,1000,250.0,4,C17HP,57,train
592.5049781799316,5,3,0,4,2,1,H+,1,4,3,0,1000,250.0,4,C17HP,58,train
625.1490116119385,5,3,0,4,2,1,H+,1,1,5,0,1000,250.0,1,C17HP,59,train
624.614953994751,5,3,0,4,2,1,H+,0,3,1,0,1000,250.0,2,C17HP,60,train
512.6690864562988,5,3,0,4,2,1,H+,1,0,2,0,1000,250.0,0,C17HP,61,train
976.9439697265625,5,3,0,4,2,1,H+,1,4,3,0,1000,250.0,4,C17HP,62,train
1184.2870712280273,5,3,0,4,2,1,H+,1,5,0,0,1000,250.0,5,C17HP,63,train
528.8760662078857,5,3,0,4,2,1,H+,1,0,2,0,1000,250.0,0,C17HP,64,train
816.572904586792,5,3,0,4,2,1,H+,1,2,4,0,1000,250.0,2,C17HP,65,train
704.4498920440674,5,3,0,4,2,1,H+,1,5,0,0,1000,250.0,5,C17HP,66,train
864.7768497467041,5,3,0,4,2,1,H+,1,1,5,0,1000,250.0,1,C17HP,67,train
512.3648643493652,5,3,0,4,2,1,H+,1,1,5,0,1000,250.0,1,C17HP,68,train
977.186918258667,5,3,0,4,2,1,H+,1,5,0,0,1000,250.0,5,C17HP,69,train
560.5130195617676,5,3,0,4,2,1,H+,1,0,2,0,1000,250.0,0,C17HP,70,train
865.4999732971191,5,3,0,4,2,1,H+,1,2,4,0,1000,250.0,2,C17HP,71,train
592.5707817077637,5,3,0,4,2,1,H+,1,2,4,0,1000,250.0,2,C17HP,72,train
673.0248928070068,5,3,0,4,2,1,H+,1,3,1,0,1000,250.0,3,C17HP,73,train
624.8400211334229,5,3,0,4,2,1,H+,1,0,2,0,1000,250.0,0,C17HP,74,train
672.0929145812988,5,3,0,4,2,1,H+,1,1,5,0,1000,250.0,1,C17HP,75,train
654.5181274414062,5,3,0,4,2,1,H+,1,2,4,0,1000,250.0,2,C17HP,76,train
528.6421775817871,5,3,0,4,2,1,H+,1,2,4,0,1000,250.0,2,C17HP,77,train
1185.0509643554688,5,3,0,4,2,1,H+,1,5,0,0,1000,250.0,5,C17HP,78,train
672.3470687866211,5,3,0,4,2,1,H+,1,2,4,0,1000,250.0,2,C17HP,79,train
1344.1162109375,5,3,0,4,2,1,H+,1,5,0,0,1000,250.0,5,C17HP,80,train
752.8409957885742,5,3,0,4,2,1,H+,1,5,0,0,1000,250.0,5,C17HP,81,train
784.3489646911621,5,3,0,4,2,1,H+,1,1,5,0,1000,250.0,1,C17HP,82,train
544.0530776977539,5,3,0,4,2,1,H+,1,0,2,0,1000,250.0,0,C17HP,83,train
528.1169414520264,5,3,0,4,2,1,H+,1,2,4,0,1000,250.0,2,C17HP,84,train
577.5508880615234,5,3,0,4,2,1,H+,0,3,1,0,1000,250.0,0,C17HP,85,train
720.4310894012451,5,3,0,4,2,1,H+,1,5,0,0,1000,250.0,5,C17HP,86,train
753.1709671020508,5,3,0,4,2,1,H+,1,2,4,0,1000,250.0,2,C17HP,87,train
689.1698837280273,5,3,0,4,2,1,H+,1,1,5,0,1000,250.0,1,C17HP,88,train
1200.4060745239258,5,3,0,4,2,1,H+,1,4,3,0,1000,250.0,4,C17HP,89,train
576.6689777374268,5,3,0,4,2,1,H+,1,5,0,0,1000,250.0,5,C17HP,90,train
561.1848831176758,5,3,0,4,2,1,H+,1,0,2,0,1000,250.0,0,C17HP,91,train
816.2858486175537,5,3,0,4,2,1,H+,1,4,3,0,1000,250.0,4,C17HP,92,train
624.4149208068848,5,3,0,4,2,1,H+,1,5,0,0,1000,250.0,5,C17HP,93,train
622.6730346679688,5,3,0,4,2,1,H+,1,1,5,0,1000,250.0,1,C17HP,94,train
481.2150001525879,5,3,0,4,2,1,H+,1,1,5,0,1000,250.0,1,C17HP,95,train
769.2208290100098,5,3,0,4,2,1,H+,1,5,0,0,1000,250.0,5,C17HP,96,train
560.560941696167,5,3,0,4,2,1,H+,1,0,2,0,1000,250.0,0,C17HP,97,train
768.3310508728027,5,3,0,4,2,1,H+,1,3,1,0,1000,250.0,3,C17HP,98,train
672.9528903961182,5,3,0,4,2,1,H+,1,3,1,0,1000,250.0,3,C17HP,99,train
607.8898906707764,5,3,0,4,2,1,H+,1,1,5,0,1000,250.0,1,C17HP,100,train
816.2989616394043,5,3,0,4,2,1,H+,1,4,3,0,1000,250.0,4,C17HP,101,train
672.5449562072754,5,3,0,4,2,1,H+,1,4,3,0,1000,250.0,4,C17HP,102,train
432.38306045532227,5,3,0,4,2,1,H+,1,4,3,0,1000,250.0,4,C17HP,103,train
384.1068744659424,5,3,0,4,2,1,H+,1,4,3,0,1000,250.0,4,C17HP,104,train
688.633918762207,5,3,0,4,2,1,H+,1,3,1,0,1000,250.0,3,C17HP,105,train
624.2539882659912,5,3,0,4,2,1,H+,1,5,0,0,1000,250.0,5,C17HP,106,train
689.0909671783447,5,3,0,4,2,1,H+,1,3,1,0,1000,250.0,3,C17HP,107,train
816.6790008544922,5,3,0,4,2,1,H+,1,1,5,0,1000,250.0,1,C17HP,108,train
478.6241054534912,5,3,0,4,2,1,H+,1,0,2,0,1000,250.0,0,C17HP,109,train
768.625020980835,5,3,0,4,2,1,H+,1,2,4,0,1000,250.0,2,C17HP,110,train
720.6559181213379,5,3,0,4,2,1,H+,1,3,1,0,1000,250.0,3,C17HP,111,train
688.4589195251465,5,3,0,4,2,1,H+,1,1,5,0,1000,250.0,1,C17HP,112,train
784.635066986084,5,3,0,4,2,1,H+,1,3,1,0,1000,250.0,3,C17HP,113,train
640.3610706329346,5,3,0,4,2,1,H+,0,4,3,0,1000,250.0,1,C17HP,114,train
656.5148830413818,5,3,0,4,2,1,H+,1,4,3,0,1000,250.0,4,C17HP,115,train
656.2249660491943,5,3,0,4,2,1,H+,1,1,5,0,1000,250.0,1,C17HP,116,train
673.0480194091797,5,3,0,4,2,1,H+,1,3,1,0,1000,250.0,3,C17HP,117,train
513.0438804626465,5,3,0,4,2,1,H+,1,3,1,0,1000,250.0,3,C17HP,118,train
672.3818778991699,5,3,0,4,2,1,H+,1,3,1,0,1000,250.0,3,C17HP,119,train
496.48308753967285,5,3,0,4,2,1,H+,1,0,2,0,1000,250.0,0,C17HP,120,train
721.0419178009033,5,3,0,4,2,1,H+,1,2,4,0,1000,250.0,2,C17HP,121,train
912.351131439209,5,3,0,4,2,1,H+,1,5,0,0,1000,250.0,5,C17HP,122,train
736.4799976348877,5,3,0,4,2,1,H+,0,0,2,0,1000,250.0,3,C17HP,123,train
752.3729801177979,5,3,0,4,2,1,H+,1,1,5,0,1000,250.0,1,C17HP,124,train
482.26213455200195,5,3,0,4,2,1,H+,1,1,5,0,1000,250.0,1,C17HP,125,train
705.1639556884766,5,3,0,4,2,1,H+,1,5,0,0,1000,250.0,5,C17HP,126,train
816.5669441223145,5,3,0,4,2,1,H+,1,4,3,0,1000,250.0,4,C17HP,127,train
752.4778842926025,5,3,0,4,2,1,H+,1,3,1,0,1000,250.0,3,C17HP,128,train
720.6480503082275,5,3,0,4,2,1,H+,1,3,1,0,1000,250.0,3,C17HP,129,train
800.4469871520996,5,3,0,4,2,1,H+,1,2,4,0,1000,250.0,2,C17HP,130,train
1104.7029495239258,5,3,0,4,2,1,H+,1,2,4,0,1000,250.0,2,C17HP,131,train
928.8120269775391,5,3,0,4,2,1,H+,1,1,5,0,1000,250.0,1,C17HP,132,train
912.4860763549805,5,3,0,4,2,1,H+,1,5,0,0,1000,250.0,5,C17HP,133,train
672.3968982696533,5,3,0,4,2,1,H+,1,3,1,0,1000,250.0,3,C17HP,134,train
688.7037754058838,5,3,0,4,2,1,H+,1,5,0,0,1000,250.0,5,C17HP,135,train
704.6608924865723,5,3,0,4,2,1,H+,1,5,0,0,1000,250.0,5,C17HP,136,train
704.1959762573242,5,3,0,4,2,1,H+,1,3,1,0,1000,250.0,3,C17HP,137,train
752.3171901702881,5,3,0,4,2,1,H+,1,0,2,0,1000,250.0,0,C17HP,138,train
768.6829566955566,5,3,0,4,2,1,H+,1,3,1,0,1000,250.0,3,C17HP,139,train
560.5759620666504,5,3,0,4,2,1,H+,1,1,5,0,1000,250.0,1,C17HP,140,train
592.458963394165,5,3,0,4,2,1,H+,1,0,2,0,1000,250.0,0,C17HP,141,train
816.4348602294922,5,3,0,4,2,1,H+,1,0,2,0,1000,250.0,0,C17HP,142,train
447.4499225616455,5,3,0,4,2,1,H+,1,0,2,0,1000,250.0,0,C17HP,143,train
448.3799934387207,5,3,0,4,2,1,H+,1,0,2,0,1000,250.0,0,C17HP,144,train
960.4160785675049,5,3,0,4,2,1,H+,1,2,4,0,1000,250.0,2,C17HP,145,train
688.5778903961182,5,3,0,4,2,1,H+,1,4,3,0,1000,250.0,4,C17HP,146,train
1024.8072147369385,5,3,0,4,2,1,H+,1,2,4,0,1000,250.0,2,C17HP,147,train
624.4380474090576,5,3,0,4,2,1,H+,1,3,1,0,1000,250.0,3,C17HP,148,train
1072.1468925476074,5,3,0,4,2,1,H+,1,5,0,0,1000,250.0,5,C17HP,149,train
656.174898147583,5,3,0,4,2,1,H+,1,4,3,0,1000,250.0,4,C17HP,150,train
752.575159072876,5,3,0,4,2,1,H+,1,5,0,0,1000,250.0,5,C17HP,151,train
784.372091293335,5,3,0,4,2,1,H+,1,0,2,0,1000,250.0,0,C17HP,152,train
689.0377998352051,5,3,0,4,2,1,H+,1,3,1,0,1000,250.0,3,C17HP,153,train
576.9639015197754,5,3,0,4,2,1,H+,1,0,2,0,1000,250.0,0,C17HP,154,train
560.4851245880127,5,3,0,4,2,1,H+,1,0,2,0,1000,250.0,0,C17HP,155,train
881.0629844665527,5,3,0,4,2,1,H+,1,1,5,0,1000,250.0,1,C17HP,156,train
736.67311668396,5,3,0,4,2,1,H+,1,2,4,0,1000,250.0,2,C17HP,157,train
865.8778667449951,5,3,0,4,2,1,H+,1,4,3,0,1000,250.0,4,C17HP,158,train
689.1121864318848,5,3,0,4,2,1,H+,1,2,4,0,1000,250.0,2,C17HP,159,train
800.9128570556641,5,3,0,4,2,1,H+,1,5,0,0,1000,250.0,5,C17HP,160,train
1214.6930694580078,5,3,0,4,2,1,H+,1,1,5,0,1000,250.0,1,C17HP,161,train
766.7310237884521,5,3,0,4,2,1,H+,1,4,3,0,1000,250.0,4,C17HP,162,train
719.9249267578125,5,3,0,4,2,1,H+,1,4,3,0,1000,250.0,4,C17HP,163,train
784.8751544952393,5,3,0,4,2,1,H+,1,2,4,0,1000,250.0,2,C17HP,164,train
897.2251415252686,5,3,0,4,2,1,H+,1,1,5,0,1000,250.0,1,C17HP,165,train
912.2879505157471,5,3,0,4,2,1,H+,1,0,2,0,1000,250.0,0,C17HP,166,train
992.988109588623,5,3,0,4,2,1,H+,1,4,3,0,1000,250.0,4,C17HP,167,train
609.1809272766113,5,3,0,4,2,1,H+,1,0,2,0,1000,250.0,0,C17HP,168,train
832.4429988861084,5,3,0,4,2,1,H+,1,3,1,0,1000,250.0,3,C17HP,169,train
512.5179290771484,5,3,0,4,2,1,H+,1,0,2,0,1000,250.0,0,C17HP,170,train
560.5630874633789,5,3,0,4,2,1,H+,1,0,2,0,1000,250.0,0,C17HP,171,train
880.7260990142822,5,3,0,4,2,1,H+,1,5,0,0,1000,250.0,5,C17HP,172,train
576.4470100402832,5,3,0,4,2,1,H+,1,0,2,0,1000,250.0,0,C17HP,173,train
832.273006439209,5,3,0,4,2,1,H+,1,1,5,0,1000,250.0,1,C17HP,174,train
640.0411128997803,5,3,0,4,2,1,H+,1,4,3,0,1000,250.0,4,C17HP,175,train
686.586856842041,5,3,0,4,2,1,H+,1,3,1,0,1000,250.0,3,C17HP,176,train
865.0290966033936,5,3,0,4,2,1,H+,1,4,3,0,1000,250.0,4,C17HP,177,train
593.5590267181396,5,3,0,4,2,1,H+,1,0,2,0,1000,250.0,0,C17HP,178,train
736.7868423461914,5,3,0,4,2,1,H+,1,5,0,0,1000,250.0,5,C17HP,179,train
640.8891677856445,5,3,0,4,2,1,H+,1,5,0,0,1000,250.0,5,C17HP,180,train
672.7879047393799,5,3,0,4,2,1,H+,1,1,5,0,1000,250.0,1,C17HP,181,train
672.839879989624,5,3,0,4,2,1,H+,1,3,1,0,1000,250.0,3,C17HP,182,train
928.657054901123,5,3,0,4,2,1,H+,1,3,1,0,1000,250.0,3,C17HP,183,train
446.7461109161377,5,3,0,4,2,1,H+,1,3,1,0,1000,250.0,3,C17HP,184,train
576.5399932861328,5,3,0,4,2,1,H+,1,3,1,0,1000,250.0,3,C17HP,185,train
704.4639587402344,5,3,0,4,2,1,H+,1,1,5,0,1000,250.0,1,C17HP,186,train
497.1439838409424,5,3,0,4,2,1,H+,1,3,1,0,1000,250.0,3,C17HP,187,train
768.975019454956,5,3,0,4,2,1,H+,1,1,5,0,1000,250.0,1,C17HP,188,train
830.6419849395752,5,3,0,4,2,1,H+,1,4,3,0,1000,250.0,4,C17HP,189,train
560.5299472808838,5,3,0,4,2,1,H+,1,3,1,0,1000,250.0,3,C17HP,190,train
688.5490417480469,5,3,0,4,2,1,H+,1,5,0,0,1000,250.0,5,C17HP,191,train
560.1620674133301,5,3,0,4,2,1,H+,1,3,1,0,1000,250.0,3,C17HP,192,train
897.0761299133301,5,3,0,4,2,1,H+,1,0,2,0,1000,250.0,0,C17HP,193,train
736.595869064331,5,3,0,4,2,1,H+,1,4,3,0,1000,250.0,4,C17HP,194,train
686.7630481719971,5,3,0,4,2,1,H+,1,0,2,0,1000,250.0,0,C17HP,195,train
640.5150890350342,5,3,0,4,2,1,H+,1,0,2,0,1000,250.0,0,C17HP,196,train
864.9702072143555,5,3,0,4,2,1,H+,1,5,0,0,1000,250.0,5,C17HP,197,train
560.9750747680664,5,3,0,4,2,1,H+,1,0,2,0,1000,250.0,0,C17HP,198,train
752.2251605987549,5,3,0,4,2,1,H+,1,5,0,0,1000,250.0,5,C17HP,199,train
673.0589866638184,5,3,0,4,2,1,H+,1,5,0,0,1000,250.0,5,C17HP,200,train
800.421953201294,5,3,0,4,2,1,H+,1,2,4,0,1000,250.0,2,C17HP,201,train
624.8750686645508,5,3,0,4,2,1,H+,1,2,4,0,1000,250.0,2,C17HP,202,train
800.7640838623047,5,3,0,4,2,1,H+,1,5,0,0,1000,250.0,5,C17HP,203,train
752.2718906402588,5,3,0,4,2,1,H+,1,3,1,0,1000,250.0,3,C17HP,204,train
576.3809680938721,5,3,0,4,2,1,H+,1,3,1,0,1000,250.0,3,C17HP,205,train
768.571138381958,5,3,0,4,2,1,H+,1,2,4,0,1000,250.0,2,C17HP,206,train
464.3120765686035,5,3,0,4,2,1,H+,1,2,4,0,1000,250.0,2,C17HP,207,train
672.5368499755859,5,3,0,4,2,1,H+,1,1,5,0,1000,250.0,1,C17HP,208,train
816.5428638458252,5,3,0,4,2,1,H+,1,4,3,0,1000,250.0,4,C17HP,209,train
1584.350824356079,5,3,0,4,2,1,H+,1,3,1,0,1000,250.0,3,C17HP,210,train
416.79906845092773,5,3,0,4,2,1,H+,1,3,1,0,1000,250.0,3,C17HP,211,train
591.9859409332275,5,3,0,4,2,1,H+,1,4,3,0,1000,250.0,4,C17HP,212,train
512.2959613800049,5,3,0,4,2,1,H+,1,5,0,0,1000,250.0,5,C17HP,213,train
529.0219783782959,5,3,0,4,2,1,H+,1,5,0,0,1000,250.0,5,C17HP,214,train
945.1160430908203,5,3,0,4,2,1,H+,1,3,1,0,1000,250.0,3,C17HP,215,train
560.3370666503906,5,3,0,4,2,1,H+,1,4,3,0,1000,250.0,4,C17HP,216,train
465.7480716705322,5,3,0,4,2,1,H+,1,3,1,0,1000,250.0,3,C17HP,217,train
848.3362197875977,5,3,0,4,2,1,H+,1,3,1,0,1000,250.0,3,C17HP,218,train
400.64001083374023,5,3,0,4,2,1,H+,1,3,1,0,1000,250.0,3,C17HP,219,train
384.3991756439209,5,3,0,4,2,1,H+,1,3,1,0,1000,250.0,3,C17HP,220,train
544.3880558013916,5,3,0,4,2,1,H+,1,4,3,0,1000,250.0,4,C17HP,221,train
466.2168025970459,5,3,0,4,2,1,H+,1,3,1,0,1000,250.0,3,C17HP,222,train
896.3901996612549,5,3,0,4,2,1,H+,1,2,4,0,1000,250.0,2,C17HP,223,train
928.9500713348389,5,3,0,4,2,1,H+,1,0,2,0,1000,250.0,0,C17HP,224,train
641.0770416259766,5,3,0,4,2,1,H+,1,5,0,0,1000,250.0,5,C17HP,225,train
896.8369960784912,5,3,0,4,2,1,H+,1,4,3,0,1000,250.0,4,C17HP,226,train
833.0769538879395,5,3,0,4,2,1,H+,1,3,1,0,1000,250.0,3,C17HP,227,train
1086.6930484771729,5,3,0,4,2,1,H+,1,2,4,0,1000,250.0,2,C17HP,228,train
673.0711460113525,5,3,0,4,2,1,H+,1,3,1,0,1000,250.0,3,C17HP,229,train
832.3519229888916,5,3,0,4,2,1,H+,1,0,2,0,1000,250.0,0,C17HP,230,train
576.9522190093994,5,3,0,4,2,1,H+,1,3,1,0,1000,250.0,3,C17HP,231,train
672.9161739349365,5,3,0,4,2,1,H+,1,3,1,0,1000,250.0,3,C17HP,232,train
720.911979675293,5,3,0,4,2,1,H+,1,2,4,0,1000,250.0,2,C17HP,233,train
560.417890548706,5,3,0,4,2,1,H+,1,0,2,0,1000,250.0,0,C17HP,234,train
720.9570407867432,5,3,0,4,2,1,H+,1,0,2,0,1000,250.0,0,C17HP,235,train
528.5999774932861,5,3,0,4,2,1,H+,1,0,2,0,1000,250.0,0,C17HP,236,train
784.5458984375,5,3,0,4,2,1,H+,1,4,3,0,1000,250.0,4,C17HP,237,train
1072.3979473114014,5,3,0,4,2,1,H+,1,2,4,0,1000,250.0,2,C17HP,238,train
880.3000450134277,5,3,0,4,2,1,H+,1,0,2,0,1000,250.0,0,C17HP,239,train
576.7059326171875,5,3,0,4,2,1,H+,1,4,3,0,1000,250.0,4,C17HP,240,train
640.9940719604492,5,3,0,4,2,1,H+,1,1,5,0,1000,250.0,1,C17HP,241,train
464.9021625518799,5,3,0,4,2,1,H+,1,4,3,0,1000,250.0,4,C17HP,242,train
608.5360050201416,5,3,0,4,2,1,H+,1,0,2,0,1000,250.0,0,C17HP,243,train
576.556921005249,5,3,0,4,2,1,H+,1,3,1,0,1000,250.0,3,C17HP,244,train
624.3009567260742,5,3,0,4,2,1,H+,1,4,3,0,1000,250.0,4,C17HP,245,train
622.0629215240479,5,3,0,4,2,1,H+,1,0,2,0,1000,250.0,0,C17HP,246,train
673.1178760528564,5,3,0,4,2,1,H+,1,2,4,0,1000,250.0,2,C17HP,247,train
560.9891414642334,5,3,0,4,2,1,H+,1,3,1,0,1000,250.0,3,C17HP,248,train
528.721809387207,5,3,0,4,2,1,H+,1,4,3,0,1000,250.0,4,C17HP,249,train
1296.2498664855957,5,3,0,4,2,1,H+,1,5,0,0,1000,250.0,5,C17HP,250,test
960.4752063751221,5,3,0,4,2,1,H+,1,0,2,0,1000,250.0,0,C17HP,251,test
992.2759532928467,5,3,0,4,2,1,H+,1,5,0,0,1000,250.0,5,C17HP,252,test
848.9360809326172,5,3,0,4,2,1,H+,1,1,5,0,1000,250.0,1,C17HP,253,test
640.9928798675537,5,3,0,4,2,1,H+,1,1,5,0,1000,250.0,1,C17HP,254,test
625.0810623168945,5,3,0,4,2,1,H+,1,1,5,0,1000,250.0,1,C17HP,255,test
816.4820671081543,5,3,0,4,2,1,H+,1,0,2,0,1000,250.0,0,C17HP,256,test
623.6119270324707,5,3,0,4,2,1,H+,1,1,5,0,1000,250.0,1,C17HP,257,test
768.9130306243896,5,3,0,4,2,1,H+,1,2,4,0,1000,250.0,2,C17HP,258,test
624.5429515838623,5,3,0,4,2,1,H+,1,0,2,0,1000,250.0,0,C17HP,259,test
1008.6150169372559,5,3,0,4,2,1,H+,1,4,3,0,1000,250.0,4,C17HP,260,test
688.3368492126465,5,3,0,4,2,1,H+,1,4,3,0,1000,250.0,4,C17HP,261,test
593.3511257171631,5,3,0,4,2,1,H+,1,2,4,0,1000,250.0,2,C17HP,262,test
672.5060939788818,5,3,0,4,2,1,H+,1,0,2,0,1000,250.0,0,C17HP,263,test
577.117919921875,5,3,0,4,2,1,H+,1,2,4,0,1000,250.0,2,C17HP,264,test
816.4310455322266,5,3,0,4,2,1,H+,1,5,0,0,1000,250.0,5,C17HP,265,test
609.1301441192627,5,3,0,4,2,1,H+,1,3,1,0,1000,250.0,3,C17HP,266,test
480.40294647216797,5,3,0,4,2,1,H+,1,0,2,0,1000,250.0,0,C17HP,267,test
559.2441558837891,5,3,0,4,2,1,H+,1,2,4,0,1000,250.0,2,C17HP,268,test
625.6089210510254,5,3,0,4,2,1,H+,1,3,1,0,1000,250.0,3,C17HP,269,test
656.6028594970703,5,3,0,4,2,1,H+,0,1,5,0,1000,250.0,4,C17HP,270,test
609.0841293334961,5,3,0,4,2,1,H+,1,1,5,0,1000,250.0,1,C17HP,271,test
609.0359687805176,5,3,0,4,2,1,H+,1,1,5,0,1000,250.0,1,C17HP,272,test
657.1488380432129,5,3,0,4,2,1,H+,1,3,1,0,1000,250.0,3,C17HP,273,test
945.106029510498,5,3,0,4,2,1,H+,1,0,2,0,1000,250.0,0,C17HP,274,test
784.5399379730225,5,3,0,4,2,1,H+,1,1,5,0,1000,250.0,1,C17HP,275,test
560.1909160614014,5,3,0,4,2,1,H+,1,2,4,0,1000,250.0,2,C17HP,276,test
704.334020614624,5,3,0,4,2,1,H+,1,4,3,0,1000,250.0,4,C17HP,277,test
609.044075012207,5,3,0,4,2,1,H+,1,0,2,0,1000,250.0,0,C17HP,278,test
513.2808685302734,5,3,0,4,2,1,H+,1,3,1,0,1000,250.0,3,C17HP,279,test
736.2890243530273,5,3,0,4,2,1,H+,1,1,5,0,1000,250.0,1,C17HP,280,test
736.6530895233154,5,3,0,4,2,1,H+,1,0,2,0,1000,250.0,0,C17HP,281,test
736.4869117736816,5,3,0,4,2,1,H+,1,4,3,0,1000,250.0,4,C17HP,282,test
592.5028324127197,5,3,0,4,2,1,H+,1,3,1,0,1000,250.0,3,C17HP,283,test
576.5390396118164,5,3,0,4,2,1,H+,1,2,4,0,1000,250.0,2,C17HP,284,test
864.5670413970947,5,3,0,4,2,1,H+,1,1,5,0,1000,250.0,1,C17HP,285,test
752.5768280029297,5,3,0,4,2,1,H+,1,4,3,0,1000,250.0,4,C17HP,286,test
832.5150012969971,5,3,0,4,2,1,H+,1,2,4,0,1000,250.0,2,C17HP,287,test
592.6809310913086,5,3,0,4,2,1,H+,1,3,1,0,1000,250.0,3,C17HP,288,test
560.2490901947021,5,3,0,4,2,1,H+,1,0,2,0,1000,250.0,0,C17HP,289,test
576.5140056610107,5,3,0,4,2,1,H+,1,3,1,0,1000,250.0,3,C17HP,290,test
656.3200950622559,5,3,0,4,2,1,H+,1,1,5,0,1000,250.0,1,C17HP,291,test
656.9478511810303,5,3,0,4,2,1,H+,1,2,4,0,1000,250.0,2,C17HP,292,test
673.0730533599854,5,3,0,4,2,1,H+,1,1,5,0,1000,250.0,1,C17HP,293,test
512.2239589691162,5,3,0,4,2,1,H+,1,1,5,0,1000,250.0,1,C17HP,294,test
529.2749404907227,5,3,0,4,2,1,H+,1,3,1,0,1000,250.0,3,C17HP,295,test
800.562858581543,5,3,0,4,2,1,H+,1,4,3,0,1000,250.0,4,C17HP,296,test
673.0220317840576,5,3,0,4,2,1,H+,1,0,2,0,1000,250.0,0,C17HP,297,test
992.2411441802979,5,3,0,4,2,1,H+,1,0,2,0,1000,250.0,0,C17HP,298,test
672.3089218139648,5,3,0,4,2,1,H+,1,1,5,0,1000,250.0,1,C17HP,299,test
560.2459907531738,5,3,0,4,2,1,H+,1,3,1,0,1000,250.0,3,C17HP,300,test
736.5150451660156,5,3,0,4,2,1,H+,1,3,1,0,1000,250.0,3,C17HP,301,test
960.1490497589111,5,3,0,4,2,1,H+,1,5,0,0,1000,250.0,5,C17HP,302,test
705.0280570983887,5,3,0,4,2,1,H+,1,3,1,0,1000,250.0,3,C17HP,303,test
912.9319190979004,5,3,0,4,2,1,H+,1,1,5,0,1000,250.0,1,C17HP,304,test
720.4239368438721,5,3,0,4,2,1,H+,1,4,3,0,1000,250.0,4,C17HP,305,test
545.0539588928223,5,3,0,4,2,1,H+,1,0,2,0,1000,250.0,0,C17HP,306,test
479.4650077819824,5,3,0,4,2,1,H+,1,3,1,0,1000,250.0,3,C17HP,307,test
576.4620304107666,5,3,0,4,2,1,H+,1,4,3,0,1000,250.0,4,C17HP,308,test
417.33598709106445,5,3,0,4,2,1,H+,1,3,1,0,1000,250.0,3,C17HP,309,test
576.2579441070557,5,3,0,4,2,1,H+,1,2,4,0,1000,250.0,2,C17HP,310,test
496.3030815124512,5,3,0,4,2,1,H+,1,3,1,0,1000,250.0,3,C17HP,311,test
432.5218200683594,5,3,0,4,2,1,H+,1,0,2,0,1000,250.0,0,C17HP,312,test
513.1609439849854,5,3,0,4,2,1,H+,0,1,5,0,1000,250.0,4,C17HP,313,test
512.4750137329102,5,3,0,4,2,1,H+,1,3,1,0,1000,250.0,3,C17HP,314,test
512.8848552703857,5,3,0,4,2,1,H+,1,3,1,0,1000,250.0,3,C17HP,315,test
464.14685249328613,5,3,0,4,2,1,H+,1,3,1,0,1000,250.0,3,C17HP,316,test
608.475923538208,5,3,0,4,2,1,H+,1,1,5,0,1000,250.0,1,C17HP,317,test
608.6499691009521,5,3,0,4,2,1,H+,1,3,1,0,1000,250.0,3,C17HP,318,test
624.945878982544,5,3,0,4,2,1,H+,1,5,0,0,1000,250.0,5,C17HP,319,test
640.2859687805176,5,3,0,4,2,1,H+,1,4,3,0,1000,250.0,4,C17HP,320,test
608.5062026977539,5,3,0,4,2,1,H+,1,4,3,0,1000,250.0,4,C17HP,321,test
1089.1120433807373,5,3,0,4,2,1,H+,1,2,4,0,1000,250.0,2,C17HP,322,test
593.1820869445801,5,3,0,4,2,1,H+,1,3,1,0,1000,250.0,3,C17HP,323,test
608.5541248321533,5,3,0,4,2,1,H+,1,0,2,0,1000,250.0,0,C17HP,324,test
768.930196762085,5,3,0,4,2,1,H+,1,1,5,0,1000,250.0,1,C17HP,325,test
657.5729846954346,5,3,0,4,2,1,H+,1,5,0,0,1000,250.0,5,C17HP,326,test
768.5458660125732,5,3,0,4,2,1,H+,1,1,5,0,1000,250.0,1,C17HP,327,test
656.2960147857666,5,3,0,4,2,1,H+,1,3,1,0,1000,250.0,3,C17HP,328,test
561.0830783843994,5,3,0,4,2,1,H+,1,3,1,0,1000,250.0,3,C17HP,329,test
911.452054977417,5,3,0,4,2,1,H+,1,5,0,0,1000,250.0,5,C17HP,330,test
544.6269512176514,5,3,0,4,2,1,H+,1,5,0,0,1000,250.0,5,C17HP,331,test
545.0770854949951,5,3,0,4,2,1,H+,1,0,2,0,1000,250.0,0,C17HP,332,test
592.9551124572754,5,3,0,4,2,1,H+,1,0,2,0,1000,250.0,0,C17HP,333,test
496.52886390686035,5,3,0,4,2,1,H+,1,0,2,0,1000,250.0,0,C17HP,334,test
1088.515043258667,5,3,0,4,2,1,H+,1,2,4,0,1000,250.0,2,C17HP,335,test
926.4841079711914,5,3,0,4,2,1,H+,1,5,0,0,1000,250.0,5,C17HP,336,test
704.6658992767334,5,3,0,4,2,1,H+,1,1,5,0,1000,250.0,1,C17HP,337,test
560.2779388427734,5,3,0,4,2,1,H+,1,2,4,0,1000,250.0,2,C17HP,338,test
721.1658954620361,5,3,0,4,2,1,H+,0,4,3,0,1000,250.0,1,C17HP,339,test
672.6608276367188,5,3,0,4,2,1,H+,1,5,0,0,1000,250.0,5,C17HP,340,test
624.6140003204346,5,3,0,4,2,1,H+,1,2,4,0,1000,250.0,2,C17HP,341,test
1008.8660717010498,5,3,0,4,2,1,H+,1,1,5,0,1000,250.0,1,C17HP,342,test
560.3129863739014,5,3,0,4,2,1,H+,1,2,4,0,1000,250.0,2,C17HP,343,test
625.067949295044,5,3,0,4,2,1,H+,1,4,3,0,1000,250.0,4,C17HP,344,test
560.032844543457,5,3,0,4,2,1,H+,1,0,2,0,1000,250.0,0,C17HP,345,test
577.0101547241211,5,3,0,4,2,1,H+,0,1,5,0,1000,250.0,4,C17HP,346,test
513.0369663238525,5,3,0,4,2,1,H+,1,2,4,0,1000,250.0,2,C17HP,347,test
641.002893447876,5,3,0,4,2,1,H+,1,4,3,0,1000,250.0,4,C17HP,348,test
497.2062110900879,5,3,0,4,2,1,H+,1,2,4,0,1000,250.0,2,C17HP,349,test
544.9450016021729,5,3,0,4,2,1,H+,1,5,0,0,1000,250.0,5,C17HP,350,test
496.49810791015625,5,3,0,4,2,1,H+,1,5,0,0,1000,250.0,5,C17HP,351,test
608.2589626312256,5,3,0,4,2,1,H+,1,3,1,0,1000,250.0,3,C17HP,352,test
384.33313369750977,5,3,0,4,2,1,H+,1,3,1,0,1000,250.0,3,C17HP,353,test
369.05503273010254,5,3,0,4,2,1,H+,1,3,1,0,1000,250.0,3,C17HP,354,test
561.1038208007812,5,3,0,4,2,1,H+,1,5,0,0,1000,250.0,5,C17HP,355,test
449.0780830383301,5,3,0,4,2,1,H+,1,5,0,0,1000,250.0,5,C17HP,356,test
624.7930526733398,5,3,0,4,2,1,H+,1,2,4,0,1000,250.0,2,C17HP,357,test
705.0449848175049,5,3,0,4,2,1,H+,1,1,5,0,1000,250.0,1,C17HP,358,test
641.139030456543,5,3,0,4,2,1,H+,1,3,1,0,1000,250.0,3,C17HP,359,test
352.86808013916016,5,3,0,4,2,1,H+,1,3,1,0,1000,250.0,3,C17HP,360,test
400.4530906677246,5,3,0,4,2,1,H+,1,3,1,0,1000,250.0,3,C17HP,361,test
529.1099548339844,5,3,0,4,2,1,H+,1,2,4,0,1000,250.0,2,C17HP,362,test
544.5060729980469,5,3,0,4,2,1,H+,1,0,2,0,1000,250.0,0,C17HP,363,test
608.6349487304688,5,3,0,4,2,1,H+,1,1,5,0,1000,250.0,1,C17HP,364,test
513.0918025970459,5,3,0,4,2,1,H+,1,1,5,0,1000,250.0,1,C17HP,365,test
608.2630157470703,5,3,0,4,2,1,H+,1,5,0,0,1000,250.0,5,C17HP,366,test
577.1169662475586,5,3,0,4,2,1,H+,1,3,1,0,1000,250.0,3,C17HP,367,test
576.4288902282715,5,3,0,4,2,1,H+,1,0,2,0,1000,250.0,0,C17HP,368,test
720.5870151519775,5,3,0,4,2,1,H+,1,4,3,0,1000,250.0,4,C17HP,369,test
720.5710411071777,5,3,0,4,2,1,H+,1,2,4,0,1000,250.0,2,C17HP,370,test
528.846025466919,5,3,0,4,2,1,H+,1,5,0,0,1000,250.0,5,C17HP,371,test
800.346851348877,5,3,0,4,2,1,H+,1,2,4,0,1000,250.0,2,C17HP,372,test
800.6591796875,5,3,0,4,2,1,H+,1,5,0,0,1000,250.0,5,C17HP,373,test
704.7910690307617,5,3,0,4,2,1,H+,1,1,5,0,1000,250.0,1,C17HP,374,test
592.3609733581543,5,3,0,4,2,1,H+,1,0,2,0,1000,250.0,0,C17HP,375,test
640.1209831237793,5,3,0,4,2,1,H+,1,0,2,0,1000,250.0,0,C17HP,376,test
768.5251235961914,5,3,0,4,2,1,H+,1,1,5,0,1000,250.0,1,C17HP,377,test
577.8670310974121,5,3,0,4,2,1,H+,1,0,2,0,1000,250.0,0,C17HP,378,test
720.379114151001,5,3,0,4,2,1,H+,1,2,4,0,1000,250.0,2,C17HP,379,test
512.3200416564941,5,3,0,4,2,1,H+,1,2,4,0,1000,250.0,2,C17HP,380,test
576.5149593353271,5,3,0,4,2,1,H+,1,2,4,0,1000,250.0,2,C17HP,381,test
641.0200595855713,5,3,0,4,2,1,H+,1,0,2,0,1000,250.0,0,C17HP,382,test
1248.2869625091553,5,3,0,4,2,1,H+,1,5,0,0,1000,250.0,5,C17HP,383,test
448.62890243530273,5,3,0,4,2,1,H+,1,3,1,0,1000,250.0,3,C17HP,384,test
512.8319263458252,5,3,0,4,2,1,H+,1,0,2,0,1000,250.0,0,C17HP,385,test
496.2160587310791,5,3,0,4,2,1,H+,1,0,2,0,1000,250.0,0,C17HP,386,test
752.2420883178711,5,3,0,4,2,1,H+,1,5,0,0,1000,250.0,5,C17HP,387,test
542.7229404449463,5,3,0,4,2,1,H+,1,1,5,0,1000,250.0,1,C17HP,388,test
624.600887298584,5,3,0,4,2,1,H+,1,5,0,0,1000,250.0,5,C17HP,389,test
768.4950828552246,5,3,0,4,2,1,H+,1,4,3,0,1000,250.0,4,C17HP,390,test
767.5149440765381,5,3,0,4,2,1,H+,1,0,2,0,1000,250.0,0,C17HP,391,test
672.2280979156494,5,3,0,4,2,1,H+,0,1,5,0,1000,250.0,0,C17HP,392,test
480.273962020874,5,3,0,4,2,1,H+,1,3,1,0,1000,250.0,3,C17HP,393,test
608.544111251831,5,3,0,4,2,1,H+,1,0,2,0,1000,250.0,0,C17HP,394,test
496.54483795166016,5,3,0,4,2,1,H+,1,0,2,0,1000,250.0,0,C17HP,395,test
769.146203994751,5,3,0,4,2,1,H+,1,1,5,0,1000,250.0,1,C17HP,396,test
640.4149532318115,5,3,0,4,2,1,H+,1,3,1,0,1000,250.0,3,C17HP,397,test
1025.0020027160645,5,3,0,4,2,1,H+,1,4,3,0,1000,250.0,4,C17HP,398,test
607.6099872589111,5,3,0,4,2,1,H+,1,3,1,0,1000,250.0,3,C17HP,399,test
672.2090244293213,5,3,0,4,2,1,H+,1,0,2,0,1000,250.0,0,C17HP,400,test
816.5910243988037,5,3,0,4,2,1,H+,1,4,3,0,1000,250.0,4,C17HP,401,test
704.5080661773682,5,3,0,4,2,1,H+,1,0,2,0,1000,250.0,0,C17HP,402,test
593.0829048156738,5,3,0,4,2,1,H+,1,3,1,0,1000,250.0,3,C17HP,403,test
640.3801441192627,5,3,0,4,2,1,H+,1,5,0,0,1000,250.0,5,C17HP,404,test
688.8079643249512,5,3,0,4,2,1,H+,1,0,2,0,1000,250.0,0,C17HP,405,test
768.3711051940918,5,3,0,4,2,1,H+,1,1,5,0,1000,250.0,1,C17HP,406,test
656.1310291290283,5,3,0,4,2,1,H+,1,5,0,0,1000,250.0,5,C17HP,407,test
720.9808826446533,5,3,0,4,2,1,H+,1,4,3,0,1000,250.0,4,C17HP,408,test
1344.357967376709,5,3,0,4,2,1,H+,1,5,0,0,1000,250.0,5,C17HP,409,test
881.0129165649414,5,3,0,4,2,1,H+,1,0,2,0,1000,250.0,0,C17HP,410,test
624.4080066680908,5,3,0,4,2,1,H+,1,5,0,0,1000,250.0,5,C17HP,411,test
752.8760433197021,5,3,0,4,2,1,H+,1,0,2,0,1000,250.0,0,C17HP,412,test
848.8740921020508,5,3,0,4,2,1,H+,1,1,5,0,1000,250.0,1,C17HP,413,test
624.6829032897949,5,3,0,4,2,1,H+,1,2,4,0,1000,250.0,2,C17HP,414,test
654.5910835266113,5,3,0,4,2,1,H+,1,0,2,0,1000,250.0,0,C17HP,415,test
576.9920349121094,5,3,0,4,2,1,H+,1,2,4,0,1000,250.0,2,C17HP,416,test
496.9220161437988,5,3,0,4,2,1,H+,1,3,1,0,1000,250.0,3,C17HP,417,test
993.0651187896729,5,3,0,4,2,1,H+,1,4,3,0,1000,250.0,4,C17HP,418,test
688.6589527130127,5,3,0,4,2,1,H+,1,1,5,0,1000,250.0,1,C17HP,419,test
784.9080562591553,5,3,0,4,2,1,H+,0,5,0,0,1000,250.0,2,C17HP,420,test
704.5021057128906,5,3,0,4,2,1,H+,1,4,3,0,1000,250.0,4,C17HP,421,test
832.3309421539307,5,3,0,4,2,1,H+,1,0,2,0,1000,250.0,0,C17HP,422,test
464.8308753967285,5,3,0,4,2,1,H+,1,3,1,0,1000,250.0,3,C17HP,423,test
576.3709545135498,5,3,0,4,2,1,H+,1,5,0,0,1000,250.0,5,C17HP,424,test
624.4111061096191,5,3,0,4,2,1,H+,1,2,4,0,1000,250.0,2,C17HP,425,test
752.2890567779541,5,3,0,4,2,1,H+,1,5,0,0,1000,250.0,5,C17HP,426,test
433.10093879699707,5,3,0,4,2,1,H+,1,2,4,0,1000,250.0,2,C17HP,427,test
560.5740547180176,5,3,0,4,2,1,H+,1,3,1,0,1000,250.0,3,C17HP,428,test
1072.4499225616455,5,3,0,4,2,1,H+,1,0,2,0,1000,250.0,0,C17HP,429,test
785.0711345672607,5,3,0,4,2,1,H+,1,5,0,0,1000,250.0,5,C17HP,430,test
528.8708209991455,5,3,0,4,2,1,H+,1,5,0,0,1000,250.0,5,C17HP,431,test
656.4111709594727,5,3,0,4,2,1,H+,1,0,2,0,1000,250.0,0,C17HP,432,test
736.5438938140869,5,3,0,4,2,1,H+,1,1,5,0,1000,250.0,1,C17HP,433,test
721.0519313812256,5,3,0,4,2,1,H+,1,2,4,0,1000,250.0,2,C17HP,434,test
609.0381145477295,5,3,0,4,2,1,H+,1,4,3,0,1000,250.0,4,C17HP,435,test
529.0648937225342,5,3,0,4,2,1,H+,1,2,4,0,1000,250.0,2,C17HP,436,test
753.864049911499,5,3,0,4,2,1,H+,1,2,4,0,1000,250.0,2,C17HP,437,test
752.9129981994629,5,3,0,4,2,1,H+,1,1,5,0,1000,250.0,1,C17HP,438,test
608.8540554046631,5,3,0,4,2,1,H+,1,4,3,0,1000,250.0,4,C17HP,439,test
544.4397926330566,5,3,0,4,2,1,H+,1,1,5,0,1000,250.0,1,C17HP,440,test
736.4580631256104,5,3,0,4,2,1,H+,1,4,3,0,1000,250.0,4,C17HP,441,test
528.5599231719971,5,3,0,4,2,1,H+,1,4,3,0,1000,250.0,4,C17HP,442,test
672.5640296936035,5,3,0,4,2,1,H+,1,1,5,0,1000,250.0,1,C17HP,443,test
784.7418785095215,5,3,0,4,2,1,H+,1,5,0,0,1000,250.0,5,C17HP,444,test
848.9909172058105,5,3,0,4,2,1,H+,1,1,5,0,1000,250.0,1,C17HP,445,test
833.2710266113281,5,3,0,4,2,1,H+,1,3,1,0,1000,250.0,3,C17HP,446,test
577.1219730377197,5,3,0,4,2,1,H+,1,5,0,0,1000,250.0,5,C17HP,447,test
1088.8988971710205,5,3,0,4,2,1,H+,1,4,3,0,1000,250.0,4,C17HP,448,test
768.4030532836914,5,3,0,4,2,1,H+,1,1,5,0,1000,250.0,1,C17HP,449,test
544.3549156188965,5,3,0,4,2,1,H+,1,3,1,0,1000,250.0,3,C17HP,450,test
464.53213691711426,5,3,0,4,2,1,H+,1,3,1,0,1000,250.0,3,C17HP,451,test
816.0479068756104,5,3,0,4,2,1,H+,1,2,4,0,1000,250.0,2,C17HP,452,test
560.85205078125,5,3,0,4,2,1,H+,1,5,0,0,1000,250.0,5,C17HP,453,test
800.6691932678223,5,3,0,4,2,1,H+,1,0,2,0,1000,250.0,0,C17HP,454,test
766.171932220459,5,3,0,4,2,1,H+,1,1,5,0,1000,250.0,1,C17HP,455,test
560.6489181518555,5,3,0,4,2,1,H+,1,3,1,0,1000,250.0,3,C17HP,456,test
817.0599937438965,5,3,0,4,2,1,H+,1,5,0,0,1000,250.0,5,C17HP,457,test
736.9720935821533,5,3,0,4,2,1,H+,1,0,2,0,1000,250.0,0,C17HP,458,test
609.0400218963623,5,3,0,4,2,1,H+,1,4,3,0,1000,250.0,4,C17HP,459,test
576.362133026123,5,3,0,4,2,1,H+,1,4,3,0,1000,250.0,4,C17HP,460,test
864.6900653839111,5,3,0,4,2,1,H+,1,2,4,0,1000,250.0,2,C17HP,461,test
736.6049289703369,5,3,0,4,2,1,H+,1,2,4,0,1000,250.0,2,C17HP,462,test
768.8601016998291,5,3,0,4,2,1,H+,1,1,5,0,1000,250.0,1,C17HP,463,test
704.460859298706,5,3,0,4,2,1,H+,1,0,2,0,1000,250.0,0,C17HP,464,test
976.5799045562744,5,3,0,4,2,1,H+,1,1,5,0,1000,250.0,1,C17HP,465,test
768.9599990844727,5,3,0,4,2,1,H+,1,2,4,0,1000,250.0,2,C17HP,466,test
976.3920307159424,5,3,0,4,2,1,H+,1,5,0,0,1000,250.0,5,C17HP,467,test
913.0539894104004,5,3,0,4,2,1,H+,1,4,3,0,1000,250.0,4,C17HP,468,test
769.0391540527344,5,3,0,4,2,1,H+,1,3,1,0,1000,250.0,3,C17HP,469,test
736.4039421081543,5,3,0,4,2,1,H+,1,5,0,0,1000,250.0,5,C17HP,470,test
832.8680992126465,5,3,0,4,2,1,H+,1,1,5,0,1000,250.0,1,C17HP,471,test
736.3431453704834,5,3,0,4,2,1,H+,1,4,3,0,1000,250.0,4,C17HP,472,test
624.8700618743896,5,3,0,4,2,1,H+,1,0,2,0,1000,250.0,0,C17HP,473,test
656.3260555267334,5,3,0,4,2,1,H+,1,4,3,0,1000,250.0,4,C17HP,474,test
624.9620914459229,5,3,0,4,2,1,H+,1,5,0,0,1000,250.0,5,C17HP,475,test
529.0141105651855,5,3,0,4,2,1,H+,1,5,0,0,1000,250.0,5,C17HP,476,test
593.0609703063965,5,3,0,4,2,1,H+,1,0,2,0,1000,250.0,0,C17HP,477,test
688.3361339569092,5,3,0,4,2,1,H+,1,4,3,0,1000,250.0,4,C17HP,478,test
800.5921840667725,5,3,0,4,2,1,H+,1,2,4,0,1000,250.0,2,C17HP,479,test
656.4021110534668,5,3,0,4,2,1,H+,1,0,2,0,1000,250.0,0,C17HP,480,test
689.0690326690674,5,3,0,4,2,1,H+,1,4,3,0,1000,250.0,4,C17HP,481,test
480.58605194091797,5,3,0,4,2,1,H+,1,2,4,0,1000,250.0,2,C17HP,482,test
544.389009475708,5,3,0,4,2,1,H+,1,0,2,0,1000,250.0,0,C17HP,483,test
544.2540645599365,5,3,0,4,2,1,H+,1,2,4,0,1000,250.0,2,C17HP,484,test
512.4180316925049,5,3,0,4,2,1,H+,1,0,2,0,1000,250.0,0,C17HP,485,test
496.80495262145996,5,3,0,4,2,1,H+,1,3,1,0,1000,250.0,3,C17HP,486,test
592.1859741210938,5,3,0,4,2,1,H+,1,1,5,0,1000,250.0,1,C17HP,487,test
526.7441272735596,5,3,0,4,2,1,H+,1,3,1,0,1000,250.0,3,C17HP,488,test
640.3629779815674,5,3,0,4,2,1,H+,1,1,5,0,1000,250.0,1,C17HP,489,test
624.9630451202393,5,3,0,4,2,1,H+,1,0,2,0,1000,250.0,0,C17HP,490,test
608.529806137085,5,3,0,4,2,1,H+,1,1,5,0,1000,250.0,1,C17HP,491,test
865.196943283081,5,3,0,4,2,1,H+,1,2,4,0,1000,250.0,2,C17HP,492,test
624.1509914398193,5,3,0,4,2,1,H+,1,4,3,0,1000,250.0,4,C17HP,493,test
961.0269069671631,5,3,0,4,2,1,H+,1,5,0,0,1000,250.0,5,C17HP,494,test
574.6960639953613,5,3,0,4,2,1,H+,1,2,4,0,1000,250.0,2,C17HP,495,test
783.6711406707764,5,3,0,4,2,1,H+,1,4,3,0,1000,250.0,4,C17HP,496,test
688.6060237884521,5,3,0,4,2,1,H+,1,2,4,0,1000,250.0,2,C17HP,497,test
608.3240509033203,5,3,0,4,2,1,H+,1,0,2,0,1000,250.0,0,C17HP,498,test
992.45285987854,5,3,0,4,2,1,H+,1,3,1,0,1000,250.0,3,C17HP,499,test
