RT,SRmap_0,SRmap_1,SRmap_2,SRmap_3,SRmap_4,SRmap_5,condition,correct,correct_response,curstim,ms-precue,ms-prestimblank,ntrials,response,subject,trial,type
522.5651264190674,2,4,0,3,1,5,E-,0,1,4,400,600,250.0,0,C24JG,0,train
683.1119060516357,2,4,0,3,1,5,E-,1,4,1,400,600,250.0,4,C24JG,1,train
138.89384269714355,2,4,0,3,1,5,E-,1,1,4,400,600,250.0,1,C24JG,2,train
346.98009490966797,2,4,0,3,1,5,E-,1,3,3,400,600,250.0,3,C24JG,3,train
74.68295097351074,2,4,0,3,1,5,E-,1,1,4,400,600,250.0,1,C24JG,4,train
74.89299774169922,2,4,0,3,1,5,E-,1,2,0,400,600,250.0,2,C24JG,5,train
74.58901405334473,2,4,0,3,1,5,E-,1,0,2,400,600,250.0,0,C24JG,6,train
1242.9380416870117,2,4,0,3,1,5,E-,1,2,0,400,600,250.0,2,C24JG,7,train
410.9010696411133,2,4,0,3,1,5,E-,0,5,5,400,600,250.0,4,C24JG,8,train
266.89815521240234,2,4,0,3,1,5,E-,1,1,4,400,600,250.0,1,C24JG,9,train
203.02987098693848,2,4,0,3,1,5,E-,1,3,3,400,600,250.0,3,C24JG,10,train
154.98113632202148,2,4,0,3,1,5,E-,1,4,1,400,600,250.0,4,C24JG,11,train
59.146881103515625,2,4,0,3,1,5,E-,1,1,4,400,600,250.0,1,C24JG,12,train
171.22793197631836,2,4,0,3,1,5,E-,0,4,1,400,600,250.0,3,C24JG,13,train
138.9021873474121,2,4,0,3,1,5,E-,1,0,2,400,600,250.0,0,C24JG,14,train
202.1801471710205,2,4,0,3,1,5,E-,1,0,2,400,600,250.0,0,C24JG,15,train
122.99609184265137,2,4,0,3,1,5,E-,0,3,3,400,600,250.0,2,C24JG,16,train
73.94695281982422,2,4,0,3,1,5,E-,1,1,4,400,600,250.0,1,C24JG,17,train
170.71199417114258,2,4,0,3,1,5,E-,0,3,3,400,600,250.0,4,C24JG,18,train
75.05416870117188,2,4,0,3,1,5,E-,1,1,4,400,600,250.0,1,C24JG,19,train
954.7410011291504,2,4,0,3,1,5,E-,1,5,5,400,600,250.0,5,C24JG,20,train
250.91981887817383,2,4,0,3,1,5,E-,1,2,0,400,600,250.0,2,C24JG,21,train
123.10004234313965,2,4,0,3,1,5,E-,1,0,2,400,600,250.0,0,C24JG,22,train
122.9867935180664,2,4,0,3,1,5,E-,1,2,0,400,600,250.0,2,C24JG,23,train
43.10202598571777,2,4,0,3,1,5,E-,1,0,2,400,600,250.0,0,C24JG,24,train
26.86905860900879,2,4,0,3,1,5,E-,1,5,5,400,600,250.0,5,C24JG,25,train
58.969974517822266,2,4,0,3,1,5,E-,1,0,2,400,600,250.0,0,C24JG,26,train
218.79220008850098,2,4,0,3,1,5,E-,1,3,3,400,600,250.0,3,C24JG,27,train
155.08389472961426,2,4,0,3,1,5,E-,1,2,0,400,600,250.0,2,C24JG,28,train
555.2918910980225,2,4,0,3,1,5,E-,1,4,1,400,600,250.0,4,C24JG,29,train
40.595054626464844,2,4,0,3,1,5,E-,0,4,1,400,600,250.0,3,C24JG,30,train
107.18202590942383,2,4,0,3,1,5,E-,1,1,4,400,600,250.0,1,C24JG,31,train
570.904016494751,2,4,0,3,1,5,E-,1,3,3,400,600,250.0,3,C24JG,32,train
43.219804763793945,2,4,0,3,1,5,E-,1,0,2,400,600,250.0,0,C24JG,33,train
283.1602096557617,2,4,0,3,1,5,E-,1,4,1,400,600,250.0,4,C24JG,34,train
26.87692642211914,2,4,0,3,1,5,E-,1,4,1,400,600,250.0,4,C24JG,35,train
59.06176567077637,2,4,0,3,1,5,E-,1,3,3,400,600,250.0,3,C24JG,36,train
10.51783561706543,2,4,0,3,1,5,E-,1,1,4,400,600,250.0,1,C24JG,37,train
523.0011940002441,2,4,0,3,1,5,E-,1,0,2,400,600,250.0,0,C24JG,38,train
42.922019958496094,2,4,0,3,1,5,E-,1,2,0,400,600,250.0,2,C24JG,39,train
42.93680191040039,2,4,0,3,1,5,E-,1,1,4,400,600,250.0,1,C24JG,40,train
26.91507339477539,2,4,0,3,1,5,E-,1,3,3,400,600,250.0,3,C24JG,41,train
107.09190368652344,2,4,0,3,1,5,E-,1,1,4,400,600,250.0,1,C24JG,42,train
522.2210884094238,2,4,0,3,1,5,E-,1,1,4,400,600,250.0,1,C24JG,43,train
219.05088424682617,2,4,0,3,1,5,E-,1,4,1,400,600,250.0,4,C24JG,44,train
58.988094329833984,2,4,0,3,1,5,E-,1,5,5,400,600,250.0,5,C24JG,45,train
0.164031982421875,2,4,0,3,1,5,E-,1,0,2,400,600,250.0,0,C24JG,46,train
75.00195503234863,2,4,0,3,1,5,E-,1,2,0,400,600,250.0,2,C24JG,47,train
59.216976165771484,2,4,0,3,1,5,E-,1,1,4,400,600,250.0,1,C24JG,48,train
2043.1230068206787,2,4,0,3,1,5,E-,1,1,4,400,600,250.0,1,C24JG,49,train
0.1850128173828125,2,4,0,3,1,5,E-,1,2,0,400,600,250.0,2,C24JG,50,train
235.137939453125,2,4,0,3,1,5,E-,1,1,4,400,600,250.0,1,C24JG,51,train
394.87600326538086,2,4,0,3,1,5,E-,1,1,4,400,600,250.0,1,C24JG,52,train
248.99005889892578,2,4,0,3,1,5,E-,0,4,1,400,600,250.0,3,C24JG,53,train
59.1280460357666,2,4,0,3,1,5,E-,1,2,0,400,600,250.0,2,C24JG,54,train
0.15592575073242188,2,4,0,3,1,5,E-,1,2,0,400,600,250.0,2,C24JG,55,train
346.9228744506836,2,4,0,3,1,5,E-,1,2,0,400,600,250.0,2,C24JG,56,train
27.0540714263916,2,4,0,3,1,5,E-,1,2,0,400,600,250.0,2,C24JG,57,train
187.10803985595703,2,4,0,3,1,5,E-,1,3,3,400,600,250.0,3,C24JG,58,train
43.09892654418945,2,4,0,3,1,5,E-,1,3,3,400,600,250.0,3,C24JG,59,train
378.8738250732422,2,4,0,3,1,5,E-,1,4,1,400,600,250.0,4,C24JG,60,train
107.01608657836914,2,4,0,3,1,5,E-,1,2,0,400,600,250.0,2,C24JG,61,train
297.6810932159424,2,4,0,3,1,5,E-,1,2,0,400,600,250.0,2,C24JG,62,train
107.08093643188477,2,4,0,3,1,5,E-,1,5,5,400,600,250.0,5,C24JG,63,train
394.61493492126465,2,4,0,3,1,5,E-,1,0,2,400,600,250.0,0,C24JG,64,train
59.0670108795166,2,4,0,3,1,5,E-,1,1,4,400,600,250.0,1,C24JG,65,train
24.71613883972168,2,4,0,3,1,5,E-,1,0,2,400,600,250.0,0,C24JG,66,train
75.0429630279541,2,4,0,3,1,5,E-,1,1,4,400,600,250.0,1,C24JG,67,train
203.11713218688965,2,4,0,3,1,5,E-,1,2,0,400,600,250.0,2,C24JG,68,train
506.60204887390137,2,4,0,3,1,5,E-,1,4,1,400,600,250.0,4,C24JG,69,train
42.92488098144531,2,4,0,3,1,5,E-,1,4,1,400,600,250.0,4,C24JG,70,train
42.849063873291016,2,4,0,3,1,5,E-,1,2,0,400,600,250.0,2,C24JG,71,train
314.0411376953125,2,4,0,3,1,5,E-,1,0,2,400,600,250.0,0,C24JG,72,train
250.99706649780273,2,4,0,3,1,5,E-,1,1,4,400,600,250.0,1,C24JG,73,train
219.14911270141602,2,4,0,3,1,5,E-,0,3,3,400,600,250.0,4,C24JG,74,train
26.91793441772461,2,4,0,3,1,5,E-,1,0,2,400,600,250.0,0,C24JG,75,train
187.05487251281738,2,4,0,3,1,5,E-,1,5,5,400,600,250.0,5,C24JG,76,train
26.938199996948242,2,4,0,3,1,5,E-,1,5,5,400,600,250.0,5,C24JG,77,train
394.7169780731201,2,4,0,3,1,5,E-,1,3,3,400,600,250.0,3,C24JG,78,train
267.15683937072754,2,4,0,3,1,5,E-,1,4,1,400,600,250.0,4,C24JG,79,train
203.19414138793945,2,4,0,3,1,5,E-,1,5,5,400,600,250.0,5,C24JG,80,train
74.98598098754883,2,4,0,3,1,5,E-,1,2,0,400,600,250.0,2,C24JG,81,train
11.143922805786133,2,4,0,3,1,5,E-,1,1,4,400,600,250.0,1,C24JG,82,train
123.3968734741211,2,4,0,3,1,5,E-,0,2,0,400,600,250.0,3,C24JG,83,train
27.11796760559082,2,4,0,3,1,5,E-,1,0,2,400,600,250.0,0,C24JG,84,train
72.48497009277344,2,4,0,3,1,5,E-,1,2,0,400,600,250.0,2,C24JG,85,train
26.983022689819336,2,4,0,3,1,5,E-,1,3,3,400,600,250.0,3,C24JG,86,train
0.16498565673828125,2,4,0,3,1,5,E-,1,0,2,400,600,250.0,0,C24JG,87,train
0.15401840209960938,2,4,0,3,1,5,E-,1,0,2,400,600,250.0,0,C24JG,88,train
523.0898857116699,2,4,0,3,1,5,E-,1,4,1,400,600,250.0,4,C24JG,89,train
331.0520648956299,2,4,0,3,1,5,E-,1,4,1,400,600,250.0,4,C24JG,90,train
72.65305519104004,2,4,0,3,1,5,E-,1,1,4,400,600,250.0,1,C24JG,91,train
331.0050964355469,2,4,0,3,1,5,E-,1,4,1,400,600,250.0,4,C24JG,92,train
107.1169376373291,2,4,0,3,1,5,E-,0,3,3,400,600,250.0,2,C24JG,93,train
75.07514953613281,2,4,0,3,1,5,E-,1,5,5,400,600,250.0,5,C24JG,94,train
0.17404556274414062,2,4,0,3,1,5,E-,1,5,5,400,600,250.0,5,C24JG,95,train
27.008056640625,2,4,0,3,1,5,E-,1,5,5,400,600,250.0,5,C24JG,96,train
91.20678901672363,2,4,0,3,1,5,E-,1,0,2,400,600,250.0,0,C24JG,97,train
234.9071502685547,2,4,0,3,1,5,E-,1,5,5,400,600,250.0,5,C24JG,98,train
59.02099609375,2,4,0,3,1,5,E-,1,4,1,400,600,250.0,4,C24JG,99,train
123.03304672241211,2,4,0,3,1,5,E-,1,2,0,400,600,250.0,2,C24JG,100,train
27.131080627441406,2,4,0,3,1,5,E-,1,2,0,400,600,250.0,2,C24JG,101,train
58.10713768005371,2,4,0,3,1,5,E-,1,5,5,400,600,250.0,5,C24JG,102,train
74.85318183898926,2,4,0,3,1,5,E-,1,2,0,400,600,250.0,2,C24JG,103,train
107.24687576293945,2,4,0,3,1,5,E-,1,3,3,400,600,250.0,3,C24JG,104,train
458.8179588317871,2,4,0,3,1,5,E-,1,1,4,400,600,250.0,1,C24JG,105,train
74.77903366088867,2,4,0,3,1,5,E-,0,3,3,400,600,250.0,2,C24JG,106,train
59.22508239746094,2,4,0,3,1,5,E-,1,5,5,400,600,250.0,5,C24JG,107,train
459.1538906097412,2,4,0,3,1,5,E-,1,3,3,400,600,250.0,3,C24JG,108,train
0.17595291137695312,2,4,0,3,1,5,E-,1,2,0,400,600,250.0,2,C24JG,109,train
9.538888931274414,2,4,0,3,1,5,E-,1,2,0,400,600,250.0,2,C24JG,110,train
91.094970703125,2,4,0,3,1,5,E-,1,4,1,400,600,250.0,4,C24JG,111,train
59.213876724243164,2,4,0,3,1,5,E-,1,5,5,400,600,250.0,5,C24JG,112,train
139.20998573303223,2,4,0,3,1,5,E-,1,1,4,400,600,250.0,1,C24JG,113,train
90.86489677429199,2,4,0,3,1,5,E-,1,0,2,400,600,250.0,0,C24JG,114,train
27.079105377197266,2,4,0,3,1,5,E-,1,0,2,400,600,250.0,0,C24JG,115,train
73.75407218933105,2,4,0,3,1,5,E-,1,4,1,400,600,250.0,4,C24JG,116,train
58.55607986450195,2,4,0,3,1,5,E-,0,2,0,400,600,250.0,1,C24JG,117,train
0.15401840209960938,2,4,0,3,1,5,E-,1,0,2,400,600,250.0,0,C24JG,118,train
314.8379325866699,2,4,0,3,1,5,E-,0,3,3,400,600,250.0,4,C24JG,119,train
10.584831237792969,2,4,0,3,1,5,E-,1,4,1,400,600,250.0,4,C24JG,120,train
474.4579792022705,2,4,0,3,1,5,E-,1,1,4,400,600,250.0,1,C24JG,121,train
331.1190605163574,2,4,0,3,1,5,E-,1,1,4,400,600,250.0,1,C24JG,122,train
427.0439147949219,2,4,0,3,1,5,E-,1,0,2,400,600,250.0,0,C24JG,123,train
331.0809135437012,2,4,0,3,1,5,E-,1,1,4,400,600,250.0,1,C24JG,124,train
75.18506050109863,2,4,0,3,1,5,E-,1,5,5,400,600,250.0,5,C24JG,125,train
122.99108505249023,2,4,0,3,1,5,E-,1,1,4,400,600,250.0,1,C24JG,126,train
122.86901473999023,2,4,0,3,1,5,E-,1,3,3,400,600,250.0,3,C24JG,127,train
27.20808982849121,2,4,0,3,1,5,E-,1,2,0,400,600,250.0,2,C24JG,128,train
75.09112358093262,2,4,0,3,1,5,E-,1,0,2,400,600,250.0,0,C24JG,129,train
91.02010726928711,2,4,0,3,1,5,E-,0,3,3,400,600,250.0,2,C24JG,130,train
43.12705993652344,2,4,0,3,1,5,E-,1,4,1,400,600,250.0,4,C24JG,131,train
362.8811836242676,2,4,0,3,1,5,E-,1,4,1,400,600,250.0,4,C24JG,132,train
282.6688289642334,2,4,0,3,1,5,E-,1,1,4,400,600,250.0,1,C24JG,133,train
59.0670108795166,2,4,0,3,1,5,E-,1,4,1,400,600,250.0,4,C24JG,134,train
74.70011711120605,2,4,0,3,1,5,E-,1,4,1,400,600,250.0,4,C24JG,135,train
27.2979736328125,2,4,0,3,1,5,E-,1,0,2,400,600,250.0,0,C24JG,136,train
27.143001556396484,2,4,0,3,1,5,E-,1,5,5,400,600,250.0,5,C24JG,137,train
43.200016021728516,2,4,0,3,1,5,E-,1,1,4,400,600,250.0,1,C24JG,138,train
106.8429946899414,2,4,0,3,1,5,E-,1,2,0,400,600,250.0,2,C24JG,139,train
75.10995864868164,2,4,0,3,1,5,E-,1,4,1,400,600,250.0,4,C24JG,140,train
0.15687942504882812,2,4,0,3,1,5,E-,1,5,5,400,600,250.0,5,C24JG,141,train
90.87610244750977,2,4,0,3,1,5,E-,1,5,5,400,600,250.0,5,C24JG,142,train
283.08892250061035,2,4,0,3,1,5,E-,1,4,1,400,600,250.0,4,C24JG,143,train
331.1920166015625,2,4,0,3,1,5,E-,1,1,4,400,600,250.0,1,C24JG,144,train
43.22695732116699,2,4,0,3,1,5,E-,0,3,3,400,600,250.0,4,C24JG,145,train
27.153968811035156,2,4,0,3,1,5,E-,1,0,2,400,600,250.0,0,C24JG,146,train
59.22698974609375,2,4,0,3,1,5,E-,0,3,3,400,600,250.0,4,C24JG,147,train
186.29908561706543,2,4,0,3,1,5,E-,1,2,0,400,600,250.0,2,C24JG,148,train
155.08198738098145,2,4,0,3,1,5,E-,1,3,3,400,600,250.0,3,C24JG,149,train
26.875972747802734,2,4,0,3,1,5,E-,1,1,4,400,600,250.0,1,C24JG,150,train
362.83087730407715,2,4,0,3,1,5,E-,1,0,2,400,600,250.0,0,C24JG,151,train
59.11898612976074,2,4,0,3,1,5,E-,1,5,5,400,600,250.0,5,C24JG,152,train
27.11200714111328,2,4,0,3,1,5,E-,1,0,2,400,600,250.0,0,C24JG,153,train
123.17895889282227,2,4,0,3,1,5,E-,1,5,5,400,600,250.0,5,C24JG,154,train
43.19500923156738,2,4,0,3,1,5,E-,1,1,4,400,600,250.0,1,C24JG,155,train
11.201858520507812,2,4,0,3,1,5,E-,1,2,0,400,600,250.0,2,C24JG,156,train
106.9951057434082,2,4,0,3,1,5,E-,0,4,1,400,600,250.0,3,C24JG,157,train
202.8350830078125,2,4,0,3,1,5,E-,1,3,3,400,600,250.0,3,C24JG,158,train
91.11785888671875,2,4,0,3,1,5,E-,0,3,3,400,600,250.0,4,C24JG,159,train
11.08694076538086,2,4,0,3,1,5,E-,1,0,2,400,600,250.0,0,C24JG,160,train
42.48499870300293,2,4,0,3,1,5,E-,1,0,2,400,600,250.0,0,C24JG,161,train
139.17994499206543,2,4,0,3,1,5,E-,0,4,1,400,600,250.0,3,C24JG,162,train
26.85999870300293,2,4,0,3,1,5,E-,1,5,5,400,600,250.0,5,C24JG,163,train
11.071205139160156,2,4,0,3,1,5,E-,1,0,2,400,600,250.0,0,C24JG,164,train
74.98288154602051,2,4,0,3,1,5,E-,1,5,5,400,600,250.0,5,C24JG,165,train
267.1780586242676,2,4,0,3,1,5,E-,1,2,0,400,600,250.0,2,C24JG,166,train
154.8779010772705,2,4,0,3,1,5,E-,1,5,5,400,600,250.0,5,C24JG,167,train
10.306119918823242,2,4,0,3,1,5,E-,1,5,5,400,600,250.0,5,C24JG,168,train
59.190988540649414,2,4,0,3,1,5,E-,1,4,1,400,600,250.0,4,C24JG,169,train
42.81187057495117,2,4,0,3,1,5,E-,1,5,5,400,600,250.0,5,C24JG,170,train
27.116060256958008,2,4,0,3,1,5,E-,1,5,5,400,600,250.0,5,C24JG,171,train
0.1659393310546875,2,4,0,3,1,5,E-,1,4,1,400,600,250.0,4,C24JG,172,train
458.85396003723145,2,4,0,3,1,5,E-,1,2,0,400,600,250.0,2,C24JG,173,train
107.05685615539551,2,4,0,3,1,5,E-,0,3,3,400,600,250.0,2,C24JG,174,train
43.077945709228516,2,4,0,3,1,5,E-,1,5,5,400,600,250.0,5,C24JG,175,train
74.81908798217773,2,4,0,3,1,5,E-,1,3,3,400,600,250.0,3,C24JG,176,train
267.06409454345703,2,4,0,3,1,5,E-,1,5,5,400,600,250.0,5,C24JG,177,train
43.179988861083984,2,4,0,3,1,5,E-,1,0,2,400,600,250.0,0,C24JG,178,train
75.24490356445312,2,4,0,3,1,5,E-,1,0,2,400,600,250.0,0,C24JG,179,train
90.72089195251465,2,4,0,3,1,5,E-,1,0,2,400,600,250.0,0,C24JG,180,train
155.2870273590088,2,4,0,3,1,5,E-,0,4,1,400,600,250.0,3,C24JG,181,train
58.899879455566406,2,4,0,3,1,5,E-,1,2,0,400,600,250.0,2,C24JG,182,train
11.124134063720703,2,4,0,3,1,5,E-,1,5,5,400,600,250.0,5,C24JG,183,train
0.1690387725830078,2,4,0,3,1,5,E-,0,3,3,400,600,250.0,4,C24JG,184,train
27.102947235107422,2,4,0,3,1,5,E-,1,0,2,400,600,250.0,0,C24JG,185,train
58.981895446777344,2,4,0,3,1,5,E-,0,3,3,400,600,250.0,4,C24JG,186,train
202.73184776306152,2,4,0,3,1,5,E-,1,1,4,400,600,250.0,1,C24JG,187,train
0.1308917999267578,2,4,0,3,1,5,E-,1,0,2,400,600,250.0,0,C24JG,188,train
26.983022689819336,2,4,0,3,1,5,E-,1,1,4,400,600,250.0,1,C24JG,189,train
203.07397842407227,2,4,0,3,1,5,E-,1,3,3,400,600,250.0,3,C24JG,190,train
139.1429901123047,2,4,0,3,1,5,E-,1,5,5,400,600,250.0,5,C24JG,191,train
58.938026428222656,2,4,0,3,1,5,E-,0,2,0,400,600,250.0,3,C24JG,192,train
154.79016304016113,2,4,0,3,1,5,E-,1,3,3,400,600,250.0,3,C24JG,193,train
331.20012283325195,2,4,0,3,1,5,E-,1,4,1,400,600,250.0,4,C24JG,194,train
25.48503875732422,2,4,0,3,1,5,E-,1,0,2,400,600,250.0,0,C24JG,195,train
28.061866760253906,2,4,0,3,1,5,E-,1,0,2,400,600,250.0,0,C24JG,196,train
90.8670425415039,2,4,0,3,1,5,E-,1,1,4,400,600,250.0,1,C24JG,197,train
107.21802711486816,2,4,0,3,1,5,E-,1,5,5,400,600,250.0,5,C24JG,198,train
411.18788719177246,2,4,0,3,1,5,E-,1,3,3,400,600,250.0,3,C24JG,199,train
299.1189956665039,2,4,0,3,1,5,E-,1,0,2,400,600,250.0,0,C24JG,200,train
235.16297340393066,2,4,0,3,1,5,E-,1,5,5,400,600,250.0,5,C24JG,201,train
59.06105041503906,2,4,0,3,1,5,E-,1,5,5,400,600,250.0,5,C24JG,202,train
59.031009674072266,2,4,0,3,1,5,E-,1,4,1,400,600,250.0,4,C24JG,203,train
362.8978729248047,2,4,0,3,1,5,E-,1,0,2,400,600,250.0,0,C24JG,204,train
139.1770839691162,2,4,0,3,1,5,E-,1,2,0,400,600,250.0,2,C24JG,205,train
234.97486114501953,2,4,0,3,1,5,E-,1,1,4,400,600,250.0,1,C24JG,206,train
26.905059814453125,2,4,0,3,1,5,E-,1,3,3,400,600,250.0,3,C24JG,207,train
106.82082176208496,2,4,0,3,1,5,E-,1,4,1,400,600,250.0,4,C24JG,208,train
91.06016159057617,2,4,0,3,1,5,E-,1,2,0,400,600,250.0,2,C24JG,209,train
42.83499717712402,2,4,0,3,1,5,E-,1,1,4,400,600,250.0,1,C24JG,210,train
75.17004013061523,2,4,0,3,1,5,E-,1,5,5,400,600,250.0,5,C24JG,211,train
171.21291160583496,2,4,0,3,1,5,E-,1,5,5,400,600,250.0,5,C24JG,212,train
74.87297058105469,2,4,0,3,1,5,E-,0,4,1,400,600,250.0,2,C24JG,213,train
0.1239776611328125,2,4,0,3,1,5,E-,1,1,4,400,600,250.0,1,C24JG,214,train
58.834075927734375,2,4,0,3,1,5,E-,1,1,4,400,600,250.0,1,C24JG,215,train
123.1238842010498,2,4,0,3,1,5,E-,1,4,1,400,600,250.0,4,C24JG,216,train
75.18506050109863,2,4,0,3,1,5,E-,1,4,1,400,600,250.0,4,C24JG,217,train
44.248104095458984,2,4,0,3,1,5,E-,1,3,3,400,600,250.0,3,C24JG,218,train
0.1800060272216797,2,4,0,3,1,5,E-,1,3,3,400,600,250.0,3,C24JG,219,train
91.0940170288086,2,4,0,3,1,5,E-,1,1,4,400,600,250.0,1,C24JG,220,train
56.48303031921387,2,4,0,3,1,5,E-,0,4,1,400,600,250.0,3,C24JG,221,train
187.12115287780762,2,4,0,3,1,5,E-,1,3,3,400,600,250.0,3,C24JG,222,train
283.10108184814453,2,4,0,3,1,5,E-,1,4,1,400,600,250.0,4,C24JG,223,train
75.0420093536377,2,4,0,3,1,5,E-,1,1,4,400,600,250.0,1,C24JG,224,train
42.91200637817383,2,4,0,3,1,5,E-,1,1,4,400,600,250.0,1,C24JG,225,train
329.5309543609619,2,4,0,3,1,5,E-,1,4,1,400,600,250.0,4,C24JG,226,train
123.07500839233398,2,4,0,3,1,5,E-,1,4,1,400,600,250.0,4,C24JG,227,train
107.10787773132324,2,4,0,3,1,5,E-,0,3,3,400,600,250.0,1,C24JG,228,train
75.03509521484375,2,4,0,3,1,5,E-,1,0,2,400,600,250.0,0,C24JG,229,train
120.64099311828613,2,4,0,3,1,5,E-,1,4,1,400,600,250.0,4,C24JG,230,train
75.12807846069336,2,4,0,3,1,5,E-,1,1,4,400,600,250.0,1,C24JG,231,train
74.8898983001709,2,4,0,3,1,5,E-,1,4,1,400,600,250.0,4,C24JG,232,train
107.02800750732422,2,4,0,3,1,5,E-,1,3,3,400,600,250.0,3,C24JG,233,train
11.439800262451172,2,4,0,3,1,5,E-,1,0,2,400,600,250.0,0,C24JG,234,train
27.273893356323242,2,4,0,3,1,5,E-,1,2,0,400,600,250.0,2,C24JG,235,train
426.4380931854248,2,4,0,3,1,5,E-,1,3,3,400,600,250.0,3,C24JG,236,train
90.56305885314941,2,4,0,3,1,5,E-,1,3,3,400,600,250.0,3,C24JG,237,train
26.60083770751953,2,4,0,3,1,5,E-,1,4,1,400,600,250.0,4,C24JG,238,train
75.3178596496582,2,4,0,3,1,5,E-,1,5,5,400,600,250.0,5,C24JG,239,train
27.228832244873047,2,4,0,3,1,5,E-,1,1,4,400,600,250.0,1,C24JG,240,train
43.05100440979004,2,4,0,3,1,5,E-,1,5,5,400,600,250.0,5,C24JG,241,train
58.27188491821289,2,4,0,3,1,5,E-,1,1,4,400,600,250.0,1,C24JG,242,train
24.33300018310547,2,4,0,3,1,5,E-,1,4,1,400,600,250.0,4,C24JG,243,train
378.917932510376,2,4,0,3,1,5,E-,1,0,2,400,600,250.0,0,C24JG,244,train
75.0889778137207,2,4,0,3,1,5,E-,0,3,3,400,600,250.0,2,C24JG,245,train
299.01885986328125,2,4,0,3,1,5,E-,1,4,1,400,600,250.0,4,C24JG,246,train
59.175968170166016,2,4,0,3,1,5,E-,0,3,3,400,600,250.0,2,C24JG,247,train
169.83890533447266,2,4,0,3,1,5,E-,0,2,0,400,600,250.0,1,C24JG,248,train
12.231111526489258,2,4,0,3,1,5,E-,1,1,4,400,600,250.0,1,C24JG,249,train
3377.1162033081055,5,1,4,0,3,2,E-,0,3,4,0,1000,250.0,4,C24JG,250,test
865.0610446929932,5,1,4,0,3,2,E-,1,0,3,0,1000,250.0,0,C24JG,251,test
1488.935947418213,5,1,4,0,3,2,E-,1,2,5,0,1000,250.0,2,C24JG,252,test
801.0668754577637,5,1,4,0,3,2,E-,1,4,2,0,1000,250.0,4,C24JG,253,test
608.9839935302734,5,1,4,0,3,2,E-,0,2,5,0,1000,250.0,1,C24JG,254,test
1360.7079982757568,5,1,4,0,3,2,E-,1,5,0,0,1000,250.0,5,C24JG,255,test
944.6730613708496,5,1,4,0,3,2,E-,1,2,5,0,1000,250.0,2,C24JG,256,test
897.0780372619629,5,1,4,0,3,2,E-,1,5,0,0,1000,250.0,5,C24JG,257,test
1185.122013092041,5,1,4,0,3,2,E-,0,3,4,0,1000,250.0,2,C24JG,258,test
624.8998641967773,5,1,4,0,3,2,E-,1,3,4,0,1000,250.0,3,C24JG,259,test
1119.2359924316406,5,1,4,0,3,2,E-,1,4,2,0,1000,250.0,4,C24JG,260,test
721.04811668396,5,1,4,0,3,2,E-,1,3,4,0,1000,250.0,3,C24JG,261,test
671.4792251586914,5,1,4,0,3,2,E-,1,0,3,0,1000,250.0,0,C24JG,262,test
1216.8800830841064,5,1,4,0,3,2,E-,1,5,0,0,1000,250.0,5,C24JG,263,test
1121.0880279541016,5,1,4,0,3,2,E-,0,3,4,0,1000,250.0,4,C24JG,264,test
752.993106842041,5,1,4,0,3,2,E-,1,5,0,0,1000,250.0,5,C24JG,265,test
1184.8890781402588,5,1,4,0,3,2,E-,1,5,0,0,1000,250.0,5,C24JG,266,test
592.9789543151855,5,1,4,0,3,2,E-,1,0,3,0,1000,250.0,0,C24JG,267,test
992.9111003875732,5,1,4,0,3,2,E-,0,3,4,0,1000,250.0,4,C24JG,268,test
657.1531295776367,5,1,4,0,3,2,E-,1,0,3,0,1000,250.0,0,C24JG,269,test
912.8730297088623,5,1,4,0,3,2,E-,1,3,4,0,1000,250.0,3,C24JG,270,test
1952.883005142212,5,1,4,0,3,2,E-,1,5,0,0,1000,250.0,5,C24JG,271,test
384.89317893981934,5,1,4,0,3,2,E-,1,1,1,0,1000,250.0,1,C24JG,272,test
497.0879554748535,5,1,4,0,3,2,E-,0,1,1,0,1000,250.0,0,C24JG,273,test
513.1428241729736,5,1,4,0,3,2,E-,1,1,1,0,1000,250.0,1,C24JG,274,test
817.0721530914307,5,1,4,0,3,2,E-,1,5,0,0,1000,250.0,5,C24JG,275,test
576.9181251525879,5,1,4,0,3,2,E-,0,2,5,0,1000,250.0,0,C24JG,276,test
912.4209880828857,5,1,4,0,3,2,E-,1,5,0,0,1000,250.0,5,C24JG,277,test
929.1300773620605,5,1,4,0,3,2,E-,0,2,5,0,1000,250.0,0,C24JG,278,test
1985.0850105285645,5,1,4,0,3,2,E-,0,3,4,0,1000,250.0,5,C24JG,279,test
1329.045057296753,5,1,4,0,3,2,E-,1,1,1,0,1000,250.0,1,C24JG,280,test
737.0679378509521,5,1,4,0,3,2,E-,1,5,0,0,1000,250.0,5,C24JG,281,test
400.94494819641113,5,1,4,0,3,2,E-,1,4,2,0,1000,250.0,4,C24JG,282,test
1521.1329460144043,5,1,4,0,3,2,E-,1,2,5,0,1000,250.0,2,C24JG,283,test
1345.008134841919,5,1,4,0,3,2,E-,1,1,1,0,1000,250.0,1,C24JG,284,test
991.4190769195557,5,1,4,0,3,2,E-,1,3,4,0,1000,250.0,3,C24JG,285,test
1249.0830421447754,5,1,4,0,3,2,E-,0,2,5,0,1000,250.0,1,C24JG,286,test
689.1298294067383,5,1,4,0,3,2,E-,1,1,1,0,1000,250.0,1,C24JG,287,test
673.0730533599854,5,1,4,0,3,2,E-,1,3,4,0,1000,250.0,3,C24JG,288,test
401.1111259460449,5,1,4,0,3,2,E-,1,4,2,0,1000,250.0,4,C24JG,289,test
625.1091957092285,5,1,4,0,3,2,E-,1,0,3,0,1000,250.0,0,C24JG,290,test
1040.6508445739746,5,1,4,0,3,2,E-,1,2,5,0,1000,250.0,2,C24JG,291,test
752.6209354400635,5,1,4,0,3,2,E-,1,5,0,0,1000,250.0,5,C24JG,292,test
449.0399360656738,5,1,4,0,3,2,E-,1,5,0,0,1000,250.0,5,C24JG,293,test
719.3698883056641,5,1,4,0,3,2,E-,1,1,1,0,1000,250.0,1,C24JG,294,test
1057.021141052246,5,1,4,0,3,2,E-,0,0,3,0,1000,250.0,2,C24JG,295,test
704.9219608306885,5,1,4,0,3,2,E-,1,1,1,0,1000,250.0,1,C24JG,296,test
1072.7410316467285,5,1,4,0,3,2,E-,1,2,5,0,1000,250.0,2,C24JG,297,test
606.5890789031982,5,1,4,0,3,2,E-,0,2,5,0,1000,250.0,0,C24JG,298,test
336.52496337890625,5,1,4,0,3,2,E-,1,0,3,0,1000,250.0,0,C24JG,299,test
542.4461364746094,5,1,4,0,3,2,E-,0,0,3,0,1000,250.0,2,C24JG,300,test
558.5150718688965,5,1,4,0,3,2,E-,1,2,5,0,1000,250.0,2,C24JG,301,test
1233.086109161377,5,1,4,0,3,2,E-,0,4,2,0,1000,250.0,3,C24JG,302,test
592.2770500183105,5,1,4,0,3,2,E-,1,5,0,0,1000,250.0,5,C24JG,303,test
497.1020221710205,5,1,4,0,3,2,E-,1,3,4,0,1000,250.0,3,C24JG,304,test
416.9180393218994,5,1,4,0,3,2,E-,1,4,2,0,1000,250.0,4,C24JG,305,test
670.680046081543,5,1,4,0,3,2,E-,1,5,0,0,1000,250.0,5,C24JG,306,test
593.1198596954346,5,1,4,0,3,2,E-,1,0,3,0,1000,250.0,0,C24JG,307,test
353.09815406799316,5,1,4,0,3,2,E-,1,2,5,0,1000,250.0,2,C24JG,308,test
545.011043548584,5,1,4,0,3,2,E-,1,1,1,0,1000,250.0,1,C24JG,309,test
753.1039714813232,5,1,4,0,3,2,E-,1,3,4,0,1000,250.0,3,C24JG,310,test
673.0871200561523,5,1,4,0,3,2,E-,1,5,0,0,1000,250.0,5,C24JG,311,test
1200.9022235870361,5,1,4,0,3,2,E-,1,2,5,0,1000,250.0,2,C24JG,312,test
654.587984085083,5,1,4,0,3,2,E-,1,5,0,0,1000,250.0,5,C24JG,313,test
641.2310600280762,5,1,4,0,3,2,E-,0,1,1,0,1000,250.0,2,C24JG,314,test
896.4478969573975,5,1,4,0,3,2,E-,1,0,3,0,1000,250.0,0,C24JG,315,test
592.8239822387695,5,1,4,0,3,2,E-,1,1,1,0,1000,250.0,1,C24JG,316,test
1056.9639205932617,5,1,4,0,3,2,E-,0,0,3,0,1000,250.0,2,C24JG,317,test
753.0090808868408,5,1,4,0,3,2,E-,1,1,1,0,1000,250.0,1,C24JG,318,test
351.6349792480469,5,1,4,0,3,2,E-,1,0,3,0,1000,250.0,0,C24JG,319,test
497.13802337646484,5,1,4,0,3,2,E-,1,5,0,0,1000,250.0,5,C24JG,320,test
496.9029426574707,5,1,4,0,3,2,E-,0,1,1,0,1000,250.0,2,C24JG,321,test
656.5160751342773,5,1,4,0,3,2,E-,1,4,2,0,1000,250.0,4,C24JG,322,test
960.9041213989258,5,1,4,0,3,2,E-,1,2,5,0,1000,250.0,2,C24JG,323,test
561.1119270324707,5,1,4,0,3,2,E-,1,1,1,0,1000,250.0,1,C24JG,324,test
576.9739151000977,5,1,4,0,3,2,E-,1,0,3,0,1000,250.0,0,C24JG,325,test
657.1531295776367,5,1,4,0,3,2,E-,1,1,1,0,1000,250.0,1,C24JG,326,test
464.979887008667,5,1,4,0,3,2,E-,0,0,3,0,1000,250.0,1,C24JG,327,test
304.9120903015137,5,1,4,0,3,2,E-,1,0,3,0,1000,250.0,0,C24JG,328,test
753.1790733337402,5,1,4,0,3,2,E-,0,3,4,0,1000,250.0,4,C24JG,329,test
641.2010192871094,5,1,4,0,3,2,E-,1,5,0,0,1000,250.0,5,C24JG,330,test
561.1388683319092,5,1,4,0,3,2,E-,1,5,0,0,1000,250.0,5,C24JG,331,test
800.8689880371094,5,1,4,0,3,2,E-,0,4,2,0,1000,250.0,3,C24JG,332,test
449.12099838256836,5,1,4,0,3,2,E-,1,4,2,0,1000,250.0,4,C24JG,333,test
817.0070648193359,5,1,4,0,3,2,E-,0,2,5,0,1000,250.0,1,C24JG,334,test
561.0458850860596,5,1,4,0,3,2,E-,1,5,0,0,1000,250.0,5,C24JG,335,test
736.9661331176758,5,1,4,0,3,2,E-,1,3,4,0,1000,250.0,3,C24JG,336,test
561.0051155090332,5,1,4,0,3,2,E-,1,5,0,0,1000,250.0,5,C24JG,337,test
1264.9848461151123,5,1,4,0,3,2,E-,1,2,5,0,1000,250.0,2,C24JG,338,test
529.0491580963135,5,1,4,0,3,2,E-,1,0,3,0,1000,250.0,0,C24JG,339,test
704.7421932220459,5,1,4,0,3,2,E-,1,2,5,0,1000,250.0,2,C24JG,340,test
593.0860042572021,5,1,4,0,3,2,E-,1,0,3,0,1000,250.0,0,C24JG,341,test
641.0019397735596,5,1,4,0,3,2,E-,1,1,1,0,1000,250.0,1,C24JG,342,test
608.9818477630615,5,1,4,0,3,2,E-,1,5,0,0,1000,250.0,5,C24JG,343,test
528.911828994751,5,1,4,0,3,2,E-,1,1,1,0,1000,250.0,1,C24JG,344,test
560.9691143035889,5,1,4,0,3,2,E-,1,1,1,0,1000,250.0,1,C24JG,345,test
528.9959907531738,5,1,4,0,3,2,E-,1,0,3,0,1000,250.0,0,C24JG,346,test
545.0761318206787,5,1,4,0,3,2,E-,1,4,2,0,1000,250.0,4,C24JG,347,test
481.1398983001709,5,1,4,0,3,2,E-,1,5,0,0,1000,250.0,5,C24JG,348,test
833.1038951873779,5,1,4,0,3,2,E-,0,0,3,0,1000,250.0,1,C24JG,349,test
609.1530323028564,5,1,4,0,3,2,E-,1,1,1,0,1000,250.0,1,C24JG,350,test
464.932918548584,5,1,4,0,3,2,E-,1,1,1,0,1000,250.0,1,C24JG,351,test
592.8452014923096,5,1,4,0,3,2,E-,1,0,3,0,1000,250.0,0,C24JG,352,test
529.0811061859131,5,1,4,0,3,2,E-,1,1,1,0,1000,250.0,1,C24JG,353,test
417.11902618408203,5,1,4,0,3,2,E-,1,4,2,0,1000,250.0,4,C24JG,354,test
656.9948196411133,5,1,4,0,3,2,E-,1,5,0,0,1000,250.0,5,C24JG,355,test
608.9301109313965,5,1,4,0,3,2,E-,0,2,5,0,1000,250.0,0,C24JG,356,test
481.1420440673828,5,1,4,0,3,2,E-,1,4,2,0,1000,250.0,4,C24JG,357,test
478.471040725708,5,1,4,0,3,2,E-,1,4,2,0,1000,250.0,4,C24JG,358,test
401.19218826293945,5,1,4,0,3,2,E-,1,4,2,0,1000,250.0,4,C24JG,359,test
496.9940185546875,5,1,4,0,3,2,E-,0,2,5,0,1000,250.0,0,C24JG,360,test
753.0391216278076,5,1,4,0,3,2,E-,1,3,4,0,1000,250.0,3,C24JG,361,test
529.0811061859131,5,1,4,0,3,2,E-,1,1,1,0,1000,250.0,1,C24JG,362,test
544.9318885803223,5,1,4,0,3,2,E-,1,5,0,0,1000,250.0,5,C24JG,363,test
592.9288864135742,5,1,4,0,3,2,E-,0,2,5,0,1000,250.0,0,C24JG,364,test
528.4719467163086,5,1,4,0,3,2,E-,0,1,1,0,1000,250.0,4,C24JG,365,test
450.0408172607422,5,1,4,0,3,2,E-,1,5,0,0,1000,250.0,5,C24JG,366,test
466.05515480041504,5,1,4,0,3,2,E-,1,0,3,0,1000,250.0,0,C24JG,367,test
640.7639980316162,5,1,4,0,3,2,E-,1,3,4,0,1000,250.0,3,C24JG,368,test
529.0470123291016,5,1,4,0,3,2,E-,1,1,1,0,1000,250.0,1,C24JG,369,test
432.9519271850586,5,1,4,0,3,2,E-,1,0,3,0,1000,250.0,0,C24JG,370,test
513.0701065063477,5,1,4,0,3,2,E-,0,2,5,0,1000,250.0,0,C24JG,371,test
529.0801525115967,5,1,4,0,3,2,E-,1,1,1,0,1000,250.0,1,C24JG,372,test
416.93902015686035,5,1,4,0,3,2,E-,1,0,3,0,1000,250.0,0,C24JG,373,test
496.9639778137207,5,1,4,0,3,2,E-,1,0,3,0,1000,250.0,0,C24JG,374,test
640.7430171966553,5,1,4,0,3,2,E-,1,5,0,0,1000,250.0,5,C24JG,375,test
352.94103622436523,5,1,4,0,3,2,E-,1,2,5,0,1000,250.0,2,C24JG,376,test
769.0021991729736,5,1,4,0,3,2,E-,1,3,4,0,1000,250.0,3,C24JG,377,test
656.7509174346924,5,1,4,0,3,2,E-,1,4,2,0,1000,250.0,4,C24JG,378,test
609.1029644012451,5,1,4,0,3,2,E-,1,3,4,0,1000,250.0,3,C24JG,379,test
560.9278678894043,5,1,4,0,3,2,E-,1,1,1,0,1000,250.0,1,C24JG,380,test
497.0571994781494,5,1,4,0,3,2,E-,1,0,3,0,1000,250.0,0,C24JG,381,test
609.065055847168,5,1,4,0,3,2,E-,1,2,5,0,1000,250.0,2,C24JG,382,test
513.1130218505859,5,1,4,0,3,2,E-,0,4,2,0,1000,250.0,3,C24JG,383,test
480.8831214904785,5,1,4,0,3,2,E-,0,1,1,0,1000,250.0,2,C24JG,384,test
401.06987953186035,5,1,4,0,3,2,E-,1,1,1,0,1000,250.0,1,C24JG,385,test
369.0512180328369,5,1,4,0,3,2,E-,1,1,1,0,1000,250.0,1,C24JG,386,test
480.87215423583984,5,1,4,0,3,2,E-,1,0,3,0,1000,250.0,0,C24JG,387,test
510.70594787597656,5,1,4,0,3,2,E-,1,1,1,0,1000,250.0,1,C24JG,388,test
849.1489887237549,5,1,4,0,3,2,E-,1,4,2,0,1000,250.0,4,C24JG,389,test
673.0928421020508,5,1,4,0,3,2,E-,1,2,5,0,1000,250.0,2,C24JG,390,test
686.9411468505859,5,1,4,0,3,2,E-,0,3,4,0,1000,250.0,5,C24JG,391,test
512.8960609436035,5,1,4,0,3,2,E-,1,0,3,0,1000,250.0,0,C24JG,392,test
560.9359741210938,5,1,4,0,3,2,E-,0,0,3,0,1000,250.0,2,C24JG,393,test
481.10008239746094,5,1,4,0,3,2,E-,1,5,0,0,1000,250.0,5,C24JG,394,test
704.9109935760498,5,1,4,0,3,2,E-,1,3,4,0,1000,250.0,3,C24JG,395,test
720.9410667419434,5,1,4,0,3,2,E-,1,4,2,0,1000,250.0,4,C24JG,396,test
528.6118984222412,5,1,4,0,3,2,E-,1,5,0,0,1000,250.0,5,C24JG,397,test
528.7559032440186,5,1,4,0,3,2,E-,1,5,0,0,1000,250.0,5,C24JG,398,test
385.0128650665283,5,1,4,0,3,2,E-,0,3,4,0,1000,250.0,5,C24JG,399,test
688.9791488647461,5,1,4,0,3,2,E-,1,5,0,0,1000,250.0,5,C24JG,400,test
448.4729766845703,5,1,4,0,3,2,E-,1,4,2,0,1000,250.0,4,C24JG,401,test
880.4359436035156,5,1,4,0,3,2,E-,1,1,1,0,1000,250.0,1,C24JG,402,test
624.8838901519775,5,1,4,0,3,2,E-,1,5,0,0,1000,250.0,5,C24JG,403,test
481.1711311340332,5,1,4,0,3,2,E-,1,0,3,0,1000,250.0,0,C24JG,404,test
416.98288917541504,5,1,4,0,3,2,E-,1,0,3,0,1000,250.0,0,C24JG,405,test
833.2250118255615,5,1,4,0,3,2,E-,1,2,5,0,1000,250.0,2,C24JG,406,test
641.1471366882324,5,1,4,0,3,2,E-,1,2,5,0,1000,250.0,2,C24JG,407,test
481.13489151000977,5,1,4,0,3,2,E-,1,5,0,0,1000,250.0,5,C24JG,408,test
465.16895294189453,5,1,4,0,3,2,E-,1,1,1,0,1000,250.0,1,C24JG,409,test
465.0599956512451,5,1,4,0,3,2,E-,1,0,3,0,1000,250.0,0,C24JG,410,test
385.09511947631836,5,1,4,0,3,2,E-,1,5,0,0,1000,250.0,5,C24JG,411,test
385.11180877685547,5,1,4,0,3,2,E-,1,1,1,0,1000,250.0,1,C24JG,412,test
400.5429744720459,5,1,4,0,3,2,E-,1,5,0,0,1000,250.0,5,C24JG,413,test
464.98990058898926,5,1,4,0,3,2,E-,1,4,2,0,1000,250.0,4,C24JG,414,test
657.1731567382812,5,1,4,0,3,2,E-,1,2,5,0,1000,250.0,2,C24JG,415,test
496.7617988586426,5,1,4,0,3,2,E-,1,0,3,0,1000,250.0,0,C24JG,416,test
608.6580753326416,5,1,4,0,3,2,E-,0,2,5,0,1000,250.0,1,C24JG,417,test
528.7871360778809,5,1,4,0,3,2,E-,0,2,5,0,1000,250.0,0,C24JG,418,test
480.1499843597412,5,1,4,0,3,2,E-,0,3,4,0,1000,250.0,5,C24JG,419,test
608.6881160736084,5,1,4,0,3,2,E-,1,4,2,0,1000,250.0,4,C24JG,420,test
448.5011100769043,5,1,4,0,3,2,E-,1,4,2,0,1000,250.0,4,C24JG,421,test
782.5970649719238,5,1,4,0,3,2,E-,1,4,2,0,1000,250.0,4,C24JG,422,test
545.8149909973145,5,1,4,0,3,2,E-,0,1,1,0,1000,250.0,2,C24JG,423,test
545.0809001922607,5,1,4,0,3,2,E-,1,0,3,0,1000,250.0,0,C24JG,424,test
721.019983291626,5,1,4,0,3,2,E-,1,3,4,0,1000,250.0,3,C24JG,425,test
448.6989974975586,5,1,4,0,3,2,E-,1,0,3,0,1000,250.0,0,C24JG,426,test
593.1310653686523,5,1,4,0,3,2,E-,1,1,1,0,1000,250.0,1,C24JG,427,test
801.0292053222656,5,1,4,0,3,2,E-,1,2,5,0,1000,250.0,2,C24JG,428,test
529.1640758514404,5,1,4,0,3,2,E-,1,2,5,0,1000,250.0,2,C24JG,429,test
497.0541000366211,5,1,4,0,3,2,E-,1,1,1,0,1000,250.0,1,C24JG,430,test
481.0349941253662,5,1,4,0,3,2,E-,1,0,3,0,1000,250.0,0,C24JG,431,test
672.7302074432373,5,1,4,0,3,2,E-,1,2,5,0,1000,250.0,2,C24JG,432,test
576.740026473999,5,1,4,0,3,2,E-,1,0,3,0,1000,250.0,0,C24JG,433,test
625.0550746917725,5,1,4,0,3,2,E-,1,2,5,0,1000,250.0,2,C24JG,434,test
496.4408874511719,5,1,4,0,3,2,E-,1,0,3,0,1000,250.0,0,C24JG,435,test
961.5960121154785,5,1,4,0,3,2,E-,0,1,1,0,1000,250.0,2,C24JG,436,test
496.86217308044434,5,1,4,0,3,2,E-,1,5,0,0,1000,250.0,5,C24JG,437,test
496.9480037689209,5,1,4,0,3,2,E-,1,1,1,0,1000,250.0,1,C24JG,438,test
673.0408668518066,5,1,4,0,3,2,E-,1,2,5,0,1000,250.0,2,C24JG,439,test
464.95819091796875,5,1,4,0,3,2,E-,1,5,0,0,1000,250.0,5,C24JG,440,test
384.92703437805176,5,1,4,0,3,2,E-,0,5,0,0,1000,250.0,2,C24JG,441,test
576.8680572509766,5,1,4,0,3,2,E-,1,0,3,0,1000,250.0,0,C24JG,442,test
496.32811546325684,5,1,4,0,3,2,E-,0,1,1,0,1000,250.0,2,C24JG,443,test
576.8918991088867,5,1,4,0,3,2,E-,1,0,3,0,1000,250.0,0,C24JG,444,test
464.95699882507324,5,1,4,0,3,2,E-,1,1,1,0,1000,250.0,1,C24JG,445,test
544.8160171508789,5,1,4,0,3,2,E-,1,0,3,0,1000,250.0,0,C24JG,446,test
433.060884475708,5,1,4,0,3,2,E-,0,3,4,0,1000,250.0,5,C24JG,447,test
513.0269527435303,5,1,4,0,3,2,E-,1,4,2,0,1000,250.0,4,C24JG,448,test
897.1781730651855,5,1,4,0,3,2,E-,1,3,4,0,1000,250.0,3,C24JG,449,test
417.07801818847656,5,1,4,0,3,2,E-,1,2,5,0,1000,250.0,2,C24JG,450,test
625.1111030578613,5,1,4,0,3,2,E-,1,0,3,0,1000,250.0,0,C24JG,451,test
737.1289730072021,5,1,4,0,3,2,E-,1,1,1,0,1000,250.0,1,C24JG,452,test
464.9670124053955,5,1,4,0,3,2,E-,1,5,0,0,1000,250.0,5,C24JG,453,test
545.1200008392334,5,1,4,0,3,2,E-,1,5,0,0,1000,250.0,5,C24JG,454,test
561.9428157806396,5,1,4,0,3,2,E-,1,1,1,0,1000,250.0,1,C24JG,455,test
560.6739521026611,5,1,4,0,3,2,E-,0,2,5,0,1000,250.0,0,C24JG,456,test
608.2000732421875,5,1,4,0,3,2,E-,1,2,5,0,1000,250.0,2,C24JG,457,test
641.0009860992432,5,1,4,0,3,2,E-,1,1,1,0,1000,250.0,1,C24JG,458,test
1040.8451557159424,5,1,4,0,3,2,E-,1,4,2,0,1000,250.0,4,C24JG,459,test
577.0530700683594,5,1,4,0,3,2,E-,1,1,1,0,1000,250.0,1,C24JG,460,test
625.0479221343994,5,1,4,0,3,2,E-,1,4,2,0,1000,250.0,4,C24JG,461,test
529.0119647979736,5,1,4,0,3,2,E-,1,5,0,0,1000,250.0,5,C24JG,462,test
385.00499725341797,5,1,4,0,3,2,E-,1,4,2,0,1000,250.0,4,C24JG,463,test
544.8429584503174,5,1,4,0,3,2,E-,1,0,3,0,1000,250.0,0,C24JG,464,test
592.7700996398926,5,1,4,0,3,2,E-,1,1,1,0,1000,250.0,1,C24JG,465,test
608.7808609008789,5,1,4,0,3,2,E-,1,2,5,0,1000,250.0,2,C24JG,466,test
561.1598491668701,5,1,4,0,3,2,E-,1,5,0,0,1000,250.0,5,C24JG,467,test
433.0029487609863,5,1,4,0,3,2,E-,1,5,0,0,1000,250.0,5,C24JG,468,test
480.9558391571045,5,1,4,0,3,2,E-,1,4,2,0,1000,250.0,4,C24JG,469,test
417.0880317687988,5,1,4,0,3,2,E-,1,4,2,0,1000,250.0,4,C24JG,470,test
368.7431812286377,5,1,4,0,3,2,E-,0,3,4,0,1000,250.0,4,C24JG,471,test
465.07906913757324,5,1,4,0,3,2,E-,1,5,0,0,1000,250.0,5,C24JG,472,test
561.0818862915039,5,1,4,0,3,2,E-,1,2,5,0,1000,250.0,2,C24JG,473,test
465.0537967681885,5,1,4,0,3,2,E-,1,4,2,0,1000,250.0,4,C24JG,474,test
512.9640102386475,5,1,4,0,3,2,E-,1,0,3,0,1000,250.0,0,C24JG,475,test
577.0461559295654,5,1,4,0,3,2,E-,0,3,4,0,1000,250.0,4,C24JG,476,test
432.9369068145752,5,1,4,0,3,2,E-,1,4,2,0,1000,250.0,4,C24JG,477,test
416.9430732727051,5,1,4,0,3,2,E-,1,4,2,0,1000,250.0,4,C24JG,478,test
417.0198440551758,5,1,4,0,3,2,E-,1,4,2,0,1000,250.0,4,C24JG,479,test
400.4049301147461,5,1,4,0,3,2,E-,1,4,2,0,1000,250.0,4,C24JG,480,test
448.7109184265137,5,1,4,0,3,2,E-,1,4,2,0,1000,250.0,4,C24JG,481,test
545.0839996337891,5,1,4,0,3,2,E-,0,5,0,0,1000,250.0,0,C24JG,482,test
721.182107925415,5,1,4,0,3,2,E-,1,2,5,0,1000,250.0,2,C24JG,483,test
480.9839725494385,5,1,4,0,3,2,E-,0,1,1,0,1000,250.0,4,C24JG,484,test
704.7898769378662,5,1,4,0,3,2,E-,1,3,4,0,1000,250.0,3,C24JG,485,test
561.1259937286377,5,1,4,0,3,2,E-,1,0,3,0,1000,250.0,0,C24JG,486,test
432.48605728149414,5,1,4,0,3,2,E-,1,0,3,0,1000,250.0,0,C24JG,487,test
305.0549030303955,5,1,4,0,3,2,E-,1,4,2,0,1000,250.0,4,C24JG,488,test
321.012020111084,5,1,4,0,3,2,E-,1,4,2,0,1000,250.0,4,C24JG,489,test
592.7140712738037,5,1,4,0,3,2,E-,1,3,4,0,1000,250.0,3,C24JG,490,test
417.04797744750977,5,1,4,0,3,2,E-,1,4,2,0,1000,250.0,4,C24JG,491,test
688.960075378418,5,1,4,0,3,2,E-,0,1,1,0,1000,250.0,2,C24JG,492,test
528.6519527435303,5,1,4,0,3,2,E-,1,1,1,0,1000,250.0,1,C24JG,493,test
849.0469455718994,5,1,4,0,3,2,E-,1,5,0,0,1000,250.0,5,C24JG,494,test
465.0859832763672,5,1,4,0,3,2,E-,1,0,3,0,1000,250.0,0,C24JG,495,test
512.8748416900635,5,1,4,0,3,2,E-,1,5,0,0,1000,250.0,5,C24JG,496,test
416.86391830444336,5,1,4,0,3,2,E-,1,5,0,0,1000,250.0,5,C24JG,497,test
3215.548038482666,5,1,4,0,3,2,E-,1,2,5,0,1000,250.0,2,C24JG,498,test
497.07984924316406,5,1,4,0,3,2,E-,1,0,3,0,1000,250.0,0,C24JG,499,test
