RT,SRmap_0,SRmap_1,SRmap_2,SRmap_3,SRmap_4,SRmap_5,condition,correct,correct_response,curstim,ms-precue,ms-prestimblank,ntrials,response,subject,trial,type
4143.527984619141,5,2,4,1,0,3,E+,1,4,2,400,600,250.0,4,D30SZ,0,train
2687.7310276031494,5,2,4,1,0,3,E+,1,0,4,400,600,250.0,0,D30SZ,1,train
2479.8171520233154,5,2,4,1,0,3,E+,1,5,0,400,600,250.0,5,D30SZ,2,train
1695.803165435791,5,2,4,1,0,3,E+,1,0,4,400,600,250.0,0,D30SZ,3,train
1104.0160655975342,5,2,4,1,0,3,E+,1,0,4,400,600,250.0,0,D30SZ,4,train
1183.8810443878174,5,2,4,1,0,3,E+,0,3,5,400,600,250.0,4,D30SZ,5,train
1519.942045211792,5,2,4,1,0,3,E+,1,0,4,400,600,250.0,0,D30SZ,6,train
1695.781946182251,5,2,4,1,0,3,E+,1,1,3,400,600,250.0,1,D30SZ,7,train
1759.9589824676514,5,2,4,1,0,3,E+,1,5,0,400,600,250.0,5,D30SZ,8,train
1151.9100666046143,5,2,4,1,0,3,E+,1,0,4,400,600,250.0,0,D30SZ,9,train
1071.9828605651855,5,2,4,1,0,3,E+,1,3,5,400,600,250.0,3,D30SZ,10,train
2255.8679580688477,5,2,4,1,0,3,E+,1,4,2,400,600,250.0,4,D30SZ,11,train
2383.790969848633,5,2,4,1,0,3,E+,1,5,0,400,600,250.0,5,D30SZ,12,train
1199.8460292816162,5,2,4,1,0,3,E+,1,3,5,400,600,250.0,3,D30SZ,13,train
1391.92795753479,5,2,4,1,0,3,E+,1,5,0,400,600,250.0,5,D30SZ,14,train
815.6170845031738,5,2,4,1,0,3,E+,1,3,5,400,600,250.0,3,D30SZ,15,train
927.4899959564209,5,2,4,1,0,3,E+,1,0,4,400,600,250.0,0,D30SZ,16,train
927.4051189422607,5,2,4,1,0,3,E+,0,2,1,400,600,250.0,1,D30SZ,17,train
1279.8140048980713,5,2,4,1,0,3,E+,1,1,3,400,600,250.0,1,D30SZ,18,train
895.9898948669434,5,2,4,1,0,3,E+,1,1,3,400,600,250.0,1,D30SZ,19,train
624.0289211273193,5,2,4,1,0,3,E+,1,1,3,400,600,250.0,1,D30SZ,20,train
1135.8578205108643,5,2,4,1,0,3,E+,1,5,0,400,600,250.0,5,D30SZ,21,train
783.8718891143799,5,2,4,1,0,3,E+,1,1,3,400,600,250.0,1,D30SZ,22,train
735.9769344329834,5,2,4,1,0,3,E+,1,3,5,400,600,250.0,3,D30SZ,23,train
1279.8759937286377,5,2,4,1,0,3,E+,1,4,2,400,600,250.0,4,D30SZ,24,train
895.9059715270996,5,2,4,1,0,3,E+,0,2,1,400,600,250.0,1,D30SZ,25,train
879.8940181732178,5,2,4,1,0,3,E+,1,1,3,400,600,250.0,1,D30SZ,26,train
735.3100776672363,5,2,4,1,0,3,E+,1,1,3,400,600,250.0,1,D30SZ,27,train
1023.4460830688477,5,2,4,1,0,3,E+,1,3,5,400,600,250.0,3,D30SZ,28,train
895.280122756958,5,2,4,1,0,3,E+,1,1,3,400,600,250.0,1,D30SZ,29,train
1087.8159999847412,5,2,4,1,0,3,E+,1,4,2,400,600,250.0,4,D30SZ,30,train
1486.6580963134766,5,2,4,1,0,3,E+,1,5,0,400,600,250.0,5,D30SZ,31,train
975.006103515625,5,2,4,1,0,3,E+,1,3,5,400,600,250.0,3,D30SZ,32,train
1038.722038269043,5,2,4,1,0,3,E+,1,0,4,400,600,250.0,0,D30SZ,33,train
846.6391563415527,5,2,4,1,0,3,E+,1,1,3,400,600,250.0,1,D30SZ,34,train
1182.5900077819824,5,2,4,1,0,3,E+,1,4,2,400,600,250.0,4,D30SZ,35,train
894.6390151977539,5,2,4,1,0,3,E+,1,1,3,400,600,250.0,1,D30SZ,36,train
1167.5670146942139,5,2,4,1,0,3,E+,1,5,0,400,600,250.0,5,D30SZ,37,train
1695.5058574676514,5,2,4,1,0,3,E+,1,3,5,400,600,250.0,3,D30SZ,38,train
1087.5041484832764,5,2,4,1,0,3,E+,1,1,3,400,600,250.0,1,D30SZ,39,train
751.4879703521729,5,2,4,1,0,3,E+,0,3,5,400,600,250.0,4,D30SZ,40,train
927.5209903717041,5,2,4,1,0,3,E+,0,4,2,400,600,250.0,5,D30SZ,41,train
1263.443946838379,5,2,4,1,0,3,E+,1,5,0,400,600,250.0,5,D30SZ,42,train
1439.4690990447998,5,2,4,1,0,3,E+,1,2,1,400,600,250.0,2,D30SZ,43,train
1519.3660259246826,5,2,4,1,0,3,E+,1,4,2,400,600,250.0,4,D30SZ,44,train
1023.629903793335,5,2,4,1,0,3,E+,1,1,3,400,600,250.0,1,D30SZ,45,train
1535.4750156402588,5,2,4,1,0,3,E+,1,3,5,400,600,250.0,3,D30SZ,46,train
895.5907821655273,5,2,4,1,0,3,E+,0,2,1,400,600,250.0,1,D30SZ,47,train
879.572868347168,5,2,4,1,0,3,E+,1,2,1,400,600,250.0,2,D30SZ,48,train
1135.538101196289,5,2,4,1,0,3,E+,1,5,0,400,600,250.0,5,D30SZ,49,train
1071.6400146484375,5,2,4,1,0,3,E+,1,5,0,400,600,250.0,5,D30SZ,50,train
1151.4651775360107,5,2,4,1,0,3,E+,1,1,3,400,600,250.0,1,D30SZ,51,train
1647.2229957580566,5,2,4,1,0,3,E+,1,0,4,400,600,250.0,0,D30SZ,52,train
1263.5459899902344,5,2,4,1,0,3,E+,1,5,0,400,600,250.0,5,D30SZ,53,train
1167.4821376800537,5,2,4,1,0,3,E+,1,0,4,400,600,250.0,0,D30SZ,54,train
911.5910530090332,5,2,4,1,0,3,E+,1,5,0,400,600,250.0,5,D30SZ,55,train
1007.5490474700928,5,2,4,1,0,3,E+,1,5,0,400,600,250.0,5,D30SZ,56,train
1263.4780406951904,5,2,4,1,0,3,E+,1,0,4,400,600,250.0,0,D30SZ,57,train
1407.6650142669678,5,2,4,1,0,3,E+,1,4,2,400,600,250.0,4,D30SZ,58,train
943.5329437255859,5,2,4,1,0,3,E+,1,4,2,400,600,250.0,4,D30SZ,59,train
847.6278781890869,5,2,4,1,0,3,E+,1,5,0,400,600,250.0,5,D30SZ,60,train
1007.5259208679199,5,2,4,1,0,3,E+,1,2,1,400,600,250.0,2,D30SZ,61,train
719.5260524749756,5,2,4,1,0,3,E+,0,3,5,400,600,250.0,4,D30SZ,62,train
703.53102684021,5,2,4,1,0,3,E+,1,4,2,400,600,250.0,4,D30SZ,63,train
1039.5169258117676,5,2,4,1,0,3,E+,1,0,4,400,600,250.0,0,D30SZ,64,train
847.4700450897217,5,2,4,1,0,3,E+,1,3,5,400,600,250.0,3,D30SZ,65,train
783.5609912872314,5,2,4,1,0,3,E+,1,3,5,400,600,250.0,3,D30SZ,66,train
1103.637933731079,5,2,4,1,0,3,E+,1,1,3,400,600,250.0,1,D30SZ,67,train
1103.6241054534912,5,2,4,1,0,3,E+,1,2,1,400,600,250.0,2,D30SZ,68,train
735.5308532714844,5,2,4,1,0,3,E+,1,2,1,400,600,250.0,2,D30SZ,69,train
1503.4668445587158,5,2,4,1,0,3,E+,1,4,2,400,600,250.0,4,D30SZ,70,train
863.5609149932861,5,2,4,1,0,3,E+,1,0,4,400,600,250.0,0,D30SZ,71,train
687.283992767334,5,2,4,1,0,3,E+,1,0,4,400,600,250.0,0,D30SZ,72,train
1087.6829624176025,5,2,4,1,0,3,E+,1,5,0,400,600,250.0,5,D30SZ,73,train
1279.5281410217285,5,2,4,1,0,3,E+,1,2,1,400,600,250.0,2,D30SZ,74,train
846.7631340026855,5,2,4,1,0,3,E+,1,0,4,400,600,250.0,0,D30SZ,75,train
847.5830554962158,5,2,4,1,0,3,E+,1,1,3,400,600,250.0,1,D30SZ,76,train
783.6101055145264,5,2,4,1,0,3,E+,1,2,1,400,600,250.0,2,D30SZ,77,train
1023.5698223114014,5,2,4,1,0,3,E+,1,5,0,400,600,250.0,5,D30SZ,78,train
1215.5840396881104,5,2,4,1,0,3,E+,1,4,2,400,600,250.0,4,D30SZ,79,train
1103.5699844360352,5,2,4,1,0,3,E+,1,2,1,400,600,250.0,2,D30SZ,80,train
1487.5547885894775,5,2,4,1,0,3,E+,1,4,2,400,600,250.0,4,D30SZ,81,train
1103.5878658294678,5,2,4,1,0,3,E+,1,5,0,400,600,250.0,5,D30SZ,82,train
1087.6061916351318,5,2,4,1,0,3,E+,1,5,0,400,600,250.0,5,D30SZ,83,train
815.593957901001,5,2,4,1,0,3,E+,1,5,0,400,600,250.0,5,D30SZ,84,train
1055.5520057678223,5,2,4,1,0,3,E+,1,3,5,400,600,250.0,3,D30SZ,85,train
655.4811000823975,5,2,4,1,0,3,E+,1,0,4,400,600,250.0,0,D30SZ,86,train
975.640058517456,5,2,4,1,0,3,E+,0,4,2,400,600,250.0,5,D30SZ,87,train
1055.452823638916,5,2,4,1,0,3,E+,1,1,3,400,600,250.0,1,D30SZ,88,train
927.638053894043,5,2,4,1,0,3,E+,1,0,4,400,600,250.0,0,D30SZ,89,train
735.5389595031738,5,2,4,1,0,3,E+,1,1,3,400,600,250.0,1,D30SZ,90,train
799.4449138641357,5,2,4,1,0,3,E+,1,5,0,400,600,250.0,5,D30SZ,91,train
879.4550895690918,5,2,4,1,0,3,E+,1,4,2,400,600,250.0,4,D30SZ,92,train
959.4800472259521,5,2,4,1,0,3,E+,1,1,3,400,600,250.0,1,D30SZ,93,train
591.5651321411133,5,2,4,1,0,3,E+,1,1,3,400,600,250.0,1,D30SZ,94,train
895.6820964813232,5,2,4,1,0,3,E+,1,0,4,400,600,250.0,0,D30SZ,95,train
1167.4280166625977,5,2,4,1,0,3,E+,0,2,1,400,600,250.0,1,D30SZ,96,train
1039.5841598510742,5,2,4,1,0,3,E+,1,2,1,400,600,250.0,2,D30SZ,97,train
767.6599025726318,5,2,4,1,0,3,E+,0,3,5,400,600,250.0,4,D30SZ,98,train
991.7140007019043,5,2,4,1,0,3,E+,1,0,4,400,600,250.0,0,D30SZ,99,train
687.4589920043945,5,2,4,1,0,3,E+,1,0,4,400,600,250.0,0,D30SZ,100,train
1423.5949516296387,5,2,4,1,0,3,E+,1,3,5,400,600,250.0,3,D30SZ,101,train
895.6780433654785,5,2,4,1,0,3,E+,1,0,4,400,600,250.0,0,D30SZ,102,train
783.5898399353027,5,2,4,1,0,3,E+,1,0,4,400,600,250.0,0,D30SZ,103,train
1615.5891418457031,5,2,4,1,0,3,E+,1,4,2,400,600,250.0,4,D30SZ,104,train
783.6241722106934,5,2,4,1,0,3,E+,1,0,4,400,600,250.0,0,D30SZ,105,train
1263.5622024536133,5,2,4,1,0,3,E+,1,4,2,400,600,250.0,4,D30SZ,106,train
1119.7509765625,5,2,4,1,0,3,E+,1,4,2,400,600,250.0,4,D30SZ,107,train
1375.5779266357422,5,2,4,1,0,3,E+,1,5,0,400,600,250.0,5,D30SZ,108,train
783.5969924926758,5,2,4,1,0,3,E+,1,5,0,400,600,250.0,5,D30SZ,109,train
1263.5400295257568,5,2,4,1,0,3,E+,1,3,5,400,600,250.0,3,D30SZ,110,train
767.5831317901611,5,2,4,1,0,3,E+,1,0,4,400,600,250.0,0,D30SZ,111,train
703.5551071166992,5,2,4,1,0,3,E+,1,3,5,400,600,250.0,3,D30SZ,112,train
783.5390567779541,5,2,4,1,0,3,E+,1,5,0,400,600,250.0,5,D30SZ,113,train
863.6410236358643,5,2,4,1,0,3,E+,1,5,0,400,600,250.0,5,D30SZ,114,train
1551.5899658203125,5,2,4,1,0,3,E+,1,2,1,400,600,250.0,2,D30SZ,115,train
863.6350631713867,5,2,4,1,0,3,E+,1,0,4,400,600,250.0,0,D30SZ,116,train
1103.5051345825195,5,2,4,1,0,3,E+,1,2,1,400,600,250.0,2,D30SZ,117,train
975.5618572235107,5,2,4,1,0,3,E+,1,1,3,400,600,250.0,1,D30SZ,118,train
1039.4978523254395,5,2,4,1,0,3,E+,1,4,2,400,600,250.0,4,D30SZ,119,train
751.5151500701904,5,2,4,1,0,3,E+,1,1,3,400,600,250.0,1,D30SZ,120,train
687.636137008667,5,2,4,1,0,3,E+,1,2,1,400,600,250.0,2,D30SZ,121,train
799.5748519897461,5,2,4,1,0,3,E+,1,3,5,400,600,250.0,3,D30SZ,122,train
623.1720447540283,5,2,4,1,0,3,E+,1,0,4,400,600,250.0,0,D30SZ,123,train
639.6148204803467,5,2,4,1,0,3,E+,1,3,5,400,600,250.0,3,D30SZ,124,train
687.7319812774658,5,2,4,1,0,3,E+,1,0,4,400,600,250.0,0,D30SZ,125,train
655.5969715118408,5,2,4,1,0,3,E+,1,3,5,400,600,250.0,3,D30SZ,126,train
879.5640468597412,5,2,4,1,0,3,E+,1,2,1,400,600,250.0,2,D30SZ,127,train
591.5601253509521,5,2,4,1,0,3,E+,1,3,5,400,600,250.0,3,D30SZ,128,train
1135.6868743896484,5,2,4,1,0,3,E+,1,1,3,400,600,250.0,1,D30SZ,129,train
927.6020526885986,5,2,4,1,0,3,E+,1,2,1,400,600,250.0,2,D30SZ,130,train
879.6329498291016,5,2,4,1,0,3,E+,1,0,4,400,600,250.0,0,D30SZ,131,train
1263.5140419006348,5,2,4,1,0,3,E+,1,4,2,400,600,250.0,4,D30SZ,132,train
655.332088470459,5,2,4,1,0,3,E+,1,4,2,400,600,250.0,4,D30SZ,133,train
879.7268867492676,5,2,4,1,0,3,E+,1,5,0,400,600,250.0,5,D30SZ,134,train
911.66090965271,5,2,4,1,0,3,E+,1,1,3,400,600,250.0,1,D30SZ,135,train
1071.7480182647705,5,2,4,1,0,3,E+,1,3,5,400,600,250.0,3,D30SZ,136,train
783.6339473724365,5,2,4,1,0,3,E+,1,5,0,400,600,250.0,5,D30SZ,137,train
735.6021404266357,5,2,4,1,0,3,E+,1,3,5,400,600,250.0,3,D30SZ,138,train
751.6500949859619,5,2,4,1,0,3,E+,1,5,0,400,600,250.0,5,D30SZ,139,train
1135.6580257415771,5,2,4,1,0,3,E+,1,2,1,400,600,250.0,2,D30SZ,140,train
783.5569381713867,5,2,4,1,0,3,E+,1,1,3,400,600,250.0,1,D30SZ,141,train
1119.624137878418,5,2,4,1,0,3,E+,1,4,2,400,600,250.0,4,D30SZ,142,train
687.5629425048828,5,2,4,1,0,3,E+,1,3,5,400,600,250.0,3,D30SZ,143,train
943.6490535736084,5,2,4,1,0,3,E+,1,4,2,400,600,250.0,4,D30SZ,144,train
591.5279388427734,5,2,4,1,0,3,E+,1,3,5,400,600,250.0,3,D30SZ,145,train
783.5879325866699,5,2,4,1,0,3,E+,1,1,3,400,600,250.0,1,D30SZ,146,train
959.5861434936523,5,2,4,1,0,3,E+,1,0,4,400,600,250.0,0,D30SZ,147,train
991.5788173675537,5,2,4,1,0,3,E+,0,3,5,400,600,250.0,4,D30SZ,148,train
895.5190181732178,5,2,4,1,0,3,E+,1,0,4,400,600,250.0,0,D30SZ,149,train
559.2608451843262,5,2,4,1,0,3,E+,1,0,4,400,600,250.0,0,D30SZ,150,train
1199.6779441833496,5,2,4,1,0,3,E+,1,4,2,400,600,250.0,4,D30SZ,151,train
751.5289783477783,5,2,4,1,0,3,E+,1,3,5,400,600,250.0,3,D30SZ,152,train
559.5428943634033,5,2,4,1,0,3,E+,1,3,5,400,600,250.0,3,D30SZ,153,train
703.5651206970215,5,2,4,1,0,3,E+,1,0,4,400,600,250.0,0,D30SZ,154,train
879.6510696411133,5,2,4,1,0,3,E+,1,5,0,400,600,250.0,5,D30SZ,155,train
815.5868053436279,5,2,4,1,0,3,E+,1,4,2,400,600,250.0,4,D30SZ,156,train
1231.1699390411377,5,2,4,1,0,3,E+,1,2,1,400,600,250.0,2,D30SZ,157,train
991.6331768035889,5,2,4,1,0,3,E+,1,4,2,400,600,250.0,4,D30SZ,158,train
703.3839225769043,5,2,4,1,0,3,E+,1,4,2,400,600,250.0,4,D30SZ,159,train
831.4900398254395,5,2,4,1,0,3,E+,1,0,4,400,600,250.0,0,D30SZ,160,train
831.6359519958496,5,2,4,1,0,3,E+,1,5,0,400,600,250.0,5,D30SZ,161,train
623.5599517822266,5,2,4,1,0,3,E+,1,0,4,400,600,250.0,0,D30SZ,162,train
1231.5740585327148,5,2,4,1,0,3,E+,1,2,1,400,600,250.0,2,D30SZ,163,train
767.5919532775879,5,2,4,1,0,3,E+,1,1,3,400,600,250.0,1,D30SZ,164,train
847.369909286499,5,2,4,1,0,3,E+,1,2,1,400,600,250.0,2,D30SZ,165,train
671.6189384460449,5,2,4,1,0,3,E+,1,2,1,400,600,250.0,2,D30SZ,166,train
799.595832824707,5,2,4,1,0,3,E+,1,3,5,400,600,250.0,3,D30SZ,167,train
1167.6928997039795,5,2,4,1,0,3,E+,1,2,1,400,600,250.0,2,D30SZ,168,train
735.6300354003906,5,2,4,1,0,3,E+,1,5,0,400,600,250.0,5,D30SZ,169,train
879.5640468597412,5,2,4,1,0,3,E+,1,5,0,400,600,250.0,5,D30SZ,170,train
719.5911407470703,5,2,4,1,0,3,E+,1,0,4,400,600,250.0,0,D30SZ,171,train
879.6229362487793,5,2,4,1,0,3,E+,1,1,3,400,600,250.0,1,D30SZ,172,train
1023.5440731048584,5,2,4,1,0,3,E+,1,4,2,400,600,250.0,4,D30SZ,173,train
687.5598430633545,5,2,4,1,0,3,E+,1,3,5,400,600,250.0,3,D30SZ,174,train
895.637035369873,5,2,4,1,0,3,E+,1,0,4,400,600,250.0,0,D30SZ,175,train
975.6860733032227,5,2,4,1,0,3,E+,1,5,0,400,600,250.0,5,D30SZ,176,train
879.6510696411133,5,2,4,1,0,3,E+,1,4,2,400,600,250.0,4,D30SZ,177,train
735.5961799621582,5,2,4,1,0,3,E+,1,5,0,400,600,250.0,5,D30SZ,178,train
767.470121383667,5,2,4,1,0,3,E+,1,3,5,400,600,250.0,3,D30SZ,179,train
815.5910968780518,5,2,4,1,0,3,E+,1,0,4,400,600,250.0,0,D30SZ,180,train
751.5439987182617,5,2,4,1,0,3,E+,1,5,0,400,600,250.0,5,D30SZ,181,train
847.5990295410156,5,2,4,1,0,3,E+,1,1,3,400,600,250.0,1,D30SZ,182,train
687.6349449157715,5,2,4,1,0,3,E+,1,4,2,400,600,250.0,4,D30SZ,183,train
623.5830783843994,5,2,4,1,0,3,E+,1,3,5,400,600,250.0,3,D30SZ,184,train
943.6519145965576,5,2,4,1,0,3,E+,1,1,3,400,600,250.0,1,D30SZ,185,train
591.2299156188965,5,2,4,1,0,3,E+,1,5,0,400,600,250.0,5,D30SZ,186,train
607.5839996337891,5,2,4,1,0,3,E+,1,0,4,400,600,250.0,0,D30SZ,187,train
1551.5649318695068,5,2,4,1,0,3,E+,1,2,1,400,600,250.0,2,D30SZ,188,train
655.2488803863525,5,2,4,1,0,3,E+,1,4,2,400,600,250.0,4,D30SZ,189,train
1215.4970169067383,5,2,4,1,0,3,E+,1,2,1,400,600,250.0,2,D30SZ,190,train
1135.6241703033447,5,2,4,1,0,3,E+,1,2,1,400,600,250.0,2,D30SZ,191,train
751.5840530395508,5,2,4,1,0,3,E+,1,0,4,400,600,250.0,0,D30SZ,192,train
767.5330638885498,5,2,4,1,0,3,E+,1,4,2,400,600,250.0,4,D30SZ,193,train
767.6458358764648,5,2,4,1,0,3,E+,1,1,3,400,600,250.0,1,D30SZ,194,train
623.3019828796387,5,2,4,1,0,3,E+,1,1,3,400,600,250.0,1,D30SZ,195,train
1103.7240028381348,5,2,4,1,0,3,E+,1,3,5,400,600,250.0,3,D30SZ,196,train
975.5730628967285,5,2,4,1,0,3,E+,0,2,1,400,600,250.0,1,D30SZ,197,train
799.5669841766357,5,2,4,1,0,3,E+,1,5,0,400,600,250.0,5,D30SZ,198,train
1231.6460609436035,5,2,4,1,0,3,E+,1,2,1,400,600,250.0,2,D30SZ,199,train
783.5731506347656,5,2,4,1,0,3,E+,1,1,3,400,600,250.0,1,D30SZ,200,train
783.4410667419434,5,2,4,1,0,3,E+,1,5,0,400,600,250.0,5,D30SZ,201,train
1023.5331058502197,5,2,4,1,0,3,E+,1,2,1,400,600,250.0,2,D30SZ,202,train
799.5150089263916,5,2,4,1,0,3,E+,1,1,3,400,600,250.0,1,D30SZ,203,train
623.5461235046387,5,2,4,1,0,3,E+,0,3,5,400,600,250.0,5,D30SZ,204,train
687.5729560852051,5,2,4,1,0,3,E+,1,5,0,400,600,250.0,5,D30SZ,205,train
847.5508689880371,5,2,4,1,0,3,E+,1,4,2,400,600,250.0,4,D30SZ,206,train
607.4678897857666,5,2,4,1,0,3,E+,1,4,2,400,600,250.0,4,D30SZ,207,train
639.6279335021973,5,2,4,1,0,3,E+,1,5,0,400,600,250.0,5,D30SZ,208,train
895.5850601196289,5,2,4,1,0,3,E+,1,1,3,400,600,250.0,1,D30SZ,209,train
591.562032699585,5,2,4,1,0,3,E+,1,1,3,400,600,250.0,1,D30SZ,210,train
783.6329936981201,5,2,4,1,0,3,E+,1,0,4,400,600,250.0,0,D30SZ,211,train
895.0190544128418,5,2,4,1,0,3,E+,1,2,1,400,600,250.0,2,D30SZ,212,train
847.6479053497314,5,2,4,1,0,3,E+,1,2,1,400,600,250.0,2,D30SZ,213,train
575.5729675292969,5,2,4,1,0,3,E+,1,0,4,400,600,250.0,0,D30SZ,214,train
991.5921688079834,5,2,4,1,0,3,E+,1,3,5,400,600,250.0,3,D30SZ,215,train
815.4699802398682,5,2,4,1,0,3,E+,1,5,0,400,600,250.0,5,D30SZ,216,train
959.2549800872803,5,2,4,1,0,3,E+,1,2,1,400,600,250.0,2,D30SZ,217,train
815.5159950256348,5,2,4,1,0,3,E+,1,4,2,400,600,250.0,4,D30SZ,218,train
591.439962387085,5,2,4,1,0,3,E+,0,2,1,400,600,250.0,4,D30SZ,219,train
831.6359519958496,5,2,4,1,0,3,E+,1,4,2,400,600,250.0,4,D30SZ,220,train
783.5211753845215,5,2,4,1,0,3,E+,1,5,0,400,600,250.0,5,D30SZ,221,train
559.4120025634766,5,2,4,1,0,3,E+,1,0,4,400,600,250.0,0,D30SZ,222,train
1151.46803855896,5,2,4,1,0,3,E+,1,2,1,400,600,250.0,2,D30SZ,223,train
719.5470333099365,5,2,4,1,0,3,E+,1,5,0,400,600,250.0,5,D30SZ,224,train
975.5039215087891,5,2,4,1,0,3,E+,0,3,5,400,600,250.0,5,D30SZ,225,train
591.529130935669,5,2,4,1,0,3,E+,1,5,0,400,600,250.0,5,D30SZ,226,train
639.380931854248,5,2,4,1,0,3,E+,1,0,4,400,600,250.0,0,D30SZ,227,train
1007.4889659881592,5,2,4,1,0,3,E+,0,3,5,400,600,250.0,2,D30SZ,228,train
815.3150081634521,5,2,4,1,0,3,E+,1,0,4,400,600,250.0,0,D30SZ,229,train
975.5480289459229,5,2,4,1,0,3,E+,1,0,4,400,600,250.0,0,D30SZ,230,train
1279.4358730316162,5,2,4,1,0,3,E+,0,3,5,400,600,250.0,2,D30SZ,231,train
1167.3450469970703,5,2,4,1,0,3,E+,1,2,1,400,600,250.0,2,D30SZ,232,train
1135.5969905853271,5,2,4,1,0,3,E+,1,4,2,400,600,250.0,4,D30SZ,233,train
1119.6951866149902,5,2,4,1,0,3,E+,1,1,3,400,600,250.0,1,D30SZ,234,train
1151.4339447021484,5,2,4,1,0,3,E+,1,1,3,400,600,250.0,1,D30SZ,235,train
607.4569225311279,5,2,4,1,0,3,E+,1,1,3,400,600,250.0,1,D30SZ,236,train
1151.5390872955322,5,2,4,1,0,3,E+,1,2,1,400,600,250.0,2,D30SZ,237,train
1119.7659969329834,5,2,4,1,0,3,E+,1,4,2,400,600,250.0,4,D30SZ,238,train
799.5870113372803,5,2,4,1,0,3,E+,1,1,3,400,600,250.0,1,D30SZ,239,train
1039.6010875701904,5,2,4,1,0,3,E+,1,4,2,400,600,250.0,4,D30SZ,240,train
767.5487995147705,5,2,4,1,0,3,E+,1,5,0,400,600,250.0,5,D30SZ,241,train
1327.3398876190186,5,2,4,1,0,3,E+,1,2,1,400,600,250.0,2,D30SZ,242,train
911.5109443664551,5,2,4,1,0,3,E+,1,1,3,400,600,250.0,1,D30SZ,243,train
687.5009536743164,5,2,4,1,0,3,E+,1,1,3,400,600,250.0,1,D30SZ,244,train
847.5959300994873,5,2,4,1,0,3,E+,1,2,1,400,600,250.0,2,D30SZ,245,train
831.6159248352051,5,2,4,1,0,3,E+,1,4,2,400,600,250.0,4,D30SZ,246,train
623.3808994293213,5,2,4,1,0,3,E+,1,4,2,400,600,250.0,4,D30SZ,247,train
1023.6399173736572,5,2,4,1,0,3,E+,0,2,1,400,600,250.0,1,D30SZ,248,train
799.5350360870361,5,2,4,1,0,3,E+,1,1,3,400,600,250.0,1,D30SZ,249,train
1584.6970081329346,5,2,4,1,0,3,E+,1,5,0,0,1000,250.0,5,D30SZ,250,test
1072.4859237670898,5,2,4,1,0,3,E+,1,4,2,0,1000,250.0,4,D30SZ,251,test
784.9071025848389,5,2,4,1,0,3,E+,1,0,4,0,1000,250.0,0,D30SZ,252,test
832.9460620880127,5,2,4,1,0,3,E+,1,2,1,0,1000,250.0,2,D30SZ,253,test
928.7829399108887,5,2,4,1,0,3,E+,1,2,1,0,1000,250.0,2,D30SZ,254,test
992.807149887085,5,2,4,1,0,3,E+,1,0,4,0,1000,250.0,0,D30SZ,255,test
784.8880290985107,5,2,4,1,0,3,E+,1,1,3,0,1000,250.0,1,D30SZ,256,test
976.8121242523193,5,2,4,1,0,3,E+,1,3,5,0,1000,250.0,3,D30SZ,257,test
832.8900337219238,5,2,4,1,0,3,E+,1,1,3,0,1000,250.0,1,D30SZ,258,test
816.735029220581,5,2,4,1,0,3,E+,1,4,2,0,1000,250.0,4,D30SZ,259,test
640.9001350402832,5,2,4,1,0,3,E+,1,4,2,0,1000,250.0,4,D30SZ,260,test
800.8561134338379,5,2,4,1,0,3,E+,1,0,4,0,1000,250.0,0,D30SZ,261,test
832.8378200531006,5,2,4,1,0,3,E+,1,3,5,0,1000,250.0,3,D30SZ,262,test
736.8078231811523,5,2,4,1,0,3,E+,1,0,4,0,1000,250.0,0,D30SZ,263,test
752.8650760650635,5,2,4,1,0,3,E+,1,0,4,0,1000,250.0,0,D30SZ,264,test
736.7780208587646,5,2,4,1,0,3,E+,1,3,5,0,1000,250.0,3,D30SZ,265,test
704.8261165618896,5,2,4,1,0,3,E+,1,0,4,0,1000,250.0,0,D30SZ,266,test
1552.7160167694092,5,2,4,1,0,3,E+,1,2,1,0,1000,250.0,2,D30SZ,267,test
928.9348125457764,5,2,4,1,0,3,E+,1,5,0,0,1000,250.0,5,D30SZ,268,test
1072.9620456695557,5,2,4,1,0,3,E+,1,3,5,0,1000,250.0,3,D30SZ,269,test
896.8241214752197,5,2,4,1,0,3,E+,1,2,1,0,1000,250.0,2,D30SZ,270,test
752.8049945831299,5,2,4,1,0,3,E+,1,4,2,0,1000,250.0,4,D30SZ,271,test
1056.6840171813965,5,2,4,1,0,3,E+,1,5,0,0,1000,250.0,5,D30SZ,272,test
800.832986831665,5,2,4,1,0,3,E+,1,5,0,0,1000,250.0,5,D30SZ,273,test
1424.6628284454346,5,2,4,1,0,3,E+,1,2,1,0,1000,250.0,2,D30SZ,274,test
944.4880485534668,5,2,4,1,0,3,E+,1,5,0,0,1000,250.0,5,D30SZ,275,test
720.8819389343262,5,2,4,1,0,3,E+,1,0,4,0,1000,250.0,0,D30SZ,276,test
672.950029373169,5,2,4,1,0,3,E+,1,5,0,0,1000,250.0,5,D30SZ,277,test
848.9229679107666,5,2,4,1,0,3,E+,0,3,5,0,1000,250.0,5,D30SZ,278,test
672.7640628814697,5,2,4,1,0,3,E+,0,0,4,0,1000,250.0,3,D30SZ,279,test
1488.7619018554688,5,2,4,1,0,3,E+,1,2,1,0,1000,250.0,2,D30SZ,280,test
1072.9138851165771,5,2,4,1,0,3,E+,1,2,1,0,1000,250.0,2,D30SZ,281,test
768.9359188079834,5,2,4,1,0,3,E+,1,4,2,0,1000,250.0,4,D30SZ,282,test
608.9358329772949,5,2,4,1,0,3,E+,1,0,4,0,1000,250.0,0,D30SZ,283,test
928.7030696868896,5,2,4,1,0,3,E+,1,1,3,0,1000,250.0,1,D30SZ,284,test
576.909065246582,5,2,4,1,0,3,E+,1,1,3,0,1000,250.0,1,D30SZ,285,test
847.5868701934814,5,2,4,1,0,3,E+,1,2,1,0,1000,250.0,2,D30SZ,286,test
736.9518280029297,5,2,4,1,0,3,E+,1,5,0,0,1000,250.0,5,D30SZ,287,test
976.7780303955078,5,2,4,1,0,3,E+,1,2,1,0,1000,250.0,2,D30SZ,288,test
784.710168838501,5,2,4,1,0,3,E+,1,4,2,0,1000,250.0,4,D30SZ,289,test
864.7100925445557,5,2,4,1,0,3,E+,1,3,5,0,1000,250.0,3,D30SZ,290,test
768.7079906463623,5,2,4,1,0,3,E+,1,4,2,0,1000,250.0,4,D30SZ,291,test
592.6649570465088,5,2,4,1,0,3,E+,1,4,2,0,1000,250.0,4,D30SZ,292,test
752.9139518737793,5,2,4,1,0,3,E+,1,3,5,0,1000,250.0,3,D30SZ,293,test
656.8641662597656,5,2,4,1,0,3,E+,1,5,0,0,1000,250.0,5,D30SZ,294,test
736.8729114532471,5,2,4,1,0,3,E+,1,4,2,0,1000,250.0,4,D30SZ,295,test
640.6080722808838,5,2,4,1,0,3,E+,1,4,2,0,1000,250.0,4,D30SZ,296,test
688.852071762085,5,2,4,1,0,3,E+,1,5,0,0,1000,250.0,5,D30SZ,297,test
624.8369216918945,5,2,4,1,0,3,E+,1,5,0,0,1000,250.0,5,D30SZ,298,test
864.8240566253662,5,2,4,1,0,3,E+,1,1,3,0,1000,250.0,1,D30SZ,299,test
784.9030494689941,5,2,4,1,0,3,E+,1,2,1,0,1000,250.0,2,D30SZ,300,test
736.7208003997803,5,2,4,1,0,3,E+,1,1,3,0,1000,250.0,1,D30SZ,301,test
992.8441047668457,5,2,4,1,0,3,E+,1,3,5,0,1000,250.0,3,D30SZ,302,test
640.902042388916,5,2,4,1,0,3,E+,1,3,5,0,1000,250.0,3,D30SZ,303,test
640.714168548584,5,2,4,1,0,3,E+,1,5,0,0,1000,250.0,5,D30SZ,304,test
656.6779613494873,5,2,4,1,0,3,E+,0,3,5,0,1000,250.0,5,D30SZ,305,test
832.8688144683838,5,2,4,1,0,3,E+,1,0,4,0,1000,250.0,0,D30SZ,306,test
721.1449146270752,5,2,4,1,0,3,E+,1,1,3,0,1000,250.0,1,D30SZ,307,test
801.1560440063477,5,2,4,1,0,3,E+,1,4,2,0,1000,250.0,4,D30SZ,308,test
913.1379127502441,5,2,4,1,0,3,E+,1,2,1,0,1000,250.0,2,D30SZ,309,test
832.8781127929688,5,2,4,1,0,3,E+,1,5,0,0,1000,250.0,5,D30SZ,310,test
1088.9010429382324,5,2,4,1,0,3,E+,0,5,0,0,1000,250.0,0,D30SZ,311,test
624.7859001159668,5,2,4,1,0,3,E+,1,0,4,0,1000,250.0,0,D30SZ,312,test
577.1379470825195,5,2,4,1,0,3,E+,1,0,4,0,1000,250.0,0,D30SZ,313,test
497.12610244750977,5,2,4,1,0,3,E+,1,0,4,0,1000,250.0,0,D30SZ,314,test
720.7751274108887,5,2,4,1,0,3,E+,1,2,1,0,1000,250.0,2,D30SZ,315,test
544.5499420166016,5,2,4,1,0,3,E+,1,4,2,0,1000,250.0,4,D30SZ,316,test
528.7148952484131,5,2,4,1,0,3,E+,1,2,1,0,1000,250.0,2,D30SZ,317,test
832.6199054718018,5,2,4,1,0,3,E+,1,3,5,0,1000,250.0,3,D30SZ,318,test
496.8240261077881,5,2,4,1,0,3,E+,1,3,5,0,1000,250.0,3,D30SZ,319,test
593.1329727172852,5,2,4,1,0,3,E+,1,0,4,0,1000,250.0,0,D30SZ,320,test
689.0358924865723,5,2,4,1,0,3,E+,1,1,3,0,1000,250.0,1,D30SZ,321,test
513.1258964538574,5,2,4,1,0,3,E+,1,1,3,0,1000,250.0,1,D30SZ,322,test
401.1218547821045,5,2,4,1,0,3,E+,1,1,3,0,1000,250.0,1,D30SZ,323,test
576.977014541626,5,2,4,1,0,3,E+,1,3,5,0,1000,250.0,3,D30SZ,324,test
522.1889019012451,5,2,4,1,0,3,E+,0,0,4,0,1000,250.0,1,D30SZ,325,test
640.8488750457764,5,2,4,1,0,3,E+,1,1,3,0,1000,250.0,1,D30SZ,326,test
880.7909488677979,5,2,4,1,0,3,E+,1,1,3,0,1000,250.0,1,D30SZ,327,test
976.7940044403076,5,2,4,1,0,3,E+,1,5,0,0,1000,250.0,5,D30SZ,328,test
1136.8451118469238,5,2,4,1,0,3,E+,1,3,5,0,1000,250.0,3,D30SZ,329,test
864.7069931030273,5,2,4,1,0,3,E+,1,4,2,0,1000,250.0,4,D30SZ,330,test
752.8519630432129,5,2,4,1,0,3,E+,1,3,5,0,1000,250.0,3,D30SZ,331,test
1072.8468894958496,5,2,4,1,0,3,E+,1,2,1,0,1000,250.0,2,D30SZ,332,test
704.8220634460449,5,2,4,1,0,3,E+,1,1,3,0,1000,250.0,1,D30SZ,333,test
784.9299907684326,5,2,4,1,0,3,E+,1,4,2,0,1000,250.0,4,D30SZ,334,test
784.8219871520996,5,2,4,1,0,3,E+,1,3,5,0,1000,250.0,3,D30SZ,335,test
960.7589244842529,5,2,4,1,0,3,E+,1,3,5,0,1000,250.0,3,D30SZ,336,test
656.7220687866211,5,2,4,1,0,3,E+,1,4,2,0,1000,250.0,4,D30SZ,337,test
1232.8791618347168,5,2,4,1,0,3,E+,1,2,1,0,1000,250.0,2,D30SZ,338,test
752.9869079589844,5,2,4,1,0,3,E+,1,1,3,0,1000,250.0,1,D30SZ,339,test
768.7439918518066,5,2,4,1,0,3,E+,1,2,1,0,1000,250.0,2,D30SZ,340,test
544.9018478393555,5,2,4,1,0,3,E+,1,2,1,0,1000,250.0,2,D30SZ,341,test
608.691930770874,5,2,4,1,0,3,E+,1,4,2,0,1000,250.0,4,D30SZ,342,test
640.8188343048096,5,2,4,1,0,3,E+,1,4,2,0,1000,250.0,4,D30SZ,343,test
912.8808975219727,5,2,4,1,0,3,E+,1,5,0,0,1000,250.0,5,D30SZ,344,test
896.885871887207,5,2,4,1,0,3,E+,0,3,5,0,1000,250.0,4,D30SZ,345,test
800.929069519043,5,2,4,1,0,3,E+,1,5,0,0,1000,250.0,5,D30SZ,346,test
880.8739185333252,5,2,4,1,0,3,E+,1,1,3,0,1000,250.0,1,D30SZ,347,test
448.97985458374023,5,2,4,1,0,3,E+,1,1,3,0,1000,250.0,1,D30SZ,348,test
672.8839874267578,5,2,4,1,0,3,E+,1,4,2,0,1000,250.0,4,D30SZ,349,test
496.8719482421875,5,2,4,1,0,3,E+,1,1,3,0,1000,250.0,1,D30SZ,350,test
512.8340721130371,5,2,4,1,0,3,E+,1,1,3,0,1000,250.0,1,D30SZ,351,test
720.8740711212158,5,2,4,1,0,3,E+,0,3,5,0,1000,250.0,4,D30SZ,352,test
432.66987800598145,5,2,4,1,0,3,E+,1,3,5,0,1000,250.0,3,D30SZ,353,test
672.8949546813965,5,2,4,1,0,3,E+,1,5,0,0,1000,250.0,5,D30SZ,354,test
592.9179191589355,5,2,4,1,0,3,E+,1,5,0,0,1000,250.0,5,D30SZ,355,test
784.837007522583,5,2,4,1,0,3,E+,1,3,5,0,1000,250.0,3,D30SZ,356,test
688.7979507446289,5,2,4,1,0,3,E+,1,1,3,0,1000,250.0,1,D30SZ,357,test
704.7719955444336,5,2,4,1,0,3,E+,1,2,1,0,1000,250.0,2,D30SZ,358,test
753.1230449676514,5,2,4,1,0,3,E+,1,2,1,0,1000,250.0,2,D30SZ,359,test
673.1002330780029,5,2,4,1,0,3,E+,1,1,3,0,1000,250.0,1,D30SZ,360,test
657.1731567382812,5,2,4,1,0,3,E+,1,3,5,0,1000,250.0,3,D30SZ,361,test
833.1868648529053,5,2,4,1,0,3,E+,1,4,2,0,1000,250.0,4,D30SZ,362,test
641.0379409790039,5,2,4,1,0,3,E+,1,1,3,0,1000,250.0,1,D30SZ,363,test
721.2059497833252,5,2,4,1,0,3,E+,1,1,3,0,1000,250.0,1,D30SZ,364,test
673.0890274047852,5,2,4,1,0,3,E+,0,0,4,0,1000,250.0,5,D30SZ,365,test
1185.0619316101074,5,2,4,1,0,3,E+,1,2,1,0,1000,250.0,2,D30SZ,366,test
609.1799736022949,5,2,4,1,0,3,E+,1,2,1,0,1000,250.0,2,D30SZ,367,test
1009.2170238494873,5,2,4,1,0,3,E+,1,3,5,0,1000,250.0,3,D30SZ,368,test
801.2950420379639,5,2,4,1,0,3,E+,1,4,2,0,1000,250.0,4,D30SZ,369,test
1057.1911334991455,5,2,4,1,0,3,E+,1,0,4,0,1000,250.0,0,D30SZ,370,test
634.4521045684814,5,2,4,1,0,3,E+,1,4,2,0,1000,250.0,4,D30SZ,371,test
1328.8300037384033,5,2,4,1,0,3,E+,1,2,1,0,1000,250.0,2,D30SZ,372,test
608.7250709533691,5,2,4,1,0,3,E+,1,2,1,0,1000,250.0,2,D30SZ,373,test
1008.8458061218262,5,2,4,1,0,3,E+,1,2,1,0,1000,250.0,2,D30SZ,374,test
864.8581504821777,5,2,4,1,0,3,E+,1,3,5,0,1000,250.0,3,D30SZ,375,test
464.8270606994629,5,2,4,1,0,3,E+,1,3,5,0,1000,250.0,3,D30SZ,376,test
832.813024520874,5,2,4,1,0,3,E+,1,5,0,0,1000,250.0,5,D30SZ,377,test
913.0980968475342,5,2,4,1,0,3,E+,1,2,1,0,1000,250.0,2,D30SZ,378,test
864.9208545684814,5,2,4,1,0,3,E+,1,4,2,0,1000,250.0,4,D30SZ,379,test
752.8629302978516,5,2,4,1,0,3,E+,1,2,1,0,1000,250.0,2,D30SZ,380,test
656.8899154663086,5,2,4,1,0,3,E+,1,4,2,0,1000,250.0,4,D30SZ,381,test
848.8318920135498,5,2,4,1,0,3,E+,1,3,5,0,1000,250.0,3,D30SZ,382,test
704.9179077148438,5,2,4,1,0,3,E+,0,0,4,0,1000,250.0,5,D30SZ,383,test
976.7990112304688,5,2,4,1,0,3,E+,1,5,0,0,1000,250.0,5,D30SZ,384,test
624.7279644012451,5,2,4,1,0,3,E+,1,4,2,0,1000,250.0,4,D30SZ,385,test
624.7661113739014,5,2,4,1,0,3,E+,1,4,2,0,1000,250.0,4,D30SZ,386,test
656.4538478851318,5,2,4,1,0,3,E+,1,0,4,0,1000,250.0,0,D30SZ,387,test
672.8129386901855,5,2,4,1,0,3,E+,1,1,3,0,1000,250.0,1,D30SZ,388,test
816.7400360107422,5,2,4,1,0,3,E+,1,1,3,0,1000,250.0,1,D30SZ,389,test
736.8409633636475,5,2,4,1,0,3,E+,1,5,0,0,1000,250.0,5,D30SZ,390,test
720.8108901977539,5,2,4,1,0,3,E+,1,2,1,0,1000,250.0,2,D30SZ,391,test
864.8068904876709,5,2,4,1,0,3,E+,1,0,4,0,1000,250.0,0,D30SZ,392,test
688.7211799621582,5,2,4,1,0,3,E+,1,4,2,0,1000,250.0,4,D30SZ,393,test
656.8200588226318,5,2,4,1,0,3,E+,1,3,5,0,1000,250.0,3,D30SZ,394,test
640.4688358306885,5,2,4,1,0,3,E+,1,3,5,0,1000,250.0,3,D30SZ,395,test
624.8478889465332,5,2,4,1,0,3,E+,1,4,2,0,1000,250.0,4,D30SZ,396,test
688.8828277587891,5,2,4,1,0,3,E+,1,5,0,0,1000,250.0,5,D30SZ,397,test
848.7780094146729,5,2,4,1,0,3,E+,1,0,4,0,1000,250.0,0,D30SZ,398,test
769.6669101715088,5,2,4,1,0,3,E+,1,3,5,0,1000,250.0,3,D30SZ,399,test
512.7239227294922,5,2,4,1,0,3,E+,1,3,5,0,1000,250.0,3,D30SZ,400,test
832.8850269317627,5,2,4,1,0,3,E+,1,1,3,0,1000,250.0,1,D30SZ,401,test
592.6799774169922,5,2,4,1,0,3,E+,1,3,5,0,1000,250.0,3,D30SZ,402,test
496.95611000061035,5,2,4,1,0,3,E+,1,3,5,0,1000,250.0,3,D30SZ,403,test
721.196174621582,5,2,4,1,0,3,E+,1,4,2,0,1000,250.0,4,D30SZ,404,test
977.1678447723389,5,2,4,1,0,3,E+,1,0,4,0,1000,250.0,0,D30SZ,405,test
785.0701808929443,5,2,4,1,0,3,E+,1,4,2,0,1000,250.0,4,D30SZ,406,test
833.2028388977051,5,2,4,1,0,3,E+,1,2,1,0,1000,250.0,2,D30SZ,407,test
705.0759792327881,5,2,4,1,0,3,E+,1,1,3,0,1000,250.0,1,D30SZ,408,test
976.9690036773682,5,2,4,1,0,3,E+,1,0,4,0,1000,250.0,0,D30SZ,409,test
624.9887943267822,5,2,4,1,0,3,E+,1,3,5,0,1000,250.0,3,D30SZ,410,test
593.1599140167236,5,2,4,1,0,3,E+,1,1,3,0,1000,250.0,1,D30SZ,411,test
705.1670551300049,5,2,4,1,0,3,E+,1,0,4,0,1000,250.0,0,D30SZ,412,test
785.0749492645264,5,2,4,1,0,3,E+,1,4,2,0,1000,250.0,4,D30SZ,413,test
640.8379077911377,5,2,4,1,0,3,E+,1,0,4,0,1000,250.0,0,D30SZ,414,test
544.9049472808838,5,2,4,1,0,3,E+,1,0,4,0,1000,250.0,0,D30SZ,415,test
577.0618915557861,5,2,4,1,0,3,E+,1,0,4,0,1000,250.0,0,D30SZ,416,test
1088.4490013122559,5,2,4,1,0,3,E+,1,5,0,0,1000,250.0,5,D30SZ,417,test
768.913984298706,5,2,4,1,0,3,E+,1,0,4,0,1000,250.0,0,D30SZ,418,test
544.7278022766113,5,2,4,1,0,3,E+,1,0,4,0,1000,250.0,0,D30SZ,419,test
800.9040355682373,5,2,4,1,0,3,E+,1,2,1,0,1000,250.0,2,D30SZ,420,test
592.8220748901367,5,2,4,1,0,3,E+,1,0,4,0,1000,250.0,0,D30SZ,421,test
672.8360652923584,5,2,4,1,0,3,E+,1,0,4,0,1000,250.0,0,D30SZ,422,test
624.7899532318115,5,2,4,1,0,3,E+,1,1,3,0,1000,250.0,1,D30SZ,423,test
864.865779876709,5,2,4,1,0,3,E+,1,3,5,0,1000,250.0,3,D30SZ,424,test
672.8169918060303,5,2,4,1,0,3,E+,1,1,3,0,1000,250.0,1,D30SZ,425,test
576.8740177154541,5,2,4,1,0,3,E+,1,4,2,0,1000,250.0,4,D30SZ,426,test
720.9229469299316,5,2,4,1,0,3,E+,1,3,5,0,1000,250.0,3,D30SZ,427,test
624.8810291290283,5,2,4,1,0,3,E+,1,0,4,0,1000,250.0,0,D30SZ,428,test
768.1000232696533,5,2,4,1,0,3,E+,1,3,5,0,1000,250.0,3,D30SZ,429,test
1408.991813659668,5,2,4,1,0,3,E+,1,2,1,0,1000,250.0,2,D30SZ,430,test
624.9580383300781,5,2,4,1,0,3,E+,1,1,3,0,1000,250.0,1,D30SZ,431,test
864.797830581665,5,2,4,1,0,3,E+,1,2,1,0,1000,250.0,2,D30SZ,432,test
768.7768936157227,5,2,4,1,0,3,E+,1,5,0,0,1000,250.0,5,D30SZ,433,test
848.5040664672852,5,2,4,1,0,3,E+,1,2,1,0,1000,250.0,2,D30SZ,434,test
672.8849411010742,5,2,4,1,0,3,E+,1,1,3,0,1000,250.0,1,D30SZ,435,test
976.7589569091797,5,2,4,1,0,3,E+,1,2,1,0,1000,250.0,2,D30SZ,436,test
976.82785987854,5,2,4,1,0,3,E+,1,2,1,0,1000,250.0,2,D30SZ,437,test
656.8012237548828,5,2,4,1,0,3,E+,1,2,1,0,1000,250.0,2,D30SZ,438,test
736.9170188903809,5,2,4,1,0,3,E+,1,2,1,0,1000,250.0,2,D30SZ,439,test
768.7931060791016,5,2,4,1,0,3,E+,1,1,3,0,1000,250.0,1,D30SZ,440,test
912.8670692443848,5,2,4,1,0,3,E+,1,2,1,0,1000,250.0,2,D30SZ,441,test
704.719066619873,5,2,4,1,0,3,E+,1,4,2,0,1000,250.0,4,D30SZ,442,test
944.8580741882324,5,2,4,1,0,3,E+,1,5,0,0,1000,250.0,5,D30SZ,443,test
1840.682029724121,5,2,4,1,0,3,E+,1,5,0,0,1000,250.0,5,D30SZ,444,test
1056.9069385528564,5,2,4,1,0,3,E+,1,5,0,0,1000,250.0,5,D30SZ,445,test
800.7550239562988,5,2,4,1,0,3,E+,1,2,1,0,1000,250.0,2,D30SZ,446,test
1296.3981628417969,5,2,4,1,0,3,E+,1,0,4,0,1000,250.0,0,D30SZ,447,test
1104.8121452331543,5,2,4,1,0,3,E+,1,2,1,0,1000,250.0,2,D30SZ,448,test
704.7650814056396,5,2,4,1,0,3,E+,1,5,0,0,1000,250.0,5,D30SZ,449,test
608.7770462036133,5,2,4,1,0,3,E+,1,4,2,0,1000,250.0,4,D30SZ,450,test
640.9111022949219,5,2,4,1,0,3,E+,1,2,1,0,1000,250.0,2,D30SZ,451,test
544.748067855835,5,2,4,1,0,3,E+,1,2,1,0,1000,250.0,2,D30SZ,452,test
704.8981189727783,5,2,4,1,0,3,E+,1,2,1,0,1000,250.0,2,D30SZ,453,test
656.9149494171143,5,2,4,1,0,3,E+,0,4,2,0,1000,250.0,5,D30SZ,454,test
608.9189052581787,5,2,4,1,0,3,E+,1,2,1,0,1000,250.0,2,D30SZ,455,test
736.475944519043,5,2,4,1,0,3,E+,1,0,4,0,1000,250.0,0,D30SZ,456,test
816.9379234313965,5,2,4,1,0,3,E+,1,2,1,0,1000,250.0,2,D30SZ,457,test
560.8139038085938,5,2,4,1,0,3,E+,1,2,1,0,1000,250.0,2,D30SZ,458,test
1105.0169467926025,5,2,4,1,0,3,E+,1,5,0,0,1000,250.0,5,D30SZ,459,test
688.8959407806396,5,2,4,1,0,3,E+,1,1,3,0,1000,250.0,1,D30SZ,460,test
736.8991374969482,5,2,4,1,0,3,E+,1,1,3,0,1000,250.0,1,D30SZ,461,test
704.9410343170166,5,2,4,1,0,3,E+,1,1,3,0,1000,250.0,1,D30SZ,462,test
608.9260578155518,5,2,4,1,0,3,E+,1,1,3,0,1000,250.0,1,D30SZ,463,test
752.938985824585,5,2,4,1,0,3,E+,0,3,5,0,1000,250.0,4,D30SZ,464,test
1216.9280052185059,5,2,4,1,0,3,E+,1,2,1,0,1000,250.0,2,D30SZ,465,test
768.7108516693115,5,2,4,1,0,3,E+,1,2,1,0,1000,250.0,2,D30SZ,466,test
688.3599758148193,5,2,4,1,0,3,E+,1,3,5,0,1000,250.0,3,D30SZ,467,test
864.9840354919434,5,2,4,1,0,3,E+,1,2,1,0,1000,250.0,2,D30SZ,468,test
992.7630424499512,5,2,4,1,0,3,E+,1,5,0,0,1000,250.0,5,D30SZ,469,test
576.6642093658447,5,2,4,1,0,3,E+,1,5,0,0,1000,250.0,5,D30SZ,470,test
672.6641654968262,5,2,4,1,0,3,E+,1,4,2,0,1000,250.0,4,D30SZ,471,test
992.7229881286621,5,2,4,1,0,3,E+,1,5,0,0,1000,250.0,5,D30SZ,472,test
768.6917781829834,5,2,4,1,0,3,E+,1,4,2,0,1000,250.0,4,D30SZ,473,test
1184.9188804626465,5,2,4,1,0,3,E+,1,0,4,0,1000,250.0,0,D30SZ,474,test
1456.873893737793,5,2,4,1,0,3,E+,1,3,5,0,1000,250.0,3,D30SZ,475,test
1328.8180828094482,5,2,4,1,0,3,E+,1,0,4,0,1000,250.0,0,D30SZ,476,test
1008.7947845458984,5,2,4,1,0,3,E+,1,4,2,0,1000,250.0,4,D30SZ,477,test
848.8600254058838,5,2,4,1,0,3,E+,1,1,3,0,1000,250.0,1,D30SZ,478,test
720.8020687103271,5,2,4,1,0,3,E+,1,0,4,0,1000,250.0,0,D30SZ,479,test
496.7927932739258,5,2,4,1,0,3,E+,1,0,4,0,1000,250.0,0,D30SZ,480,test
849.0400314331055,5,2,4,1,0,3,E+,1,2,1,0,1000,250.0,2,D30SZ,481,test
656.937837600708,5,2,4,1,0,3,E+,1,1,3,0,1000,250.0,1,D30SZ,482,test
576.8659114837646,5,2,4,1,0,3,E+,1,0,4,0,1000,250.0,0,D30SZ,483,test
816.9188499450684,5,2,4,1,0,3,E+,1,2,1,0,1000,250.0,2,D30SZ,484,test
736.9580268859863,5,2,4,1,0,3,E+,1,4,2,0,1000,250.0,4,D30SZ,485,test
624.8838901519775,5,2,4,1,0,3,E+,1,2,1,0,1000,250.0,2,D30SZ,486,test
544.8319911956787,5,2,4,1,0,3,E+,1,1,3,0,1000,250.0,1,D30SZ,487,test
544.8141098022461,5,2,4,1,0,3,E+,0,3,5,0,1000,250.0,4,D30SZ,488,test
560.7399940490723,5,2,4,1,0,3,E+,1,0,4,0,1000,250.0,0,D30SZ,489,test
624.8178482055664,5,2,4,1,0,3,E+,1,1,3,0,1000,250.0,1,D30SZ,490,test
704.8630714416504,5,2,4,1,0,3,E+,1,2,1,0,1000,250.0,2,D30SZ,491,test
512.6180648803711,5,2,4,1,0,3,E+,1,1,3,0,1000,250.0,1,D30SZ,492,test
704.7247886657715,5,2,4,1,0,3,E+,1,2,1,0,1000,250.0,2,D30SZ,493,test
624.7351169586182,5,2,4,1,0,3,E+,1,0,4,0,1000,250.0,0,D30SZ,494,test
736.7231845855713,5,2,4,1,0,3,E+,1,4,2,0,1000,250.0,4,D30SZ,495,test
720.8077907562256,5,2,4,1,0,3,E+,1,1,3,0,1000,250.0,1,D30SZ,496,test
800.6801605224609,5,2,4,1,0,3,E+,1,3,5,0,1000,250.0,3,D30SZ,497,test
544.9011325836182,5,2,4,1,0,3,E+,1,3,5,0,1000,250.0,3,D30SZ,498,test
624.8819828033447,5,2,4,1,0,3,E+,1,4,2,0,1000,250.0,4,D30SZ,499,test
