RT,SRmap_0,SRmap_1,SRmap_2,SRmap_3,SRmap_4,SRmap_5,condition,correct,correct_response,curstim,ms-precue,ms-prestimblank,ntrials,response,subject,trial,type
5407.5329303741455,3,2,5,4,1,0,E+,1,2,1,400,600,250.0,2,D15MS,0,train
399.6999263763428,3,2,5,4,1,0,E+,1,2,1,400,600,250.0,2,D15MS,1,train
159.7139835357666,3,2,5,4,1,0,E+,1,0,5,400,600,250.0,0,D15MS,2,train
479.7999858856201,3,2,5,4,1,0,E+,1,5,2,400,600,250.0,5,D15MS,3,train
399.86610412597656,3,2,5,4,1,0,E+,1,5,2,400,600,250.0,5,D15MS,4,train
223.84881973266602,3,2,5,4,1,0,E+,1,0,5,400,600,250.0,0,D15MS,5,train
815.8259391784668,3,2,5,4,1,0,E+,0,5,2,400,600,250.0,1,D15MS,6,train
543.8830852508545,3,2,5,4,1,0,E+,1,0,5,400,600,250.0,0,D15MS,7,train
111.7861270904541,3,2,5,4,1,0,E+,1,1,4,400,600,250.0,1,D15MS,8,train
319.8239803314209,3,2,5,4,1,0,E+,1,0,5,400,600,250.0,0,D15MS,9,train
255.77497482299805,3,2,5,4,1,0,E+,1,1,4,400,600,250.0,1,D15MS,10,train
495.02086639404297,3,2,5,4,1,0,E+,1,2,1,400,600,250.0,2,D15MS,11,train
255.126953125,3,2,5,4,1,0,E+,1,2,1,400,600,250.0,2,D15MS,12,train
463.09399604797363,3,2,5,4,1,0,E+,1,2,1,400,600,250.0,2,D15MS,13,train
79.2551040649414,3,2,5,4,1,0,E+,1,0,5,400,600,250.0,0,D15MS,14,train
591.0849571228027,3,2,5,4,1,0,E+,0,3,0,400,600,250.0,4,D15MS,15,train
382.95817375183105,3,2,5,4,1,0,E+,1,2,1,400,600,250.0,2,D15MS,16,train
463.0911350250244,3,2,5,4,1,0,E+,1,2,1,400,600,250.0,2,D15MS,17,train
271.0270881652832,3,2,5,4,1,0,E+,1,0,5,400,600,250.0,0,D15MS,18,train
335.14904975891113,3,2,5,4,1,0,E+,1,3,0,400,600,250.0,3,D15MS,19,train
399.11794662475586,3,2,5,4,1,0,E+,1,3,0,400,600,250.0,3,D15MS,20,train
431.0469627380371,3,2,5,4,1,0,E+,1,4,3,400,600,250.0,4,D15MS,21,train
351.16100311279297,3,2,5,4,1,0,E+,1,0,5,400,600,250.0,0,D15MS,22,train
431.38813972473145,3,2,5,4,1,0,E+,1,4,3,400,600,250.0,4,D15MS,23,train
319.8740482330322,3,2,5,4,1,0,E+,1,3,0,400,600,250.0,3,D15MS,24,train
142.9741382598877,3,2,5,4,1,0,E+,1,2,1,400,600,250.0,2,D15MS,25,train
63.1711483001709,3,2,5,4,1,0,E+,1,1,4,400,600,250.0,1,D15MS,26,train
255.0790309906006,3,2,5,4,1,0,E+,1,5,2,400,600,250.0,5,D15MS,27,train
191.1029815673828,3,2,5,4,1,0,E+,1,5,2,400,600,250.0,5,D15MS,28,train
271.2249755859375,3,2,5,4,1,0,E+,1,5,2,400,600,250.0,5,D15MS,29,train
159.0590476989746,3,2,5,4,1,0,E+,1,4,3,400,600,250.0,4,D15MS,30,train
159.06810760498047,3,2,5,4,1,0,E+,1,3,0,400,600,250.0,3,D15MS,31,train
127.11787223815918,3,2,5,4,1,0,E+,1,2,1,400,600,250.0,2,D15MS,32,train
559.1409206390381,3,2,5,4,1,0,E+,1,3,0,400,600,250.0,3,D15MS,33,train
143.2168483734131,3,2,5,4,1,0,E+,1,1,4,400,600,250.0,1,D15MS,34,train
191.05005264282227,3,2,5,4,1,0,E+,1,5,2,400,600,250.0,5,D15MS,35,train
127.21395492553711,3,2,5,4,1,0,E+,1,0,5,400,600,250.0,0,D15MS,36,train
79.13398742675781,3,2,5,4,1,0,E+,1,0,5,400,600,250.0,0,D15MS,37,train
271.1338996887207,3,2,5,4,1,0,E+,1,4,3,400,600,250.0,4,D15MS,38,train
191.1299228668213,3,2,5,4,1,0,E+,1,1,4,400,600,250.0,1,D15MS,39,train
207.08894729614258,3,2,5,4,1,0,E+,1,5,2,400,600,250.0,5,D15MS,40,train
239.02606964111328,3,2,5,4,1,0,E+,1,3,0,400,600,250.0,3,D15MS,41,train
79.16116714477539,3,2,5,4,1,0,E+,1,0,5,400,600,250.0,0,D15MS,42,train
126.94907188415527,3,2,5,4,1,0,E+,1,3,0,400,600,250.0,3,D15MS,43,train
303.04598808288574,3,2,5,4,1,0,E+,1,4,3,400,600,250.0,4,D15MS,44,train
207.0479393005371,3,2,5,4,1,0,E+,0,2,1,400,600,250.0,1,D15MS,45,train
127.00819969177246,3,2,5,4,1,0,E+,1,1,4,400,600,250.0,1,D15MS,46,train
223.0849266052246,3,2,5,4,1,0,E+,1,2,1,400,600,250.0,2,D15MS,47,train
287.10103034973145,3,2,5,4,1,0,E+,0,4,3,400,600,250.0,5,D15MS,48,train
319.0600872039795,3,2,5,4,1,0,E+,1,4,3,400,600,250.0,4,D15MS,49,train
303.1330108642578,3,2,5,4,1,0,E+,1,3,0,400,600,250.0,3,D15MS,50,train
191.09392166137695,3,2,5,4,1,0,E+,1,2,1,400,600,250.0,2,D15MS,51,train
207.20505714416504,3,2,5,4,1,0,E+,1,2,1,400,600,250.0,2,D15MS,52,train
222.9609489440918,3,2,5,4,1,0,E+,1,0,5,400,600,250.0,0,D15MS,53,train
351.5439033508301,3,2,5,4,1,0,E+,1,2,1,400,600,250.0,2,D15MS,54,train
399.07097816467285,3,2,5,4,1,0,E+,1,0,5,400,600,250.0,0,D15MS,55,train
159.0139865875244,3,2,5,4,1,0,E+,1,0,5,400,600,250.0,0,D15MS,56,train
95.20411491394043,3,2,5,4,1,0,E+,1,1,4,400,600,250.0,1,D15MS,57,train
335.1309299468994,3,2,5,4,1,0,E+,0,4,3,400,600,250.0,5,D15MS,58,train
239.1350269317627,3,2,5,4,1,0,E+,1,0,5,400,600,250.0,0,D15MS,59,train
159.08384323120117,3,2,5,4,1,0,E+,0,3,0,400,600,250.0,2,D15MS,60,train
95.03793716430664,3,2,5,4,1,0,E+,1,0,5,400,600,250.0,0,D15MS,61,train
239.732027053833,3,2,5,4,1,0,E+,1,5,2,400,600,250.0,5,D15MS,62,train
319.7901248931885,3,2,5,4,1,0,E+,1,0,5,400,600,250.0,0,D15MS,63,train
191.76101684570312,3,2,5,4,1,0,E+,1,1,4,400,600,250.0,1,D15MS,64,train
207.08703994750977,3,2,5,4,1,0,E+,1,0,5,400,600,250.0,0,D15MS,65,train
607.1329116821289,3,2,5,4,1,0,E+,0,3,0,400,600,250.0,4,D15MS,66,train
239.1800880432129,3,2,5,4,1,0,E+,1,2,1,400,600,250.0,2,D15MS,67,train
207.10301399230957,3,2,5,4,1,0,E+,1,2,1,400,600,250.0,2,D15MS,68,train
319.0939426422119,3,2,5,4,1,0,E+,1,3,0,400,600,250.0,3,D15MS,69,train
255.12003898620605,3,2,5,4,1,0,E+,1,1,4,400,600,250.0,1,D15MS,70,train
271.05188369750977,3,2,5,4,1,0,E+,1,5,2,400,600,250.0,5,D15MS,71,train
223.01006317138672,3,2,5,4,1,0,E+,1,4,3,400,600,250.0,4,D15MS,72,train
143.10622215270996,3,2,5,4,1,0,E+,1,0,5,400,600,250.0,0,D15MS,73,train
207.05795288085938,3,2,5,4,1,0,E+,1,0,5,400,600,250.0,0,D15MS,74,train
271.04997634887695,3,2,5,4,1,0,E+,1,5,2,400,600,250.0,5,D15MS,75,train
591.1848545074463,3,2,5,4,1,0,E+,1,4,3,400,600,250.0,4,D15MS,76,train
447.09300994873047,3,2,5,4,1,0,E+,1,3,0,400,600,250.0,3,D15MS,77,train
143.0988311767578,3,2,5,4,1,0,E+,1,1,4,400,600,250.0,1,D15MS,78,train
207.14712142944336,3,2,5,4,1,0,E+,1,0,5,400,600,250.0,0,D15MS,79,train
190.9940242767334,3,2,5,4,1,0,E+,1,2,1,400,600,250.0,2,D15MS,80,train
143.15009117126465,3,2,5,4,1,0,E+,1,0,5,400,600,250.0,0,D15MS,81,train
223.10996055603027,3,2,5,4,1,0,E+,1,5,2,400,600,250.0,5,D15MS,82,train
207.0629596710205,3,2,5,4,1,0,E+,1,5,2,400,600,250.0,5,D15MS,83,train
158.74290466308594,3,2,5,4,1,0,E+,1,0,5,400,600,250.0,0,D15MS,84,train
335.1781368255615,3,2,5,4,1,0,E+,1,3,0,400,600,250.0,3,D15MS,85,train
271.09599113464355,3,2,5,4,1,0,E+,1,2,1,400,600,250.0,2,D15MS,86,train
79.2849063873291,3,2,5,4,1,0,E+,1,1,4,400,600,250.0,1,D15MS,87,train
158.9639186859131,3,2,5,4,1,0,E+,1,5,2,400,600,250.0,5,D15MS,88,train
255.11908531188965,3,2,5,4,1,0,E+,1,2,1,400,600,250.0,2,D15MS,89,train
319.14305686950684,3,2,5,4,1,0,E+,1,5,2,400,600,250.0,5,D15MS,90,train
303.1189441680908,3,2,5,4,1,0,E+,0,2,1,400,600,250.0,1,D15MS,91,train
159.14297103881836,3,2,5,4,1,0,E+,1,3,0,400,600,250.0,3,D15MS,92,train
207.07392692565918,3,2,5,4,1,0,E+,1,5,2,400,600,250.0,5,D15MS,93,train
559.1940879821777,3,2,5,4,1,0,E+,1,2,1,400,600,250.0,2,D15MS,94,train
15.166997909545898,3,2,5,4,1,0,E+,1,2,1,400,600,250.0,2,D15MS,95,train
527.101993560791,3,2,5,4,1,0,E+,1,4,3,400,600,250.0,4,D15MS,96,train
239.09902572631836,3,2,5,4,1,0,E+,1,5,2,400,600,250.0,5,D15MS,97,train
95.13616561889648,3,2,5,4,1,0,E+,1,0,5,400,600,250.0,0,D15MS,98,train
175.08912086486816,3,2,5,4,1,0,E+,1,0,5,400,600,250.0,0,D15MS,99,train
159.03997421264648,3,2,5,4,1,0,E+,1,5,2,400,600,250.0,5,D15MS,100,train
367.11716651916504,3,2,5,4,1,0,E+,1,2,1,400,600,250.0,2,D15MS,101,train
271.0440158843994,3,2,5,4,1,0,E+,1,2,1,400,600,250.0,2,D15MS,102,train
111.0692024230957,3,2,5,4,1,0,E+,1,1,4,400,600,250.0,1,D15MS,103,train
159.08098220825195,3,2,5,4,1,0,E+,1,3,0,400,600,250.0,3,D15MS,104,train
158.99395942687988,3,2,5,4,1,0,E+,1,1,4,400,600,250.0,1,D15MS,105,train
143.1589126586914,3,2,5,4,1,0,E+,1,1,4,400,600,250.0,1,D15MS,106,train
127.04801559448242,3,2,5,4,1,0,E+,1,1,4,400,600,250.0,1,D15MS,107,train
63.13514709472656,3,2,5,4,1,0,E+,1,1,4,400,600,250.0,1,D15MS,108,train
143.04304122924805,3,2,5,4,1,0,E+,1,0,5,400,600,250.0,0,D15MS,109,train
95.21102905273438,3,2,5,4,1,0,E+,1,0,5,400,600,250.0,0,D15MS,110,train
191.1020278930664,3,2,5,4,1,0,E+,1,1,4,400,600,250.0,1,D15MS,111,train
335.18004417419434,3,2,5,4,1,0,E+,1,4,3,400,600,250.0,4,D15MS,112,train
191.0719871520996,3,2,5,4,1,0,E+,1,5,2,400,600,250.0,5,D15MS,113,train
159.06596183776855,3,2,5,4,1,0,E+,1,2,1,400,600,250.0,2,D15MS,114,train
143.03898811340332,3,2,5,4,1,0,E+,0,3,0,400,600,250.0,4,D15MS,115,train
95.08204460144043,3,2,5,4,1,0,E+,1,0,5,400,600,250.0,0,D15MS,116,train
367.15102195739746,3,2,5,4,1,0,E+,1,4,3,400,600,250.0,4,D15MS,117,train
95.11399269104004,3,2,5,4,1,0,E+,1,1,4,400,600,250.0,1,D15MS,118,train
191.07413291931152,3,2,5,4,1,0,E+,1,2,1,400,600,250.0,2,D15MS,119,train
63.12084197998047,3,2,5,4,1,0,E+,1,0,5,400,600,250.0,0,D15MS,120,train
207.03387260437012,3,2,5,4,1,0,E+,1,4,3,400,600,250.0,4,D15MS,121,train
175.14514923095703,3,2,5,4,1,0,E+,1,5,2,400,600,250.0,5,D15MS,122,train
63.17400932312012,3,2,5,4,1,0,E+,1,5,2,400,600,250.0,5,D15MS,123,train
79.16498184204102,3,2,5,4,1,0,E+,1,4,3,400,600,250.0,4,D15MS,124,train
239.11190032958984,3,2,5,4,1,0,E+,1,3,0,400,600,250.0,3,D15MS,125,train
15.025138854980469,3,2,5,4,1,0,E+,1,2,1,400,600,250.0,2,D15MS,126,train
623.2080459594727,3,2,5,4,1,0,E+,1,1,4,400,600,250.0,1,D15MS,127,train
207.07106590270996,3,2,5,4,1,0,E+,1,5,2,400,600,250.0,5,D15MS,128,train
223.0210304260254,3,2,5,4,1,0,E+,1,2,1,400,600,250.0,2,D15MS,129,train
63.23719024658203,3,2,5,4,1,0,E+,1,0,5,400,600,250.0,0,D15MS,130,train
63.1709098815918,3,2,5,4,1,0,E+,1,0,5,400,600,250.0,0,D15MS,131,train
127.03800201416016,3,2,5,4,1,0,E+,1,0,5,400,600,250.0,0,D15MS,132,train
175.06098747253418,3,2,5,4,1,0,E+,0,3,0,400,600,250.0,4,D15MS,133,train
127.15721130371094,3,2,5,4,1,0,E+,1,2,1,400,600,250.0,2,D15MS,134,train
159.11197662353516,3,2,5,4,1,0,E+,1,2,1,400,600,250.0,2,D15MS,135,train
479.1691303253174,3,2,5,4,1,0,E+,1,4,3,400,600,250.0,4,D15MS,136,train
143.1272029876709,3,2,5,4,1,0,E+,1,0,5,400,600,250.0,0,D15MS,137,train
111.11783981323242,3,2,5,4,1,0,E+,1,2,1,400,600,250.0,2,D15MS,138,train
159.18493270874023,3,2,5,4,1,0,E+,1,2,1,400,600,250.0,2,D15MS,139,train
255.14507293701172,3,2,5,4,1,0,E+,1,4,3,400,600,250.0,4,D15MS,140,train
63.169002532958984,3,2,5,4,1,0,E+,1,0,5,400,600,250.0,0,D15MS,141,train
287.11605072021484,3,2,5,4,1,0,E+,1,3,0,400,600,250.0,3,D15MS,142,train
127.00796127319336,3,2,5,4,1,0,E+,1,2,1,400,600,250.0,2,D15MS,143,train
95.1380729675293,3,2,5,4,1,0,E+,1,1,4,400,600,250.0,1,D15MS,144,train
79.12397384643555,3,2,5,4,1,0,E+,1,1,4,400,600,250.0,1,D15MS,145,train
111.1149787902832,3,2,5,4,1,0,E+,1,2,1,400,600,250.0,2,D15MS,146,train
351.17101669311523,3,2,5,4,1,0,E+,1,4,3,400,600,250.0,4,D15MS,147,train
191.27607345581055,3,2,5,4,1,0,E+,1,5,2,400,600,250.0,5,D15MS,148,train
111.12403869628906,3,2,5,4,1,0,E+,1,1,4,400,600,250.0,1,D15MS,149,train
207.11803436279297,3,2,5,4,1,0,E+,1,3,0,400,600,250.0,3,D15MS,150,train
62.81399726867676,3,2,5,4,1,0,E+,1,3,0,400,600,250.0,3,D15MS,151,train
111.19699478149414,3,2,5,4,1,0,E+,1,4,3,400,600,250.0,4,D15MS,152,train
143.10908317565918,3,2,5,4,1,0,E+,1,5,2,400,600,250.0,5,D15MS,153,train
63.094139099121094,3,2,5,4,1,0,E+,1,5,2,400,600,250.0,5,D15MS,154,train
127.0911693572998,3,2,5,4,1,0,E+,1,0,5,400,600,250.0,0,D15MS,155,train
63.14587593078613,3,2,5,4,1,0,E+,1,1,4,400,600,250.0,1,D15MS,156,train
95.29495239257812,3,2,5,4,1,0,E+,1,1,4,400,600,250.0,1,D15MS,157,train
159.03019905090332,3,2,5,4,1,0,E+,1,5,2,400,600,250.0,5,D15MS,158,train
142.96317100524902,3,2,5,4,1,0,E+,1,1,4,400,600,250.0,1,D15MS,159,train
111.05990409851074,3,2,5,4,1,0,E+,1,0,5,400,600,250.0,0,D15MS,160,train
143.18490028381348,3,2,5,4,1,0,E+,1,2,1,400,600,250.0,2,D15MS,161,train
463.09781074523926,3,2,5,4,1,0,E+,1,1,4,400,600,250.0,1,D15MS,162,train
415.11011123657227,3,2,5,4,1,0,E+,1,4,3,400,600,250.0,4,D15MS,163,train
79.23102378845215,3,2,5,4,1,0,E+,1,1,4,400,600,250.0,1,D15MS,164,train
126.7399787902832,3,2,5,4,1,0,E+,1,5,2,400,600,250.0,5,D15MS,165,train
127.18319892883301,3,2,5,4,1,0,E+,1,1,4,400,600,250.0,1,D15MS,166,train
223.11091423034668,3,2,5,4,1,0,E+,1,3,0,400,600,250.0,3,D15MS,167,train
127.03084945678711,3,2,5,4,1,0,E+,1,5,2,400,600,250.0,5,D15MS,168,train
143.18394660949707,3,2,5,4,1,0,E+,1,5,2,400,600,250.0,5,D15MS,169,train
431.20288848876953,3,2,5,4,1,0,E+,1,4,3,400,600,250.0,4,D15MS,170,train
206.91800117492676,3,2,5,4,1,0,E+,1,2,1,400,600,250.0,2,D15MS,171,train
127.0139217376709,3,2,5,4,1,0,E+,0,3,0,400,600,250.0,4,D15MS,172,train
175.0931739807129,3,2,5,4,1,0,E+,1,2,1,400,600,250.0,2,D15MS,173,train
239.09592628479004,3,2,5,4,1,0,E+,1,5,2,400,600,250.0,5,D15MS,174,train
191.09010696411133,3,2,5,4,1,0,E+,1,3,0,400,600,250.0,3,D15MS,175,train
159.15608406066895,3,2,5,4,1,0,E+,1,2,1,400,600,250.0,2,D15MS,176,train
207.1361541748047,3,2,5,4,1,0,E+,1,4,3,400,600,250.0,4,D15MS,177,train
127.14099884033203,3,2,5,4,1,0,E+,1,0,5,400,600,250.0,0,D15MS,178,train
127.06804275512695,3,2,5,4,1,0,E+,1,5,2,400,600,250.0,5,D15MS,179,train
175.11606216430664,3,2,5,4,1,0,E+,1,3,0,400,600,250.0,3,D15MS,180,train
222.96404838562012,3,2,5,4,1,0,E+,1,1,4,400,600,250.0,1,D15MS,181,train
223.11902046203613,3,2,5,4,1,0,E+,1,4,3,400,600,250.0,4,D15MS,182,train
223.12402725219727,3,2,5,4,1,0,E+,1,4,3,400,600,250.0,4,D15MS,183,train
190.7038688659668,3,2,5,4,1,0,E+,0,2,1,400,600,250.0,3,D15MS,184,train
223.10996055603027,3,2,5,4,1,0,E+,1,4,3,400,600,250.0,4,D15MS,185,train
127.06303596496582,3,2,5,4,1,0,E+,1,2,1,400,600,250.0,2,D15MS,186,train
223.0989933013916,3,2,5,4,1,0,E+,1,3,0,400,600,250.0,3,D15MS,187,train
95.11113166809082,3,2,5,4,1,0,E+,1,0,5,400,600,250.0,0,D15MS,188,train
175.15015602111816,3,2,5,4,1,0,E+,1,0,5,400,600,250.0,0,D15MS,189,train
415.4849052429199,3,2,5,4,1,0,E+,1,4,3,400,600,250.0,4,D15MS,190,train
191.05005264282227,3,2,5,4,1,0,E+,1,1,4,400,600,250.0,1,D15MS,191,train
63.117027282714844,3,2,5,4,1,0,E+,1,0,5,400,600,250.0,0,D15MS,192,train
63.18211555480957,3,2,5,4,1,0,E+,1,1,4,400,600,250.0,1,D15MS,193,train
31.055927276611328,3,2,5,4,1,0,E+,0,4,3,400,600,250.0,5,D15MS,194,train
159.10005569458008,3,2,5,4,1,0,E+,0,3,0,400,600,250.0,4,D15MS,195,train
95.1089859008789,3,2,5,4,1,0,E+,1,0,5,400,600,250.0,0,D15MS,196,train
111.07397079467773,3,2,5,4,1,0,E+,1,2,1,400,600,250.0,2,D15MS,197,train
191.08080863952637,3,2,5,4,1,0,E+,1,3,0,400,600,250.0,3,D15MS,198,train
271.37112617492676,3,2,5,4,1,0,E+,1,3,0,400,600,250.0,3,D15MS,199,train
207.04388618469238,3,2,5,4,1,0,E+,1,5,2,400,600,250.0,5,D15MS,200,train
111.12189292907715,3,2,5,4,1,0,E+,1,0,5,400,600,250.0,0,D15MS,201,train
336.64608001708984,3,2,5,4,1,0,E+,1,3,0,400,600,250.0,3,D15MS,202,train
207.1380615234375,3,2,5,4,1,0,E+,1,5,2,400,600,250.0,5,D15MS,203,train
143.11599731445312,3,2,5,4,1,0,E+,1,0,5,400,600,250.0,0,D15MS,204,train
127.17485427856445,3,2,5,4,1,0,E+,1,2,1,400,600,250.0,2,D15MS,205,train
207.0779800415039,3,2,5,4,1,0,E+,1,1,4,400,600,250.0,1,D15MS,206,train
95.17407417297363,3,2,5,4,1,0,E+,1,2,1,400,600,250.0,2,D15MS,207,train
191.03097915649414,3,2,5,4,1,0,E+,1,3,0,400,600,250.0,3,D15MS,208,train
159.2419147491455,3,2,5,4,1,0,E+,1,5,2,400,600,250.0,5,D15MS,209,train
78.92394065856934,3,2,5,4,1,0,E+,1,0,5,400,600,250.0,0,D15MS,210,train
159.20495986938477,3,2,5,4,1,0,E+,1,5,2,400,600,250.0,5,D15MS,211,train
111.10091209411621,3,2,5,4,1,0,E+,1,0,5,400,600,250.0,0,D15MS,212,train
127.52580642700195,3,2,5,4,1,0,E+,1,4,3,400,600,250.0,4,D15MS,213,train
111.32311820983887,3,2,5,4,1,0,E+,1,1,4,400,600,250.0,1,D15MS,214,train
175.10294914245605,3,2,5,4,1,0,E+,1,3,0,400,600,250.0,3,D15MS,215,train
47.31106758117676,3,2,5,4,1,0,E+,1,1,4,400,600,250.0,1,D15MS,216,train
543.1509017944336,3,2,5,4,1,0,E+,1,0,5,400,600,250.0,0,D15MS,217,train
319.13089752197266,3,2,5,4,1,0,E+,1,3,0,400,600,250.0,3,D15MS,218,train
143.28598976135254,3,2,5,4,1,0,E+,1,0,5,400,600,250.0,0,D15MS,219,train
399.17492866516113,3,2,5,4,1,0,E+,1,4,3,400,600,250.0,4,D15MS,220,train
367.1560287475586,3,2,5,4,1,0,E+,1,3,0,400,600,250.0,3,D15MS,221,train
79.04291152954102,3,2,5,4,1,0,E+,1,0,5,400,600,250.0,0,D15MS,222,train
143.16296577453613,3,2,5,4,1,0,E+,1,5,2,400,600,250.0,5,D15MS,223,train
271.1460590362549,3,2,5,4,1,0,E+,1,2,1,400,600,250.0,2,D15MS,224,train
319.2160129547119,3,2,5,4,1,0,E+,1,3,0,400,600,250.0,3,D15MS,225,train
127.13098526000977,3,2,5,4,1,0,E+,1,1,4,400,600,250.0,1,D15MS,226,train
110.99004745483398,3,2,5,4,1,0,E+,1,1,4,400,600,250.0,1,D15MS,227,train
207.1058750152588,3,2,5,4,1,0,E+,0,4,3,400,600,250.0,3,D15MS,228,train
95.12209892272949,3,2,5,4,1,0,E+,1,0,5,400,600,250.0,0,D15MS,229,train
127.08902359008789,3,2,5,4,1,0,E+,1,1,4,400,600,250.0,1,D15MS,230,train
143.06402206420898,3,2,5,4,1,0,E+,1,0,5,400,600,250.0,0,D15MS,231,train
79.08797264099121,3,2,5,4,1,0,E+,1,0,5,400,600,250.0,0,D15MS,232,train
175.13799667358398,3,2,5,4,1,0,E+,0,3,0,400,600,250.0,2,D15MS,233,train
79.1780948638916,3,2,5,4,1,0,E+,1,0,5,400,600,250.0,0,D15MS,234,train
271.11196517944336,3,2,5,4,1,0,E+,1,3,0,400,600,250.0,3,D15MS,235,train
190.89794158935547,3,2,5,4,1,0,E+,1,5,2,400,600,250.0,5,D15MS,236,train
207.11302757263184,3,2,5,4,1,0,E+,1,4,3,400,600,250.0,4,D15MS,237,train
111.17315292358398,3,2,5,4,1,0,E+,1,0,5,400,600,250.0,0,D15MS,238,train
191.1311149597168,3,2,5,4,1,0,E+,1,2,1,400,600,250.0,2,D15MS,239,train
127.18391418457031,3,2,5,4,1,0,E+,1,1,4,400,600,250.0,1,D15MS,240,train
207.11588859558105,3,2,5,4,1,0,E+,1,3,0,400,600,250.0,3,D15MS,241,train
31.111955642700195,3,2,5,4,1,0,E+,1,0,5,400,600,250.0,0,D15MS,242,train
110.72397232055664,3,2,5,4,1,0,E+,1,5,2,400,600,250.0,5,D15MS,243,train
191.01500511169434,3,2,5,4,1,0,E+,1,2,1,400,600,250.0,2,D15MS,244,train
223.07395935058594,3,2,5,4,1,0,E+,1,4,3,400,600,250.0,4,D15MS,245,train
207.10301399230957,3,2,5,4,1,0,E+,1,3,0,400,600,250.0,3,D15MS,246,train
207.0138454437256,3,2,5,4,1,0,E+,0,4,3,400,600,250.0,5,D15MS,247,train
127.0139217376709,3,2,5,4,1,0,E+,1,5,2,400,600,250.0,5,D15MS,248,train
79.49709892272949,3,2,5,4,1,0,E+,1,0,5,400,600,250.0,0,D15MS,249,train
720.4098701477051,3,2,5,4,1,0,E+,1,5,2,0,1000,250.0,5,D15MS,250,test
624.4039535522461,3,2,5,4,1,0,E+,0,1,4,0,1000,250.0,3,D15MS,251,test
544.4610118865967,3,2,5,4,1,0,E+,1,5,2,0,1000,250.0,5,D15MS,252,test
512.382984161377,3,2,5,4,1,0,E+,1,5,2,0,1000,250.0,5,D15MS,253,test
288.3419990539551,3,2,5,4,1,0,E+,0,4,3,0,1000,250.0,0,D15MS,254,test
1072.4658966064453,3,2,5,4,1,0,E+,1,1,4,0,1000,250.0,1,D15MS,255,test
1392.4388885498047,3,2,5,4,1,0,E+,1,4,3,0,1000,250.0,4,D15MS,256,test
752.9869079589844,3,2,5,4,1,0,E+,1,4,3,0,1000,250.0,4,D15MS,257,test
1040.776014328003,3,2,5,4,1,0,E+,1,2,1,0,1000,250.0,2,D15MS,258,test
400.3641605377197,3,2,5,4,1,0,E+,1,2,1,0,1000,250.0,2,D15MS,259,test
592.4060344696045,3,2,5,4,1,0,E+,0,1,4,0,1000,250.0,3,D15MS,260,test
704.4661045074463,3,2,5,4,1,0,E+,0,2,1,0,1000,250.0,3,D15MS,261,test
528.4547805786133,3,2,5,4,1,0,E+,1,0,5,0,1000,250.0,0,D15MS,262,test
544.3170070648193,3,2,5,4,1,0,E+,0,2,1,0,1000,250.0,3,D15MS,263,test
464.40792083740234,3,2,5,4,1,0,E+,1,0,5,0,1000,250.0,0,D15MS,264,test
528.3780097961426,3,2,5,4,1,0,E+,1,5,2,0,1000,250.0,5,D15MS,265,test
368.4208393096924,3,2,5,4,1,0,E+,1,3,0,0,1000,250.0,3,D15MS,266,test
528.3799171447754,3,2,5,4,1,0,E+,1,3,0,0,1000,250.0,3,D15MS,267,test
1296.4119911193848,3,2,5,4,1,0,E+,1,4,3,0,1000,250.0,4,D15MS,268,test
560.3880882263184,3,2,5,4,1,0,E+,1,3,0,0,1000,250.0,3,D15MS,269,test
544.4209575653076,3,2,5,4,1,0,E+,1,5,2,0,1000,250.0,5,D15MS,270,test
576.4038562774658,3,2,5,4,1,0,E+,0,2,1,0,1000,250.0,3,D15MS,271,test
496.4609146118164,3,2,5,4,1,0,E+,0,1,4,0,1000,250.0,3,D15MS,272,test
512.3500823974609,3,2,5,4,1,0,E+,1,0,5,0,1000,250.0,0,D15MS,273,test
768.3451175689697,3,2,5,4,1,0,E+,1,4,3,0,1000,250.0,4,D15MS,274,test
464.4300937652588,3,2,5,4,1,0,E+,1,5,2,0,1000,250.0,5,D15MS,275,test
560.448169708252,3,2,5,4,1,0,E+,1,1,4,0,1000,250.0,1,D15MS,276,test
304.43882942199707,3,2,5,4,1,0,E+,1,3,0,0,1000,250.0,3,D15MS,277,test
448.0748176574707,3,2,5,4,1,0,E+,1,5,2,0,1000,250.0,5,D15MS,278,test
624.459981918335,3,2,5,4,1,0,E+,1,2,1,0,1000,250.0,2,D15MS,279,test
576.448917388916,3,2,5,4,1,0,E+,1,4,3,0,1000,250.0,4,D15MS,280,test
720.4880714416504,3,2,5,4,1,0,E+,1,2,1,0,1000,250.0,2,D15MS,281,test
336.39001846313477,3,2,5,4,1,0,E+,1,0,5,0,1000,250.0,0,D15MS,282,test
784.4398021697998,3,2,5,4,1,0,E+,1,4,3,0,1000,250.0,4,D15MS,283,test
576.3809680938721,3,2,5,4,1,0,E+,1,0,5,0,1000,250.0,0,D15MS,284,test
1552.386999130249,3,2,5,4,1,0,E+,1,1,4,0,1000,250.0,1,D15MS,285,test
672.4720001220703,3,2,5,4,1,0,E+,1,3,0,0,1000,250.0,3,D15MS,286,test
464.3712043762207,3,2,5,4,1,0,E+,1,5,2,0,1000,250.0,5,D15MS,287,test
704.355001449585,3,2,5,4,1,0,E+,1,2,1,0,1000,250.0,2,D15MS,288,test
656.3420295715332,3,2,5,4,1,0,E+,1,4,3,0,1000,250.0,4,D15MS,289,test
544.3739891052246,3,2,5,4,1,0,E+,1,3,0,0,1000,250.0,3,D15MS,290,test
624.3560314178467,3,2,5,4,1,0,E+,1,5,2,0,1000,250.0,5,D15MS,291,test
512.3999118804932,3,2,5,4,1,0,E+,1,0,5,0,1000,250.0,0,D15MS,292,test
544.4400310516357,3,2,5,4,1,0,E+,1,5,2,0,1000,250.0,5,D15MS,293,test
512.4361515045166,3,2,5,4,1,0,E+,1,0,5,0,1000,250.0,0,D15MS,294,test
480.46302795410156,3,2,5,4,1,0,E+,1,5,2,0,1000,250.0,5,D15MS,295,test
800.494909286499,3,2,5,4,1,0,E+,1,1,4,0,1000,250.0,1,D15MS,296,test
464.33520317077637,3,2,5,4,1,0,E+,1,5,2,0,1000,250.0,5,D15MS,297,test
464.3747806549072,3,2,5,4,1,0,E+,1,0,5,0,1000,250.0,0,D15MS,298,test
576.4439105987549,3,2,5,4,1,0,E+,0,2,1,0,1000,250.0,1,D15MS,299,test
496.72698974609375,3,2,5,4,1,0,E+,1,3,0,0,1000,250.0,3,D15MS,300,test
320.42694091796875,3,2,5,4,1,0,E+,0,0,5,0,1000,250.0,4,D15MS,301,test
800.3809452056885,3,2,5,4,1,0,E+,1,1,4,0,1000,250.0,1,D15MS,302,test
592.5021171569824,3,2,5,4,1,0,E+,1,5,2,0,1000,250.0,5,D15MS,303,test
480.4348945617676,3,2,5,4,1,0,E+,1,5,2,0,1000,250.0,5,D15MS,304,test
480.35311698913574,3,2,5,4,1,0,E+,1,1,4,0,1000,250.0,1,D15MS,305,test
512.3419761657715,3,2,5,4,1,0,E+,1,3,0,0,1000,250.0,3,D15MS,306,test
688.4121894836426,3,2,5,4,1,0,E+,1,5,2,0,1000,250.0,5,D15MS,307,test
624.4800090789795,3,2,5,4,1,0,E+,1,4,3,0,1000,250.0,4,D15MS,308,test
480.4830551147461,3,2,5,4,1,0,E+,1,5,2,0,1000,250.0,5,D15MS,309,test
576.3850212097168,3,2,5,4,1,0,E+,0,2,1,0,1000,250.0,1,D15MS,310,test
544.4588661193848,3,2,5,4,1,0,E+,1,0,5,0,1000,250.0,0,D15MS,311,test
624.1710186004639,3,2,5,4,1,0,E+,1,4,3,0,1000,250.0,4,D15MS,312,test
704.434871673584,3,2,5,4,1,0,E+,1,2,1,0,1000,250.0,2,D15MS,313,test
400.4030227661133,3,2,5,4,1,0,E+,1,2,1,0,1000,250.0,2,D15MS,314,test
480.4379940032959,3,2,5,4,1,0,E+,1,0,5,0,1000,250.0,0,D15MS,315,test
544.421911239624,3,2,5,4,1,0,E+,1,3,0,0,1000,250.0,3,D15MS,316,test
560.4360103607178,3,2,5,4,1,0,E+,1,0,5,0,1000,250.0,0,D15MS,317,test
736.1228466033936,3,2,5,4,1,0,E+,1,1,4,0,1000,250.0,1,D15MS,318,test
543.0231094360352,3,2,5,4,1,0,E+,1,5,2,0,1000,250.0,5,D15MS,319,test
448.4560489654541,3,2,5,4,1,0,E+,1,5,2,0,1000,250.0,5,D15MS,320,test
528.4230709075928,3,2,5,4,1,0,E+,0,2,1,0,1000,250.0,1,D15MS,321,test
464.4172191619873,3,2,5,4,1,0,E+,1,0,5,0,1000,250.0,0,D15MS,322,test
528.3560752868652,3,2,5,4,1,0,E+,1,3,0,0,1000,250.0,3,D15MS,323,test
624.413013458252,3,2,5,4,1,0,E+,1,2,1,0,1000,250.0,2,D15MS,324,test
656.4629077911377,3,2,5,4,1,0,E+,1,4,3,0,1000,250.0,4,D15MS,325,test
576.4241218566895,3,2,5,4,1,0,E+,1,2,1,0,1000,250.0,2,D15MS,326,test
512.3779773712158,3,2,5,4,1,0,E+,1,0,5,0,1000,250.0,0,D15MS,327,test
512.4609470367432,3,2,5,4,1,0,E+,0,2,1,0,1000,250.0,1,D15MS,328,test
496.4010715484619,3,2,5,4,1,0,E+,1,5,2,0,1000,250.0,5,D15MS,329,test
576.3440132141113,3,2,5,4,1,0,E+,1,2,1,0,1000,250.0,2,D15MS,330,test
672.3389625549316,3,2,5,4,1,0,E+,1,4,3,0,1000,250.0,4,D15MS,331,test
576.4400959014893,3,2,5,4,1,0,E+,1,0,5,0,1000,250.0,0,D15MS,332,test
592.3771858215332,3,2,5,4,1,0,E+,1,0,5,0,1000,250.0,0,D15MS,333,test
560.5320930480957,3,2,5,4,1,0,E+,1,2,1,0,1000,250.0,2,D15MS,334,test
448.3990669250488,3,2,5,4,1,0,E+,1,2,1,0,1000,250.0,2,D15MS,335,test
431.9279193878174,3,2,5,4,1,0,E+,1,0,5,0,1000,250.0,0,D15MS,336,test
480.43012619018555,3,2,5,4,1,0,E+,1,5,2,0,1000,250.0,5,D15MS,337,test
576.4338970184326,3,2,5,4,1,0,E+,1,4,3,0,1000,250.0,4,D15MS,338,test
544.4228649139404,3,2,5,4,1,0,E+,0,3,0,0,1000,250.0,4,D15MS,339,test
352.3380756378174,3,2,5,4,1,0,E+,1,3,0,0,1000,250.0,3,D15MS,340,test
544.4068908691406,3,2,5,4,1,0,E+,1,4,3,0,1000,250.0,4,D15MS,341,test
464.42198753356934,3,2,5,4,1,0,E+,1,5,2,0,1000,250.0,5,D15MS,342,test
752.4440288543701,3,2,5,4,1,0,E+,1,1,4,0,1000,250.0,1,D15MS,343,test
544.3410873413086,3,2,5,4,1,0,E+,1,0,5,0,1000,250.0,0,D15MS,344,test
560.4288578033447,3,2,5,4,1,0,E+,1,2,1,0,1000,250.0,2,D15MS,345,test
512.4948024749756,3,2,5,4,1,0,E+,1,0,5,0,1000,250.0,0,D15MS,346,test
592.5500392913818,3,2,5,4,1,0,E+,1,5,2,0,1000,250.0,5,D15MS,347,test
624.4759559631348,3,2,5,4,1,0,E+,0,2,1,0,1000,250.0,1,D15MS,348,test
384.56010818481445,3,2,5,4,1,0,E+,1,2,1,0,1000,250.0,2,D15MS,349,test
496.45280838012695,3,2,5,4,1,0,E+,1,0,5,0,1000,250.0,0,D15MS,350,test
432.3558807373047,3,2,5,4,1,0,E+,1,0,5,0,1000,250.0,0,D15MS,351,test
688.3769035339355,3,2,5,4,1,0,E+,1,4,3,0,1000,250.0,4,D15MS,352,test
480.47590255737305,3,2,5,4,1,0,E+,1,0,5,0,1000,250.0,0,D15MS,353,test
480.4410934448242,3,2,5,4,1,0,E+,1,0,5,0,1000,250.0,0,D15MS,354,test
352.31494903564453,3,2,5,4,1,0,E+,1,0,5,0,1000,250.0,0,D15MS,355,test
336.3990783691406,3,2,5,4,1,0,E+,0,4,3,0,1000,250.0,0,D15MS,356,test
464.4019603729248,3,2,5,4,1,0,E+,1,0,5,0,1000,250.0,0,D15MS,357,test
528.1691551208496,3,2,5,4,1,0,E+,1,2,1,0,1000,250.0,2,D15MS,358,test
480.47590255737305,3,2,5,4,1,0,E+,1,0,5,0,1000,250.0,0,D15MS,359,test
576.5190124511719,3,2,5,4,1,0,E+,1,3,0,0,1000,250.0,3,D15MS,360,test
416.3050651550293,3,2,5,4,1,0,E+,1,3,0,0,1000,250.0,3,D15MS,361,test
352.1149158477783,3,2,5,4,1,0,E+,1,3,0,0,1000,250.0,3,D15MS,362,test
592.4410820007324,3,2,5,4,1,0,E+,1,1,4,0,1000,250.0,1,D15MS,363,test
480.3271293640137,3,2,5,4,1,0,E+,1,3,0,0,1000,250.0,3,D15MS,364,test
512.4549865722656,3,2,5,4,1,0,E+,1,0,5,0,1000,250.0,0,D15MS,365,test
736.4850044250488,3,2,5,4,1,0,E+,1,4,3,0,1000,250.0,4,D15MS,366,test
432.4979782104492,3,2,5,4,1,0,E+,1,3,0,0,1000,250.0,3,D15MS,367,test
512.49098777771,3,2,5,4,1,0,E+,1,0,5,0,1000,250.0,0,D15MS,368,test
496.36006355285645,3,2,5,4,1,0,E+,1,0,5,0,1000,250.0,0,D15MS,369,test
560.3740215301514,3,2,5,4,1,0,E+,1,3,0,0,1000,250.0,3,D15MS,370,test
480.38697242736816,3,2,5,4,1,0,E+,1,5,2,0,1000,250.0,5,D15MS,371,test
592.3581123352051,3,2,5,4,1,0,E+,0,0,5,0,1000,250.0,4,D15MS,372,test
544.7709560394287,3,2,5,4,1,0,E+,1,2,1,0,1000,250.0,2,D15MS,373,test
512.4750137329102,3,2,5,4,1,0,E+,1,1,4,0,1000,250.0,1,D15MS,374,test
448.3489990234375,3,2,5,4,1,0,E+,1,1,4,0,1000,250.0,1,D15MS,375,test
400.2549648284912,3,2,5,4,1,0,E+,1,0,5,0,1000,250.0,0,D15MS,376,test
640.4600143432617,3,2,5,4,1,0,E+,1,4,3,0,1000,250.0,4,D15MS,377,test
625.2961158752441,3,2,5,4,1,0,E+,1,4,3,0,1000,250.0,4,D15MS,378,test
496.5779781341553,3,2,5,4,1,0,E+,1,3,0,0,1000,250.0,3,D15MS,379,test
448.4210014343262,3,2,5,4,1,0,E+,1,5,2,0,1000,250.0,5,D15MS,380,test
480.4670810699463,3,2,5,4,1,0,E+,1,5,2,0,1000,250.0,5,D15MS,381,test
480.5309772491455,3,2,5,4,1,0,E+,0,3,0,0,1000,250.0,4,D15MS,382,test
464.91003036499023,3,2,5,4,1,0,E+,1,5,2,0,1000,250.0,5,D15MS,383,test
416.8970584869385,3,2,5,4,1,0,E+,1,3,0,0,1000,250.0,3,D15MS,384,test
401.0190963745117,3,2,5,4,1,0,E+,1,3,0,0,1000,250.0,3,D15MS,385,test
529.0110111236572,3,2,5,4,1,0,E+,1,1,4,0,1000,250.0,1,D15MS,386,test
496.87910079956055,3,2,5,4,1,0,E+,1,3,0,0,1000,250.0,3,D15MS,387,test
624.9771118164062,3,2,5,4,1,0,E+,1,2,1,0,1000,250.0,2,D15MS,388,test
544.9719429016113,3,2,5,4,1,0,E+,1,0,5,0,1000,250.0,0,D15MS,389,test
576.9720077514648,3,2,5,4,1,0,E+,1,2,1,0,1000,250.0,2,D15MS,390,test
689.0609264373779,3,2,5,4,1,0,E+,0,4,3,0,1000,250.0,5,D15MS,391,test
480.9439182281494,3,2,5,4,1,0,E+,1,0,5,0,1000,250.0,0,D15MS,392,test
624.9849796295166,3,2,5,4,1,0,E+,1,5,2,0,1000,250.0,5,D15MS,393,test
528.9700031280518,3,2,5,4,1,0,E+,1,0,5,0,1000,250.0,0,D15MS,394,test
576.9338607788086,3,2,5,4,1,0,E+,1,3,0,0,1000,250.0,3,D15MS,395,test
593.0418968200684,3,2,5,4,1,0,E+,1,0,5,0,1000,250.0,0,D15MS,396,test
385.15186309814453,3,2,5,4,1,0,E+,1,4,3,0,1000,250.0,4,D15MS,397,test
448.8809108734131,3,2,5,4,1,0,E+,1,5,2,0,1000,250.0,5,D15MS,398,test
497.01905250549316,3,2,5,4,1,0,E+,1,3,0,0,1000,250.0,3,D15MS,399,test
544.9850559234619,3,2,5,4,1,0,E+,1,1,4,0,1000,250.0,1,D15MS,400,test
593.0240154266357,3,2,5,4,1,0,E+,1,1,4,0,1000,250.0,1,D15MS,401,test
545.0849533081055,3,2,5,4,1,0,E+,0,5,2,0,1000,250.0,3,D15MS,402,test
704.9710750579834,3,2,5,4,1,0,E+,1,1,4,0,1000,250.0,1,D15MS,403,test
400.8920192718506,3,2,5,4,1,0,E+,0,1,4,0,1000,250.0,0,D15MS,404,test
465.0449752807617,3,2,5,4,1,0,E+,1,2,1,0,1000,250.0,2,D15MS,405,test
688.9200210571289,3,2,5,4,1,0,E+,1,1,4,0,1000,250.0,1,D15MS,406,test
449.0067958831787,3,2,5,4,1,0,E+,1,0,5,0,1000,250.0,0,D15MS,407,test
608.8809967041016,3,2,5,4,1,0,E+,1,5,2,0,1000,250.0,5,D15MS,408,test
465.11292457580566,3,2,5,4,1,0,E+,1,5,2,0,1000,250.0,5,D15MS,409,test
448.4598636627197,3,2,5,4,1,0,E+,1,5,2,0,1000,250.0,5,D15MS,410,test
352.44297981262207,3,2,5,4,1,0,E+,1,5,2,0,1000,250.0,5,D15MS,411,test
576.3659477233887,3,2,5,4,1,0,E+,1,0,5,0,1000,250.0,0,D15MS,412,test
560.38498878479,3,2,5,4,1,0,E+,1,2,1,0,1000,250.0,2,D15MS,413,test
448.26388359069824,3,2,5,4,1,0,E+,1,0,5,0,1000,250.0,0,D15MS,414,test
320.3558921813965,3,2,5,4,1,0,E+,1,0,5,0,1000,250.0,0,D15MS,415,test
528.1100273132324,3,2,5,4,1,0,E+,0,3,0,0,1000,250.0,4,D15MS,416,test
640.3889656066895,3,2,5,4,1,0,E+,1,4,3,0,1000,250.0,4,D15MS,417,test
512.3519897460938,3,2,5,4,1,0,E+,0,1,4,0,1000,250.0,3,D15MS,418,test
464.46800231933594,3,2,5,4,1,0,E+,1,2,1,0,1000,250.0,2,D15MS,419,test
464.3971920013428,3,2,5,4,1,0,E+,1,1,4,0,1000,250.0,1,D15MS,420,test
608.4530353546143,3,2,5,4,1,0,E+,1,4,3,0,1000,250.0,4,D15MS,421,test
480.3798198699951,3,2,5,4,1,0,E+,1,4,3,0,1000,250.0,4,D15MS,422,test
480.33905029296875,3,2,5,4,1,0,E+,1,5,2,0,1000,250.0,5,D15MS,423,test
576.4379501342773,3,2,5,4,1,0,E+,1,3,0,0,1000,250.0,3,D15MS,424,test
656.080961227417,3,2,5,4,1,0,E+,1,4,3,0,1000,250.0,4,D15MS,425,test
480.47900199890137,3,2,5,4,1,0,E+,1,5,2,0,1000,250.0,5,D15MS,426,test
512.4318599700928,3,2,5,4,1,0,E+,1,3,0,0,1000,250.0,3,D15MS,427,test
560.3761672973633,3,2,5,4,1,0,E+,1,1,4,0,1000,250.0,1,D15MS,428,test
1152.3160934448242,3,2,5,4,1,0,E+,0,3,0,0,1000,250.0,4,D15MS,429,test
640.4430866241455,3,2,5,4,1,0,E+,1,4,3,0,1000,250.0,4,D15MS,430,test
528.4051895141602,3,2,5,4,1,0,E+,0,4,3,0,1000,250.0,5,D15MS,431,test
560.4958534240723,3,2,5,4,1,0,E+,1,0,5,0,1000,250.0,0,D15MS,432,test
304.29792404174805,3,2,5,4,1,0,E+,1,0,5,0,1000,250.0,0,D15MS,433,test
512.4311447143555,3,2,5,4,1,0,E+,1,5,2,0,1000,250.0,5,D15MS,434,test
512.415885925293,3,2,5,4,1,0,E+,1,1,4,0,1000,250.0,1,D15MS,435,test
544.4378852844238,3,2,5,4,1,0,E+,0,3,0,0,1000,250.0,4,D15MS,436,test
560.4040622711182,3,2,5,4,1,0,E+,1,0,5,0,1000,250.0,0,D15MS,437,test
464.4479751586914,3,2,5,4,1,0,E+,1,5,2,0,1000,250.0,5,D15MS,438,test
448.9409923553467,3,2,5,4,1,0,E+,1,5,2,0,1000,250.0,5,D15MS,439,test
592.9539203643799,3,2,5,4,1,0,E+,1,1,4,0,1000,250.0,1,D15MS,440,test
416.79883003234863,3,2,5,4,1,0,E+,0,5,2,0,1000,250.0,1,D15MS,441,test
624.967098236084,3,2,5,4,1,0,E+,1,2,1,0,1000,250.0,2,D15MS,442,test
673.0151176452637,3,2,5,4,1,0,E+,1,3,0,0,1000,250.0,3,D15MS,443,test
640.474796295166,3,2,5,4,1,0,E+,1,4,3,0,1000,250.0,4,D15MS,444,test
688.4019374847412,3,2,5,4,1,0,E+,1,4,3,0,1000,250.0,4,D15MS,445,test
481.0211658477783,3,2,5,4,1,0,E+,0,4,3,0,1000,250.0,3,D15MS,446,test
512.9549503326416,3,2,5,4,1,0,E+,1,1,4,0,1000,250.0,1,D15MS,447,test
529.0160179138184,3,2,5,4,1,0,E+,1,5,2,0,1000,250.0,5,D15MS,448,test
513.0019187927246,3,2,5,4,1,0,E+,1,4,3,0,1000,250.0,4,D15MS,449,test
577.031135559082,3,2,5,4,1,0,E+,1,4,3,0,1000,250.0,4,D15MS,450,test
320.89900970458984,3,2,5,4,1,0,E+,1,4,3,0,1000,250.0,4,D15MS,451,test
464.88499641418457,3,2,5,4,1,0,E+,1,4,3,0,1000,250.0,4,D15MS,452,test
512.9849910736084,3,2,5,4,1,0,E+,1,5,2,0,1000,250.0,5,D15MS,453,test
432.62290954589844,3,2,5,4,1,0,E+,1,0,5,0,1000,250.0,0,D15MS,454,test
416.39089584350586,3,2,5,4,1,0,E+,0,5,2,0,1000,250.0,0,D15MS,455,test
720.3519344329834,3,2,5,4,1,0,E+,1,1,4,0,1000,250.0,1,D15MS,456,test
368.4248924255371,3,2,5,4,1,0,E+,1,1,4,0,1000,250.0,1,D15MS,457,test
816.4849281311035,3,2,5,4,1,0,E+,1,4,3,0,1000,250.0,4,D15MS,458,test
544.4800853729248,3,2,5,4,1,0,E+,1,1,4,0,1000,250.0,1,D15MS,459,test
592.4198627471924,3,2,5,4,1,0,E+,1,4,3,0,1000,250.0,4,D15MS,460,test
512.4590396881104,3,2,5,4,1,0,E+,1,1,4,0,1000,250.0,1,D15MS,461,test
384.2291831970215,3,2,5,4,1,0,E+,1,1,4,0,1000,250.0,1,D15MS,462,test
336.3978862762451,3,2,5,4,1,0,E+,1,1,4,0,1000,250.0,1,D15MS,463,test
544.2230701446533,3,2,5,4,1,0,E+,0,4,3,0,1000,250.0,5,D15MS,464,test
448.17399978637695,3,2,5,4,1,0,E+,1,1,4,0,1000,250.0,1,D15MS,465,test
464.4298553466797,3,2,5,4,1,0,E+,1,4,3,0,1000,250.0,4,D15MS,466,test
384.631872177124,3,2,5,4,1,0,E+,1,4,3,0,1000,250.0,4,D15MS,467,test
369.0481185913086,3,2,5,4,1,0,E+,1,4,3,0,1000,250.0,4,D15MS,468,test
496.7770576477051,3,2,5,4,1,0,E+,1,5,2,0,1000,250.0,5,D15MS,469,test
624.9949932098389,3,2,5,4,1,0,E+,1,3,0,0,1000,250.0,3,D15MS,470,test
544.9361801147461,3,2,5,4,1,0,E+,1,1,4,0,1000,250.0,1,D15MS,471,test
369.0791130065918,3,2,5,4,1,0,E+,0,1,4,0,1000,250.0,0,D15MS,472,test
673.0940341949463,3,2,5,4,1,0,E+,1,4,3,0,1000,250.0,4,D15MS,473,test
480.7088375091553,3,2,5,4,1,0,E+,1,1,4,0,1000,250.0,1,D15MS,474,test
576.9860744476318,3,2,5,4,1,0,E+,1,4,3,0,1000,250.0,4,D15MS,475,test
512.639045715332,3,2,5,4,1,0,E+,1,5,2,0,1000,250.0,5,D15MS,476,test
384.17816162109375,3,2,5,4,1,0,E+,1,5,2,0,1000,250.0,5,D15MS,477,test
512.3510360717773,3,2,5,4,1,0,E+,1,0,5,0,1000,250.0,0,D15MS,478,test
576.4310359954834,3,2,5,4,1,0,E+,1,4,3,0,1000,250.0,4,D15MS,479,test
560.4081153869629,3,2,5,4,1,0,E+,1,4,3,0,1000,250.0,4,D15MS,480,test
512.4499797821045,3,2,5,4,1,0,E+,1,1,4,0,1000,250.0,1,D15MS,481,test
480.5569648742676,3,2,5,4,1,0,E+,1,1,4,0,1000,250.0,1,D15MS,482,test
528.3691883087158,3,2,5,4,1,0,E+,1,0,5,0,1000,250.0,0,D15MS,483,test
496.4449405670166,3,2,5,4,1,0,E+,1,1,4,0,1000,250.0,1,D15MS,484,test
527.8630256652832,3,2,5,4,1,0,E+,1,2,1,0,1000,250.0,2,D15MS,485,test
464.9331569671631,3,2,5,4,1,0,E+,1,2,1,0,1000,250.0,2,D15MS,486,test
416.9590473175049,3,2,5,4,1,0,E+,1,2,1,0,1000,250.0,2,D15MS,487,test
513.038158416748,3,2,5,4,1,0,E+,1,5,2,0,1000,250.0,5,D15MS,488,test
576.8768787384033,3,2,5,4,1,0,E+,1,1,4,0,1000,250.0,1,D15MS,489,test
624.3259906768799,3,2,5,4,1,0,E+,1,2,1,0,1000,250.0,2,D15MS,490,test
624.9589920043945,3,2,5,4,1,0,E+,1,3,0,0,1000,250.0,3,D15MS,491,test
401.019811630249,3,2,5,4,1,0,E+,1,3,0,0,1000,250.0,3,D15MS,492,test
465.0311470031738,3,2,5,4,1,0,E+,1,5,2,0,1000,250.0,5,D15MS,493,test
464.310884475708,3,2,5,4,1,0,E+,1,5,2,0,1000,250.0,5,D15MS,494,test
400.91395378112793,3,2,5,4,1,0,E+,1,5,2,0,1000,250.0,5,D15MS,495,test
416.84699058532715,3,2,5,4,1,0,E+,1,5,2,0,1000,250.0,5,D15MS,496,test
592.993974685669,3,2,5,4,1,0,E+,1,3,0,0,1000,250.0,3,D15MS,497,test
448.9331245422363,3,2,5,4,1,0,E+,1,5,2,0,1000,250.0,5,D15MS,498,test
656.7399501800537,3,2,5,4,1,0,E+,0,2,1,0,1000,250.0,1,D15MS,499,test
