RT,SRmap_0,SRmap_1,SRmap_2,SRmap_3,SRmap_4,SRmap_5,condition,correct,correct_response,curstim,ms-precue,ms-prestimblank,ntrials,response,subject,trial,type
2016.3559913635254,0,1,4,5,3,2,H-,1,0,0,0,1000,250.0,0,C34JM,0,train
2080.7230472564697,0,1,4,5,3,2,H-,1,3,4,0,1000,250.0,3,C34JM,1,train
2256.2601566314697,0,1,4,5,3,2,H-,1,4,2,0,1000,250.0,4,C34JM,2,train
2656.788110733032,0,1,4,5,3,2,H-,1,5,3,0,1000,250.0,5,C34JM,3,train
1233.001947402954,0,1,4,5,3,2,H-,1,5,3,0,1000,250.0,5,C34JM,4,train
1086.4770412445068,0,1,4,5,3,2,H-,1,5,3,0,1000,250.0,5,C34JM,5,train
1329.097032546997,0,1,4,5,3,2,H-,1,4,2,0,1000,250.0,4,C34JM,6,train
1214.7200107574463,0,1,4,5,3,2,H-,1,4,2,0,1000,250.0,4,C34JM,7,train
990.6680583953857,0,1,4,5,3,2,H-,1,5,3,0,1000,250.0,5,C34JM,8,train
1137.1290683746338,0,1,4,5,3,2,H-,1,0,0,0,1000,250.0,0,C34JM,9,train
1137.0179653167725,0,1,4,5,3,2,H-,1,1,1,0,1000,250.0,1,C34JM,10,train
977.1969318389893,0,1,4,5,3,2,H-,0,4,2,0,1000,250.0,5,C34JM,11,train
1248.9352226257324,0,1,4,5,3,2,H-,1,0,0,0,1000,250.0,0,C34JM,12,train
928.339958190918,0,1,4,5,3,2,H-,1,0,0,0,1000,250.0,0,C34JM,13,train
881.1511993408203,0,1,4,5,3,2,H-,1,5,3,0,1000,250.0,5,C34JM,14,train
976.8579006195068,0,1,4,5,3,2,H-,0,2,5,0,1000,250.0,0,C34JM,15,train
1041.1388874053955,0,1,4,5,3,2,H-,1,2,5,0,1000,250.0,2,C34JM,16,train
849.6029376983643,0,1,4,5,3,2,H-,1,2,5,0,1000,250.0,2,C34JM,17,train
1313.169002532959,0,1,4,5,3,2,H-,1,1,1,0,1000,250.0,1,C34JM,18,train
1649.0468978881836,0,1,4,5,3,2,H-,1,1,1,0,1000,250.0,1,C34JM,19,train
896.752119064331,0,1,4,5,3,2,H-,1,1,1,0,1000,250.0,1,C34JM,20,train
737.1618747711182,0,1,4,5,3,2,H-,1,0,0,0,1000,250.0,0,C34JM,21,train
913.053035736084,0,1,4,5,3,2,H-,1,5,3,0,1000,250.0,5,C34JM,22,train
785.1619720458984,0,1,4,5,3,2,H-,1,4,2,0,1000,250.0,4,C34JM,23,train
1630.9449672698975,0,1,4,5,3,2,H-,1,3,4,0,1000,250.0,3,C34JM,24,train
705.0249576568604,0,1,4,5,3,2,H-,1,5,3,0,1000,250.0,5,C34JM,25,train
864.6161556243896,0,1,4,5,3,2,H-,1,5,3,0,1000,250.0,5,C34JM,26,train
1152.923822402954,0,1,4,5,3,2,H-,1,3,4,0,1000,250.0,3,C34JM,27,train
1281.074047088623,0,1,4,5,3,2,H-,0,1,1,0,1000,250.0,0,C34JM,28,train
1825.1168727874756,0,1,4,5,3,2,H-,1,2,5,0,1000,250.0,2,C34JM,29,train
816.8280124664307,0,1,4,5,3,2,H-,1,5,3,0,1000,250.0,5,C34JM,30,train
1649.111032485962,0,1,4,5,3,2,H-,1,0,0,0,1000,250.0,0,C34JM,31,train
768.7950134277344,0,1,4,5,3,2,H-,1,2,5,0,1000,250.0,2,C34JM,32,train
897.1657752990723,0,1,4,5,3,2,H-,1,0,0,0,1000,250.0,0,C34JM,33,train
1105.154037475586,0,1,4,5,3,2,H-,1,4,2,0,1000,250.0,4,C34JM,34,train
800.8379936218262,0,1,4,5,3,2,H-,1,5,3,0,1000,250.0,5,C34JM,35,train
1216.7692184448242,0,1,4,5,3,2,H-,1,5,3,0,1000,250.0,5,C34JM,36,train
657.1471691131592,0,1,4,5,3,2,H-,1,4,2,0,1000,250.0,4,C34JM,37,train
1008.7540149688721,0,1,4,5,3,2,H-,1,4,2,0,1000,250.0,4,C34JM,38,train
1041.2161350250244,0,1,4,5,3,2,H-,1,0,0,0,1000,250.0,0,C34JM,39,train
593.1448936462402,0,1,4,5,3,2,H-,0,2,5,0,1000,250.0,0,C34JM,40,train
944.5180892944336,0,1,4,5,3,2,H-,1,4,2,0,1000,250.0,4,C34JM,41,train
1457.0960998535156,0,1,4,5,3,2,H-,1,3,4,0,1000,250.0,3,C34JM,42,train
608.9191436767578,0,1,4,5,3,2,H-,0,4,2,0,1000,250.0,3,C34JM,43,train
1873.0049133300781,0,1,4,5,3,2,H-,1,1,1,0,1000,250.0,1,C34JM,44,train
864.609956741333,0,1,4,5,3,2,H-,1,2,5,0,1000,250.0,2,C34JM,45,train
1313.2059574127197,0,1,4,5,3,2,H-,1,0,0,0,1000,250.0,0,C34JM,46,train
1616.8739795684814,0,1,4,5,3,2,H-,1,1,1,0,1000,250.0,1,C34JM,47,train
1776.6940593719482,0,1,4,5,3,2,H-,1,3,4,0,1000,250.0,3,C34JM,48,train
1744.2679405212402,0,1,4,5,3,2,H-,1,2,5,0,1000,250.0,2,C34JM,49,train
1265.1488780975342,0,1,4,5,3,2,H-,1,5,3,0,1000,250.0,5,C34JM,50,train
913.2080078125,0,1,4,5,3,2,H-,1,0,0,0,1000,250.0,0,C34JM,51,train
1153.1529426574707,0,1,4,5,3,2,H-,1,1,1,0,1000,250.0,1,C34JM,52,train
704.5621871948242,0,1,4,5,3,2,H-,1,1,1,0,1000,250.0,1,C34JM,53,train
576.6689777374268,0,1,4,5,3,2,H-,1,1,1,0,1000,250.0,1,C34JM,54,train
848.1099605560303,0,1,4,5,3,2,H-,1,4,2,0,1000,250.0,4,C34JM,55,train
767.711877822876,0,1,4,5,3,2,H-,1,0,0,0,1000,250.0,0,C34JM,56,train
1952.2559642791748,0,1,4,5,3,2,H-,1,2,5,0,1000,250.0,2,C34JM,57,train
849.114179611206,0,1,4,5,3,2,H-,1,1,1,0,1000,250.0,1,C34JM,58,train
881.1309337615967,0,1,4,5,3,2,H-,1,4,2,0,1000,250.0,4,C34JM,59,train
1089.0319347381592,0,1,4,5,3,2,H-,1,1,1,0,1000,250.0,1,C34JM,60,train
560.3790283203125,0,1,4,5,3,2,H-,1,1,1,0,1000,250.0,1,C34JM,61,train
1440.9689903259277,0,1,4,5,3,2,H-,1,5,3,0,1000,250.0,5,C34JM,62,train
1360.5680465698242,0,1,4,5,3,2,H-,1,1,1,0,1000,250.0,1,C34JM,63,train
735.5420589447021,0,1,4,5,3,2,H-,1,0,0,0,1000,250.0,0,C34JM,64,train
896.946907043457,0,1,4,5,3,2,H-,1,2,5,0,1000,250.0,2,C34JM,65,train
801.171064376831,0,1,4,5,3,2,H-,1,0,0,0,1000,250.0,0,C34JM,66,train
976.6449928283691,0,1,4,5,3,2,H-,1,0,0,0,1000,250.0,0,C34JM,67,train
752.7930736541748,0,1,4,5,3,2,H-,1,0,0,0,1000,250.0,0,C34JM,68,train
656.9890975952148,0,1,4,5,3,2,H-,1,2,5,0,1000,250.0,2,C34JM,69,train
848.5510349273682,0,1,4,5,3,2,H-,1,4,2,0,1000,250.0,4,C34JM,70,train
1456.8829536437988,0,1,4,5,3,2,H-,1,2,5,0,1000,250.0,2,C34JM,71,train
1024.4641304016113,0,1,4,5,3,2,H-,1,2,5,0,1000,250.0,2,C34JM,72,train
767.8680419921875,0,1,4,5,3,2,H-,1,1,1,0,1000,250.0,1,C34JM,73,train
1040.9469604492188,0,1,4,5,3,2,H-,1,0,0,0,1000,250.0,0,C34JM,74,train
720.5312252044678,0,1,4,5,3,2,H-,1,1,1,0,1000,250.0,1,C34JM,75,train
944.4220066070557,0,1,4,5,3,2,H-,1,2,5,0,1000,250.0,2,C34JM,76,train
1552.4580478668213,0,1,4,5,3,2,H-,1,5,3,0,1000,250.0,5,C34JM,77,train
832.617998123169,0,1,4,5,3,2,H-,1,5,3,0,1000,250.0,5,C34JM,78,train
912.5089645385742,0,1,4,5,3,2,H-,1,1,1,0,1000,250.0,1,C34JM,79,train
1312.709093093872,0,1,4,5,3,2,H-,1,2,5,0,1000,250.0,2,C34JM,80,train
1280.033826828003,0,1,4,5,3,2,H-,1,5,3,0,1000,250.0,5,C34JM,81,train
1216.655969619751,0,1,4,5,3,2,H-,1,3,4,0,1000,250.0,3,C34JM,82,train
1296.6928482055664,0,1,4,5,3,2,H-,1,3,4,0,1000,250.0,3,C34JM,83,train
1040.5120849609375,0,1,4,5,3,2,H-,1,4,2,0,1000,250.0,4,C34JM,84,train
1073.2440948486328,0,1,4,5,3,2,H-,1,1,1,0,1000,250.0,1,C34JM,85,train
1312.488079071045,0,1,4,5,3,2,H-,1,3,4,0,1000,250.0,3,C34JM,86,train
1120.8858489990234,0,1,4,5,3,2,H-,1,2,5,0,1000,250.0,2,C34JM,87,train
768.8329219818115,0,1,4,5,3,2,H-,1,0,0,0,1000,250.0,0,C34JM,88,train
960.3500366210938,0,1,4,5,3,2,H-,1,5,3,0,1000,250.0,5,C34JM,89,train
1120.8219528198242,0,1,4,5,3,2,H-,1,3,4,0,1000,250.0,3,C34JM,90,train
736.565113067627,0,1,4,5,3,2,H-,1,5,3,0,1000,250.0,5,C34JM,91,train
624.924898147583,0,1,4,5,3,2,H-,1,5,3,0,1000,250.0,5,C34JM,92,train
768.2769298553467,0,1,4,5,3,2,H-,1,3,4,0,1000,250.0,3,C34JM,93,train
720.2658653259277,0,1,4,5,3,2,H-,1,3,4,0,1000,250.0,3,C34JM,94,train
752.4909973144531,0,1,4,5,3,2,H-,1,1,1,0,1000,250.0,1,C34JM,95,train
688.4150505065918,0,1,4,5,3,2,H-,0,1,1,0,1000,250.0,0,C34JM,96,train
640.1889324188232,0,1,4,5,3,2,H-,0,2,5,0,1000,250.0,0,C34JM,97,train
752.5320053100586,0,1,4,5,3,2,H-,1,2,5,0,1000,250.0,2,C34JM,98,train
1296.6129779815674,0,1,4,5,3,2,H-,1,5,3,0,1000,250.0,5,C34JM,99,train
816.4010047912598,0,1,4,5,3,2,H-,1,3,4,0,1000,250.0,3,C34JM,100,train
1281.013011932373,0,1,4,5,3,2,H-,1,2,5,0,1000,250.0,2,C34JM,101,train
784.4970226287842,0,1,4,5,3,2,H-,1,1,1,0,1000,250.0,1,C34JM,102,train
720.9110260009766,0,1,4,5,3,2,H-,1,1,1,0,1000,250.0,1,C34JM,103,train
1023.8809585571289,0,1,4,5,3,2,H-,1,4,2,0,1000,250.0,4,C34JM,104,train
1054.738998413086,0,1,4,5,3,2,H-,1,2,5,0,1000,250.0,2,C34JM,105,train
753.7710666656494,0,1,4,5,3,2,H-,1,2,5,0,1000,250.0,2,C34JM,106,train
992.6619529724121,0,1,4,5,3,2,H-,0,2,5,0,1000,250.0,3,C34JM,107,train
733.9010238647461,0,1,4,5,3,2,H-,1,1,1,0,1000,250.0,1,C34JM,108,train
688.7989044189453,0,1,4,5,3,2,H-,1,1,1,0,1000,250.0,1,C34JM,109,train
656.3220024108887,0,1,4,5,3,2,H-,1,1,1,0,1000,250.0,1,C34JM,110,train
1040.3289794921875,0,1,4,5,3,2,H-,1,5,3,0,1000,250.0,5,C34JM,111,train
895.9739208221436,0,1,4,5,3,2,H-,1,2,5,0,1000,250.0,2,C34JM,112,train
2480.909824371338,0,1,4,5,3,2,H-,1,3,4,0,1000,250.0,3,C34JM,113,train
752.8390884399414,0,1,4,5,3,2,H-,1,5,3,0,1000,250.0,5,C34JM,114,train
1088.8888835906982,0,1,4,5,3,2,H-,1,2,5,0,1000,250.0,2,C34JM,115,train
625.0479221343994,0,1,4,5,3,2,H-,1,2,5,0,1000,250.0,2,C34JM,116,train
1008.3239078521729,0,1,4,5,3,2,H-,1,1,1,0,1000,250.0,1,C34JM,117,train
2032.6259136199951,0,1,4,5,3,2,H-,1,4,2,0,1000,250.0,4,C34JM,118,train
704.2899131774902,0,1,4,5,3,2,H-,1,3,4,0,1000,250.0,3,C34JM,119,train
1168.5528755187988,0,1,4,5,3,2,H-,1,4,2,0,1000,250.0,4,C34JM,120,train
1088.5379314422607,0,1,4,5,3,2,H-,1,0,0,0,1000,250.0,0,C34JM,121,train
752.6140213012695,0,1,4,5,3,2,H-,1,3,4,0,1000,250.0,3,C34JM,122,train
816.2648677825928,0,1,4,5,3,2,H-,1,3,4,0,1000,250.0,3,C34JM,123,train
752.5911331176758,0,1,4,5,3,2,H-,1,3,4,0,1000,250.0,3,C34JM,124,train
961.1008167266846,0,1,4,5,3,2,H-,1,5,3,0,1000,250.0,5,C34JM,125,train
1024.3160724639893,0,1,4,5,3,2,H-,1,3,4,0,1000,250.0,3,C34JM,126,train
1136.497974395752,0,1,4,5,3,2,H-,1,2,5,0,1000,250.0,2,C34JM,127,train
896.852970123291,0,1,4,5,3,2,H-,1,2,5,0,1000,250.0,2,C34JM,128,train
816.896915435791,0,1,4,5,3,2,H-,1,1,1,0,1000,250.0,1,C34JM,129,train
1552.597999572754,0,1,4,5,3,2,H-,1,5,3,0,1000,250.0,5,C34JM,130,train
2496.8740940093994,0,1,4,5,3,2,H-,1,2,5,0,1000,250.0,2,C34JM,131,train
1472.9948043823242,0,1,4,5,3,2,H-,1,0,0,0,1000,250.0,0,C34JM,132,train
848.4129905700684,0,1,4,5,3,2,H-,1,5,3,0,1000,250.0,5,C34JM,133,train
896.395206451416,0,1,4,5,3,2,H-,1,2,5,0,1000,250.0,2,C34JM,134,train
1057.096004486084,0,1,4,5,3,2,H-,1,4,2,0,1000,250.0,4,C34JM,135,train
1425.0719547271729,0,1,4,5,3,2,H-,1,3,4,0,1000,250.0,3,C34JM,136,train
1249.1788864135742,0,1,4,5,3,2,H-,1,4,2,0,1000,250.0,4,C34JM,137,train
832.6029777526855,0,1,4,5,3,2,H-,1,0,0,0,1000,250.0,0,C34JM,138,train
640.3200626373291,0,1,4,5,3,2,H-,1,5,3,0,1000,250.0,5,C34JM,139,train
752.5680065155029,0,1,4,5,3,2,H-,1,0,0,0,1000,250.0,0,C34JM,140,train
1057.0409297943115,0,1,4,5,3,2,H-,1,2,5,0,1000,250.0,2,C34JM,141,train
800.5049228668213,0,1,4,5,3,2,H-,1,3,4,0,1000,250.0,3,C34JM,142,train
848.5598564147949,0,1,4,5,3,2,H-,0,2,5,0,1000,250.0,0,C34JM,143,train
736.4699840545654,0,1,4,5,3,2,H-,1,3,4,0,1000,250.0,3,C34JM,144,train
944.5369243621826,0,1,4,5,3,2,H-,1,2,5,0,1000,250.0,2,C34JM,145,train
945.0981616973877,0,1,4,5,3,2,H-,1,2,5,0,1000,250.0,2,C34JM,146,train
1328.8450241088867,0,1,4,5,3,2,H-,1,4,2,0,1000,250.0,4,C34JM,147,train
768.5730457305908,0,1,4,5,3,2,H-,1,1,1,0,1000,250.0,1,C34JM,148,train
1104.1810512542725,0,1,4,5,3,2,H-,1,1,1,0,1000,250.0,1,C34JM,149,train
528.2909870147705,0,1,4,5,3,2,H-,1,1,1,0,1000,250.0,1,C34JM,150,train
704.3921947479248,0,1,4,5,3,2,H-,1,2,5,0,1000,250.0,2,C34JM,151,train
608.4740161895752,0,1,4,5,3,2,H-,1,5,3,0,1000,250.0,5,C34JM,152,train
654.4759273529053,0,1,4,5,3,2,H-,1,3,4,0,1000,250.0,3,C34JM,153,train
816.1768913269043,0,1,4,5,3,2,H-,1,0,0,0,1000,250.0,0,C34JM,154,train
576.4169692993164,0,1,4,5,3,2,H-,1,1,1,0,1000,250.0,1,C34JM,155,train
752.6819705963135,0,1,4,5,3,2,H-,1,2,5,0,1000,250.0,2,C34JM,156,train
736.9611263275146,0,1,4,5,3,2,H-,0,4,2,0,1000,250.0,5,C34JM,157,train
944.2980289459229,0,1,4,5,3,2,H-,1,2,5,0,1000,250.0,2,C34JM,158,train
976.8848419189453,0,1,4,5,3,2,H-,1,4,2,0,1000,250.0,4,C34JM,159,train
753.1478404998779,0,1,4,5,3,2,H-,1,2,5,0,1000,250.0,2,C34JM,160,train
624.2220401763916,0,1,4,5,3,2,H-,1,1,1,0,1000,250.0,1,C34JM,161,train
624.5288848876953,0,1,4,5,3,2,H-,1,3,4,0,1000,250.0,3,C34JM,162,train
814.7730827331543,0,1,4,5,3,2,H-,1,2,5,0,1000,250.0,2,C34JM,163,train
737.1091842651367,0,1,4,5,3,2,H-,1,5,3,0,1000,250.0,5,C34JM,164,train
544.4068908691406,0,1,4,5,3,2,H-,1,3,4,0,1000,250.0,3,C34JM,165,train
752.202033996582,0,1,4,5,3,2,H-,1,3,4,0,1000,250.0,3,C34JM,166,train
718.5819149017334,0,1,4,5,3,2,H-,1,4,2,0,1000,250.0,4,C34JM,167,train
960.839033126831,0,1,4,5,3,2,H-,1,2,5,0,1000,250.0,2,C34JM,168,train
912.7819538116455,0,1,4,5,3,2,H-,1,3,4,0,1000,250.0,3,C34JM,169,train
736.7608547210693,0,1,4,5,3,2,H-,1,3,4,0,1000,250.0,3,C34JM,170,train
992.8598403930664,0,1,4,5,3,2,H-,1,3,4,0,1000,250.0,3,C34JM,171,train
784.0559482574463,0,1,4,5,3,2,H-,1,2,5,0,1000,250.0,2,C34JM,172,train
1280.7819843292236,0,1,4,5,3,2,H-,1,1,1,0,1000,250.0,1,C34JM,173,train
608.9119911193848,0,1,4,5,3,2,H-,1,1,1,0,1000,250.0,1,C34JM,174,train
864.6841049194336,0,1,4,5,3,2,H-,1,2,5,0,1000,250.0,2,C34JM,175,train
816.2250518798828,0,1,4,5,3,2,H-,1,4,2,0,1000,250.0,4,C34JM,176,train
576.9338607788086,0,1,4,5,3,2,H-,1,3,4,0,1000,250.0,3,C34JM,177,train
816.6389465332031,0,1,4,5,3,2,H-,1,0,0,0,1000,250.0,0,C34JM,178,train
576.1280059814453,0,1,4,5,3,2,H-,1,3,4,0,1000,250.0,3,C34JM,179,train
736.4850044250488,0,1,4,5,3,2,H-,1,1,1,0,1000,250.0,1,C34JM,180,train
591.7880535125732,0,1,4,5,3,2,H-,1,5,3,0,1000,250.0,5,C34JM,181,train
992.2499656677246,0,1,4,5,3,2,H-,1,4,2,0,1000,250.0,4,C34JM,182,train
800.3880977630615,0,1,4,5,3,2,H-,1,0,0,0,1000,250.0,0,C34JM,183,train
864.2139434814453,0,1,4,5,3,2,H-,1,3,4,0,1000,250.0,3,C34JM,184,train
753.0310153961182,0,1,4,5,3,2,H-,1,2,5,0,1000,250.0,2,C34JM,185,train
752.769947052002,0,1,4,5,3,2,H-,1,4,2,0,1000,250.0,4,C34JM,186,train
816.7049884796143,0,1,4,5,3,2,H-,1,3,4,0,1000,250.0,3,C34JM,187,train
576.3189792633057,0,1,4,5,3,2,H-,1,5,3,0,1000,250.0,5,C34JM,188,train
880.465030670166,0,1,4,5,3,2,H-,1,2,5,0,1000,250.0,2,C34JM,189,train
672.3771095275879,0,1,4,5,3,2,H-,1,2,5,0,1000,250.0,2,C34JM,190,train
702.6607990264893,0,1,4,5,3,2,H-,1,3,4,0,1000,250.0,3,C34JM,191,train
704.0979862213135,0,1,4,5,3,2,H-,1,5,3,0,1000,250.0,5,C34JM,192,train
592.9648876190186,0,1,4,5,3,2,H-,1,3,4,0,1000,250.0,3,C34JM,193,train
848.2840061187744,0,1,4,5,3,2,H-,1,0,0,0,1000,250.0,0,C34JM,194,train
1184.424877166748,0,1,4,5,3,2,H-,1,0,0,0,1000,250.0,0,C34JM,195,train
1343.6031341552734,0,1,4,5,3,2,H-,1,5,3,0,1000,250.0,5,C34JM,196,train
912.4488830566406,0,1,4,5,3,2,H-,1,0,0,0,1000,250.0,0,C34JM,197,train
576.2989521026611,0,1,4,5,3,2,H-,1,0,0,0,1000,250.0,0,C34JM,198,train
768.4009075164795,0,1,4,5,3,2,H-,1,4,2,0,1000,250.0,4,C34JM,199,train
1376.9619464874268,0,1,4,5,3,2,H-,1,3,4,0,1000,250.0,3,C34JM,200,train
799.860954284668,0,1,4,5,3,2,H-,1,1,1,0,1000,250.0,1,C34JM,201,train
2017.120122909546,0,1,4,5,3,2,H-,1,2,5,0,1000,250.0,2,C34JM,202,train
1600.4879474639893,0,1,4,5,3,2,H-,1,4,2,0,1000,250.0,4,C34JM,203,train
784.4908237457275,0,1,4,5,3,2,H-,1,1,1,0,1000,250.0,1,C34JM,204,train
736.3300323486328,0,1,4,5,3,2,H-,1,2,5,0,1000,250.0,2,C34JM,205,train
1104.2168140411377,0,1,4,5,3,2,H-,1,3,4,0,1000,250.0,3,C34JM,206,train
863.1930351257324,0,1,4,5,3,2,H-,1,5,3,0,1000,250.0,5,C34JM,207,train
721.5049266815186,0,1,4,5,3,2,H-,1,2,5,0,1000,250.0,2,C34JM,208,train
800.2629280090332,0,1,4,5,3,2,H-,1,5,3,0,1000,250.0,5,C34JM,209,train
494.6892261505127,0,1,4,5,3,2,H-,1,5,3,0,1000,250.0,5,C34JM,210,train
432.1579933166504,0,1,4,5,3,2,H-,1,5,3,0,1000,250.0,5,C34JM,211,train
544.3789958953857,0,1,4,5,3,2,H-,1,3,4,0,1000,250.0,3,C34JM,212,train
590.634822845459,0,1,4,5,3,2,H-,1,0,0,0,1000,250.0,0,C34JM,213,train
481.2469482421875,0,1,4,5,3,2,H-,1,0,0,0,1000,250.0,0,C34JM,214,train
593.3480262756348,0,1,4,5,3,2,H-,1,0,0,0,1000,250.0,0,C34JM,215,train
527.7698040008545,0,1,4,5,3,2,H-,1,5,3,0,1000,250.0,5,C34JM,216,train
656.1880111694336,0,1,4,5,3,2,H-,1,3,4,0,1000,250.0,3,C34JM,217,train
608.1709861755371,0,1,4,5,3,2,H-,1,4,2,0,1000,250.0,4,C34JM,218,train
655.8151245117188,0,1,4,5,3,2,H-,1,1,1,0,1000,250.0,1,C34JM,219,train
623.9528656005859,0,1,4,5,3,2,H-,1,4,2,0,1000,250.0,4,C34JM,220,train
926.6459941864014,0,1,4,5,3,2,H-,1,0,0,0,1000,250.0,0,C34JM,221,train
1392.1229839324951,0,1,4,5,3,2,H-,1,0,0,0,1000,250.0,0,C34JM,222,train
880.1779747009277,0,1,4,5,3,2,H-,1,2,5,0,1000,250.0,2,C34JM,223,train
656.4338207244873,0,1,4,5,3,2,H-,1,1,1,0,1000,250.0,1,C34JM,224,train
1360.4910373687744,0,1,4,5,3,2,H-,1,5,3,0,1000,250.0,5,C34JM,225,train
832.3459625244141,0,1,4,5,3,2,H-,1,2,5,0,1000,250.0,2,C34JM,226,train
656.3999652862549,0,1,4,5,3,2,H-,1,4,2,0,1000,250.0,4,C34JM,227,train
576.2360095977783,0,1,4,5,3,2,H-,1,3,4,0,1000,250.0,3,C34JM,228,train
592.1599864959717,0,1,4,5,3,2,H-,1,0,0,0,1000,250.0,0,C34JM,229,train
543.9918041229248,0,1,4,5,3,2,H-,1,1,1,0,1000,250.0,1,C34JM,230,train
672.3659038543701,0,1,4,5,3,2,H-,1,3,4,0,1000,250.0,3,C34JM,231,train
656.3129425048828,0,1,4,5,3,2,H-,1,4,2,0,1000,250.0,4,C34JM,232,train
944.129228591919,0,1,4,5,3,2,H-,1,3,4,0,1000,250.0,3,C34JM,233,train
656.0909748077393,0,1,4,5,3,2,H-,1,3,4,0,1000,250.0,3,C34JM,234,train
544.9590682983398,0,1,4,5,3,2,H-,1,4,2,0,1000,250.0,4,C34JM,235,train
928.4169673919678,0,1,4,5,3,2,H-,1,0,0,0,1000,250.0,0,C34JM,236,train
624.1819858551025,0,1,4,5,3,2,H-,1,4,2,0,1000,250.0,4,C34JM,237,train
816.0557746887207,0,1,4,5,3,2,H-,1,2,5,0,1000,250.0,2,C34JM,238,train
1712.1479511260986,0,1,4,5,3,2,H-,1,2,5,0,1000,250.0,2,C34JM,239,train
640.0489807128906,0,1,4,5,3,2,H-,1,2,5,0,1000,250.0,2,C34JM,240,train
1535.8381271362305,0,1,4,5,3,2,H-,1,5,3,0,1000,250.0,5,C34JM,241,train
464.04385566711426,0,1,4,5,3,2,H-,1,5,3,0,1000,250.0,5,C34JM,242,train
656.0840606689453,0,1,4,5,3,2,H-,1,3,4,0,1000,250.0,3,C34JM,243,train
880.1529407501221,0,1,4,5,3,2,H-,1,1,1,0,1000,250.0,1,C34JM,244,train
655.3750038146973,0,1,4,5,3,2,H-,1,2,5,0,1000,250.0,2,C34JM,245,train
783.9980125427246,0,1,4,5,3,2,H-,1,2,5,0,1000,250.0,2,C34JM,246,train
511.6879940032959,0,1,4,5,3,2,H-,1,2,5,0,1000,250.0,2,C34JM,247,train
736.1769676208496,0,1,4,5,3,2,H-,1,2,5,0,1000,250.0,2,C34JM,248,train
560.4181289672852,0,1,4,5,3,2,H-,1,3,4,0,1000,250.0,3,C34JM,249,train
863.6288642883301,5,2,1,4,0,3,H-,1,3,5,0,1000,250.0,3,C34JM,250,test
592.1540260314941,5,2,1,4,0,3,H-,1,3,5,0,1000,250.0,3,C34JM,251,test
1408.3631038665771,5,2,1,4,0,3,H-,1,2,1,0,1000,250.0,2,C34JM,252,test
1088.3870124816895,5,2,1,4,0,3,H-,1,4,3,0,1000,250.0,4,C34JM,253,test
1040.2560234069824,5,2,1,4,0,3,H-,1,2,1,0,1000,250.0,2,C34JM,254,test
1632.4260234832764,5,2,1,4,0,3,H-,1,5,0,0,1000,250.0,5,C34JM,255,test
864.6631240844727,5,2,1,4,0,3,H-,1,4,3,0,1000,250.0,4,C34JM,256,test
753.1909942626953,5,2,1,4,0,3,H-,1,3,5,0,1000,250.0,3,C34JM,257,test
974.5550155639648,5,2,1,4,0,3,H-,1,2,1,0,1000,250.0,2,C34JM,258,test
752.8188228607178,5,2,1,4,0,3,H-,1,2,1,0,1000,250.0,2,C34JM,259,test
2272.3560333251953,5,2,1,4,0,3,H-,1,5,0,0,1000,250.0,5,C34JM,260,test
848.6831188201904,5,2,1,4,0,3,H-,1,3,5,0,1000,250.0,3,C34JM,261,test
1296.28586769104,5,2,1,4,0,3,H-,1,1,2,0,1000,250.0,1,C34JM,262,test
640.4521465301514,5,2,1,4,0,3,H-,1,1,2,0,1000,250.0,1,C34JM,263,test
1088.5319709777832,5,2,1,4,0,3,H-,1,2,1,0,1000,250.0,2,C34JM,264,test
1488.5709285736084,5,2,1,4,0,3,H-,1,5,0,0,1000,250.0,5,C34JM,265,test
1727.5259494781494,5,2,1,4,0,3,H-,1,5,0,0,1000,250.0,5,C34JM,266,test
880.3679943084717,5,2,1,4,0,3,H-,1,4,3,0,1000,250.0,4,C34JM,267,test
640.3419971466064,5,2,1,4,0,3,H-,1,3,5,0,1000,250.0,3,C34JM,268,test
976.0801792144775,5,2,1,4,0,3,H-,1,3,5,0,1000,250.0,3,C34JM,269,test
1905.10892868042,5,2,1,4,0,3,H-,1,0,4,0,1000,250.0,0,C34JM,270,test
1040.4491424560547,5,2,1,4,0,3,H-,1,2,1,0,1000,250.0,2,C34JM,271,test
785.0809097290039,5,2,1,4,0,3,H-,1,4,3,0,1000,250.0,4,C34JM,272,test
1184.0860843658447,5,2,1,4,0,3,H-,1,5,0,0,1000,250.0,5,C34JM,273,test
1089.1602039337158,5,2,1,4,0,3,H-,1,1,2,0,1000,250.0,1,C34JM,274,test
1120.1930046081543,5,2,1,4,0,3,H-,1,4,3,0,1000,250.0,4,C34JM,275,test
1246.692180633545,5,2,1,4,0,3,H-,1,5,0,0,1000,250.0,5,C34JM,276,test
1473.099946975708,5,2,1,4,0,3,H-,1,5,0,0,1000,250.0,5,C34JM,277,test
1248.4560012817383,5,2,1,4,0,3,H-,1,4,3,0,1000,250.0,4,C34JM,278,test
2574.678897857666,5,2,1,4,0,3,H-,1,1,2,0,1000,250.0,1,C34JM,279,test
1328.9470672607422,5,2,1,4,0,3,H-,1,5,0,0,1000,250.0,5,C34JM,280,test
1072.1890926361084,5,2,1,4,0,3,H-,1,1,2,0,1000,250.0,1,C34JM,281,test
1294.7771549224854,5,2,1,4,0,3,H-,1,3,5,0,1000,250.0,3,C34JM,282,test
800.9049892425537,5,2,1,4,0,3,H-,1,1,2,0,1000,250.0,1,C34JM,283,test
1536.484956741333,5,2,1,4,0,3,H-,1,3,5,0,1000,250.0,3,C34JM,284,test
1520.900011062622,5,2,1,4,0,3,H-,1,1,2,0,1000,250.0,1,C34JM,285,test
784.1439247131348,5,2,1,4,0,3,H-,1,1,2,0,1000,250.0,1,C34JM,286,test
656.0990810394287,5,2,1,4,0,3,H-,0,2,1,0,1000,250.0,1,C34JM,287,test
704.6730518341064,5,2,1,4,0,3,H-,1,2,1,0,1000,250.0,2,C34JM,288,test
2176.600217819214,5,2,1,4,0,3,H-,1,5,0,0,1000,250.0,5,C34JM,289,test
720.39794921875,5,2,1,4,0,3,H-,1,3,5,0,1000,250.0,3,C34JM,290,test
2048.495054244995,5,2,1,4,0,3,H-,1,2,1,0,1000,250.0,2,C34JM,291,test
961.0500335693359,5,2,1,4,0,3,H-,1,3,5,0,1000,250.0,3,C34JM,292,test
1552.9170036315918,5,2,1,4,0,3,H-,1,2,1,0,1000,250.0,2,C34JM,293,test
4304.368019104004,5,2,1,4,0,3,H-,1,0,4,0,1000,250.0,0,C34JM,294,test
1344.5959091186523,5,2,1,4,0,3,H-,0,4,3,0,1000,250.0,3,C34JM,295,test
976.6800403594971,5,2,1,4,0,3,H-,1,3,5,0,1000,250.0,3,C34JM,296,test
2273.128032684326,5,2,1,4,0,3,H-,1,5,0,0,1000,250.0,5,C34JM,297,test
1056.1528205871582,5,2,1,4,0,3,H-,1,4,3,0,1000,250.0,4,C34JM,298,test
1136.5509033203125,5,2,1,4,0,3,H-,1,1,2,0,1000,250.0,1,C34JM,299,test
1007.1890354156494,5,2,1,4,0,3,H-,1,2,1,0,1000,250.0,2,C34JM,300,test
1616.8479919433594,5,2,1,4,0,3,H-,1,4,3,0,1000,250.0,4,C34JM,301,test
2064.608097076416,5,2,1,4,0,3,H-,1,4,3,0,1000,250.0,4,C34JM,302,test
1696.4788436889648,5,2,1,4,0,3,H-,1,5,0,0,1000,250.0,5,C34JM,303,test
1344.6118831634521,5,2,1,4,0,3,H-,1,1,2,0,1000,250.0,1,C34JM,304,test
912.4259948730469,5,2,1,4,0,3,H-,1,2,1,0,1000,250.0,2,C34JM,305,test
768.5909271240234,5,2,1,4,0,3,H-,1,2,1,0,1000,250.0,2,C34JM,306,test
1760.6079578399658,5,2,1,4,0,3,H-,1,1,2,0,1000,250.0,1,C34JM,307,test
1568.814992904663,5,2,1,4,0,3,H-,1,5,0,0,1000,250.0,5,C34JM,308,test
1167.2699451446533,5,2,1,4,0,3,H-,1,2,1,0,1000,250.0,2,C34JM,309,test
1263.7758255004883,5,2,1,4,0,3,H-,1,1,2,0,1000,250.0,1,C34JM,310,test
880.8598518371582,5,2,1,4,0,3,H-,1,2,1,0,1000,250.0,2,C34JM,311,test
848.5190868377686,5,2,1,4,0,3,H-,1,0,4,0,1000,250.0,0,C34JM,312,test
1024.2118835449219,5,2,1,4,0,3,H-,1,5,0,0,1000,250.0,5,C34JM,313,test
1376.539945602417,5,2,1,4,0,3,H-,1,1,2,0,1000,250.0,1,C34JM,314,test
912.513017654419,5,2,1,4,0,3,H-,1,2,1,0,1000,250.0,2,C34JM,315,test
1297.508955001831,5,2,1,4,0,3,H-,1,0,4,0,1000,250.0,0,C34JM,316,test
753.1020641326904,5,2,1,4,0,3,H-,1,2,1,0,1000,250.0,2,C34JM,317,test
960.7560634613037,5,2,1,4,0,3,H-,1,3,5,0,1000,250.0,3,C34JM,318,test
1824.465036392212,5,2,1,4,0,3,H-,1,5,0,0,1000,250.0,5,C34JM,319,test
1037.858009338379,5,2,1,4,0,3,H-,0,1,2,0,1000,250.0,0,C34JM,320,test
1024.4460105895996,5,2,1,4,0,3,H-,1,4,3,0,1000,250.0,4,C34JM,321,test
1104.8128604888916,5,2,1,4,0,3,H-,1,3,5,0,1000,250.0,3,C34JM,322,test
912.520170211792,5,2,1,4,0,3,H-,1,2,1,0,1000,250.0,2,C34JM,323,test
688.6827945709229,5,2,1,4,0,3,H-,1,2,1,0,1000,250.0,2,C34JM,324,test
928.4400939941406,5,2,1,4,0,3,H-,1,4,3,0,1000,250.0,4,C34JM,325,test
768.4929370880127,5,2,1,4,0,3,H-,1,2,1,0,1000,250.0,2,C34JM,326,test
913.2509231567383,5,2,1,4,0,3,H-,1,4,3,0,1000,250.0,4,C34JM,327,test
1440.5598640441895,5,2,1,4,0,3,H-,1,5,0,0,1000,250.0,5,C34JM,328,test
2080.397129058838,5,2,1,4,0,3,H-,1,5,0,0,1000,250.0,5,C34JM,329,test
1070.9500312805176,5,2,1,4,0,3,H-,1,2,1,0,1000,250.0,2,C34JM,330,test
640.6638622283936,5,2,1,4,0,3,H-,1,3,5,0,1000,250.0,3,C34JM,331,test
688.5919570922852,5,2,1,4,0,3,H-,1,2,1,0,1000,250.0,2,C34JM,332,test
638.5390758514404,5,2,1,4,0,3,H-,1,2,1,0,1000,250.0,2,C34JM,333,test
894.4189548492432,5,2,1,4,0,3,H-,1,4,3,0,1000,250.0,4,C34JM,334,test
896.5399265289307,5,2,1,4,0,3,H-,1,2,1,0,1000,250.0,2,C34JM,335,test
657.1938991546631,5,2,1,4,0,3,H-,1,3,5,0,1000,250.0,3,C34JM,336,test
1952.1710872650146,5,2,1,4,0,3,H-,1,1,2,0,1000,250.0,1,C34JM,337,test
1185.0800514221191,5,2,1,4,0,3,H-,1,1,2,0,1000,250.0,1,C34JM,338,test
720.430850982666,5,2,1,4,0,3,H-,1,1,2,0,1000,250.0,1,C34JM,339,test
1790.4539108276367,5,2,1,4,0,3,H-,1,5,0,0,1000,250.0,5,C34JM,340,test
816.2870407104492,5,2,1,4,0,3,H-,1,4,3,0,1000,250.0,4,C34JM,341,test
1184.1061115264893,5,2,1,4,0,3,H-,1,2,1,0,1000,250.0,2,C34JM,342,test
926.4309406280518,5,2,1,4,0,3,H-,1,0,4,0,1000,250.0,0,C34JM,343,test
1024.1870880126953,5,2,1,4,0,3,H-,1,1,2,0,1000,250.0,1,C34JM,344,test
832.4968814849854,5,2,1,4,0,3,H-,1,1,2,0,1000,250.0,1,C34JM,345,test
768.5039043426514,5,2,1,4,0,3,H-,1,2,1,0,1000,250.0,2,C34JM,346,test
817.0769214630127,5,2,1,4,0,3,H-,1,2,1,0,1000,250.0,2,C34JM,347,test
624.8719692230225,5,2,1,4,0,3,H-,1,3,5,0,1000,250.0,3,C34JM,348,test
608.7801456451416,5,2,1,4,0,3,H-,1,4,3,0,1000,250.0,4,C34JM,349,test
784.2779159545898,5,2,1,4,0,3,H-,1,4,3,0,1000,250.0,4,C34JM,350,test
960.9780311584473,5,2,1,4,0,3,H-,1,1,2,0,1000,250.0,1,C34JM,351,test
656.2099456787109,5,2,1,4,0,3,H-,1,4,3,0,1000,250.0,4,C34JM,352,test
992.4590587615967,5,2,1,4,0,3,H-,1,1,2,0,1000,250.0,1,C34JM,353,test
1856.0230731964111,5,2,1,4,0,3,H-,1,5,0,0,1000,250.0,5,C34JM,354,test
782.768964767456,5,2,1,4,0,3,H-,1,3,5,0,1000,250.0,3,C34JM,355,test
1024.2400169372559,5,2,1,4,0,3,H-,1,1,2,0,1000,250.0,1,C34JM,356,test
640.5501365661621,5,2,1,4,0,3,H-,1,3,5,0,1000,250.0,3,C34JM,357,test
864.6669387817383,5,2,1,4,0,3,H-,1,0,4,0,1000,250.0,0,C34JM,358,test
2800.1389503479004,5,2,1,4,0,3,H-,1,1,2,0,1000,250.0,1,C34JM,359,test
1920.8619594573975,5,2,1,4,0,3,H-,1,0,4,0,1000,250.0,0,C34JM,360,test
768.543004989624,5,2,1,4,0,3,H-,1,3,5,0,1000,250.0,3,C34JM,361,test
1056.3738346099854,5,2,1,4,0,3,H-,1,0,4,0,1000,250.0,0,C34JM,362,test
832.6339721679688,5,2,1,4,0,3,H-,1,1,2,0,1000,250.0,1,C34JM,363,test
1344.7699546813965,5,2,1,4,0,3,H-,1,4,3,0,1000,250.0,4,C34JM,364,test
926.8350601196289,5,2,1,4,0,3,H-,1,2,1,0,1000,250.0,2,C34JM,365,test
593.4810638427734,5,2,1,4,0,3,H-,1,3,5,0,1000,250.0,3,C34JM,366,test
816.8749809265137,5,2,1,4,0,3,H-,1,0,4,0,1000,250.0,0,C34JM,367,test
1041.7602062225342,5,2,1,4,0,3,H-,1,1,2,0,1000,250.0,1,C34JM,368,test
1230.9269905090332,5,2,1,4,0,3,H-,1,4,3,0,1000,250.0,4,C34JM,369,test
1441.5078163146973,5,2,1,4,0,3,H-,1,5,0,0,1000,250.0,5,C34JM,370,test
1264.3771171569824,5,2,1,4,0,3,H-,1,3,5,0,1000,250.0,3,C34JM,371,test
782.6998233795166,5,2,1,4,0,3,H-,1,4,3,0,1000,250.0,4,C34JM,372,test
1104.6509742736816,5,2,1,4,0,3,H-,1,0,4,0,1000,250.0,0,C34JM,373,test
928.581953048706,5,2,1,4,0,3,H-,1,2,1,0,1000,250.0,2,C34JM,374,test
784.1989994049072,5,2,1,4,0,3,H-,0,5,0,0,1000,250.0,3,C34JM,375,test
1344.2459106445312,5,2,1,4,0,3,H-,1,3,5,0,1000,250.0,3,C34JM,376,test
1600.3589630126953,5,2,1,4,0,3,H-,1,5,0,0,1000,250.0,5,C34JM,377,test
592.3380851745605,5,2,1,4,0,3,H-,1,4,3,0,1000,250.0,4,C34JM,378,test
1120.9969520568848,5,2,1,4,0,3,H-,1,0,4,0,1000,250.0,0,C34JM,379,test
1440.1299953460693,5,2,1,4,0,3,H-,1,5,0,0,1000,250.0,5,C34JM,380,test
976.7680168151855,5,2,1,4,0,3,H-,1,1,2,0,1000,250.0,1,C34JM,381,test
784.5211029052734,5,2,1,4,0,3,H-,0,4,3,0,1000,250.0,5,C34JM,382,test
880.5608749389648,5,2,1,4,0,3,H-,1,4,3,0,1000,250.0,4,C34JM,383,test
1456.5351009368896,5,2,1,4,0,3,H-,1,2,1,0,1000,250.0,2,C34JM,384,test
3184.4940185546875,5,2,1,4,0,3,H-,0,5,0,0,1000,250.0,3,C34JM,385,test
1504.6000480651855,5,2,1,4,0,3,H-,1,1,2,0,1000,250.0,1,C34JM,386,test
656.2480926513672,5,2,1,4,0,3,H-,1,3,5,0,1000,250.0,3,C34JM,387,test
1808.5541725158691,5,2,1,4,0,3,H-,1,5,0,0,1000,250.0,5,C34JM,388,test
2256.363868713379,5,2,1,4,0,3,H-,1,1,2,0,1000,250.0,1,C34JM,389,test
1216.3240909576416,5,2,1,4,0,3,H-,1,4,3,0,1000,250.0,4,C34JM,390,test
2832.3729038238525,5,2,1,4,0,3,H-,1,5,0,0,1000,250.0,5,C34JM,391,test
2352.726936340332,5,2,1,4,0,3,H-,1,0,4,0,1000,250.0,0,C34JM,392,test
672.3911762237549,5,2,1,4,0,3,H-,1,3,5,0,1000,250.0,3,C34JM,393,test
720.4289436340332,5,2,1,4,0,3,H-,1,3,5,0,1000,250.0,3,C34JM,394,test
673.0401515960693,5,2,1,4,0,3,H-,1,2,1,0,1000,250.0,2,C34JM,395,test
544.532060623169,5,2,1,4,0,3,H-,1,3,5,0,1000,250.0,3,C34JM,396,test
1680.4430484771729,5,2,1,4,0,3,H-,1,5,0,0,1000,250.0,5,C34JM,397,test
1552.6580810546875,5,2,1,4,0,3,H-,1,1,2,0,1000,250.0,1,C34JM,398,test
1952.1701335906982,5,2,1,4,0,3,H-,1,5,0,0,1000,250.0,5,C34JM,399,test
1104.6390533447266,5,2,1,4,0,3,H-,1,5,0,0,1000,250.0,5,C34JM,400,test
1153.5589694976807,5,2,1,4,0,3,H-,1,2,1,0,1000,250.0,2,C34JM,401,test
800.9250164031982,5,2,1,4,0,3,H-,1,4,3,0,1000,250.0,4,C34JM,402,test
1696.6369152069092,5,2,1,4,0,3,H-,1,2,1,0,1000,250.0,2,C34JM,403,test
593.5568809509277,5,2,1,4,0,3,H-,1,2,1,0,1000,250.0,2,C34JM,404,test
5312.546014785767,5,2,1,4,0,3,H-,1,5,0,0,1000,250.0,5,C34JM,405,test
1504.4140815734863,5,2,1,4,0,3,H-,1,5,0,0,1000,250.0,5,C34JM,406,test
800.3349304199219,5,2,1,4,0,3,H-,1,5,0,0,1000,250.0,5,C34JM,407,test
608.1109046936035,5,2,1,4,0,3,H-,1,5,0,0,1000,250.0,5,C34JM,408,test
1088.2940292358398,5,2,1,4,0,3,H-,1,5,0,0,1000,250.0,5,C34JM,409,test
816.1680698394775,5,2,1,4,0,3,H-,1,5,0,0,1000,250.0,5,C34JM,410,test
544.6360111236572,5,2,1,4,0,3,H-,1,5,0,0,1000,250.0,5,C34JM,411,test
847.9890823364258,5,2,1,4,0,3,H-,1,4,3,0,1000,250.0,4,C34JM,412,test
608.0968379974365,5,2,1,4,0,3,H-,1,4,3,0,1000,250.0,4,C34JM,413,test
1424.5970249176025,5,2,1,4,0,3,H-,1,0,4,0,1000,250.0,0,C34JM,414,test
944.5271492004395,5,2,1,4,0,3,H-,1,2,1,0,1000,250.0,2,C34JM,415,test
864.2089366912842,5,2,1,4,0,3,H-,1,3,5,0,1000,250.0,3,C34JM,416,test
1536.4019870758057,5,2,1,4,0,3,H-,1,5,0,0,1000,250.0,5,C34JM,417,test
688.2410049438477,5,2,1,4,0,3,H-,1,3,5,0,1000,250.0,3,C34JM,418,test
1280.3590297698975,5,2,1,4,0,3,H-,0,1,2,0,1000,250.0,0,C34JM,419,test
864.5000457763672,5,2,1,4,0,3,H-,0,2,1,0,1000,250.0,1,C34JM,420,test
897.0479965209961,5,2,1,4,0,3,H-,1,5,0,0,1000,250.0,5,C34JM,421,test
960.2959156036377,5,2,1,4,0,3,H-,1,3,5,0,1000,250.0,3,C34JM,422,test
974.4980335235596,5,2,1,4,0,3,H-,1,1,2,0,1000,250.0,1,C34JM,423,test
768.2480812072754,5,2,1,4,0,3,H-,1,1,2,0,1000,250.0,1,C34JM,424,test
1009.0820789337158,5,2,1,4,0,3,H-,1,5,0,0,1000,250.0,5,C34JM,425,test
1807.0299625396729,5,2,1,4,0,3,H-,1,0,4,0,1000,250.0,0,C34JM,426,test
1072.1490383148193,5,2,1,4,0,3,H-,1,4,3,0,1000,250.0,4,C34JM,427,test
752.6230812072754,5,2,1,4,0,3,H-,1,2,1,0,1000,250.0,2,C34JM,428,test
1168.8899993896484,5,2,1,4,0,3,H-,1,5,0,0,1000,250.0,5,C34JM,429,test
848.459005355835,5,2,1,4,0,3,H-,1,4,3,0,1000,250.0,4,C34JM,430,test
1952.3820877075195,5,2,1,4,0,3,H-,1,5,0,0,1000,250.0,5,C34JM,431,test
992.1300411224365,5,2,1,4,0,3,H-,1,2,1,0,1000,250.0,2,C34JM,432,test
1376.4770030975342,5,2,1,4,0,3,H-,1,0,4,0,1000,250.0,0,C34JM,433,test
992.5189018249512,5,2,1,4,0,3,H-,1,2,1,0,1000,250.0,2,C34JM,434,test
1953.4978866577148,5,2,1,4,0,3,H-,0,4,3,0,1000,250.0,5,C34JM,435,test
896.5890407562256,5,2,1,4,0,3,H-,1,2,1,0,1000,250.0,2,C34JM,436,test
2368.865966796875,5,2,1,4,0,3,H-,1,0,4,0,1000,250.0,0,C34JM,437,test
2272.4151611328125,5,2,1,4,0,3,H-,1,0,4,0,1000,250.0,0,C34JM,438,test
737.4598979949951,5,2,1,4,0,3,H-,0,2,1,0,1000,250.0,1,C34JM,439,test
3344.248056411743,5,2,1,4,0,3,H-,1,1,2,0,1000,250.0,1,C34JM,440,test
768.3060169219971,5,2,1,4,0,3,H-,1,3,5,0,1000,250.0,3,C34JM,441,test
656.3401222229004,5,2,1,4,0,3,H-,1,3,5,0,1000,250.0,3,C34JM,442,test
752.1059513092041,5,2,1,4,0,3,H-,1,2,1,0,1000,250.0,2,C34JM,443,test
1008.6441040039062,5,2,1,4,0,3,H-,1,2,1,0,1000,250.0,2,C34JM,444,test
768.2170867919922,5,2,1,4,0,3,H-,1,3,5,0,1000,250.0,3,C34JM,445,test
976.5660762786865,5,2,1,4,0,3,H-,1,2,1,0,1000,250.0,2,C34JM,446,test
1072.1540451049805,5,2,1,4,0,3,H-,1,5,0,0,1000,250.0,5,C34JM,447,test
1440.2859210968018,5,2,1,4,0,3,H-,1,1,2,0,1000,250.0,1,C34JM,448,test
1105.025053024292,5,2,1,4,0,3,H-,1,5,0,0,1000,250.0,5,C34JM,449,test
816.3979053497314,5,2,1,4,0,3,H-,1,5,0,0,1000,250.0,5,C34JM,450,test
832.4780464172363,5,2,1,4,0,3,H-,1,4,3,0,1000,250.0,4,C34JM,451,test
2880.1398277282715,5,2,1,4,0,3,H-,1,2,1,0,1000,250.0,2,C34JM,452,test
2033.1089496612549,5,2,1,4,0,3,H-,1,5,0,0,1000,250.0,5,C34JM,453,test
1120.6419467926025,5,2,1,4,0,3,H-,1,5,0,0,1000,250.0,5,C34JM,454,test
1760.6539726257324,5,2,1,4,0,3,H-,1,5,0,0,1000,250.0,5,C34JM,455,test
880.2840709686279,5,2,1,4,0,3,H-,1,1,2,0,1000,250.0,1,C34JM,456,test
801.1679649353027,5,2,1,4,0,3,H-,1,0,4,0,1000,250.0,0,C34JM,457,test
992.1560287475586,5,2,1,4,0,3,H-,1,1,2,0,1000,250.0,1,C34JM,458,test
1408.5121154785156,5,2,1,4,0,3,H-,1,4,3,0,1000,250.0,4,C34JM,459,test
768.9008712768555,5,2,1,4,0,3,H-,1,4,3,0,1000,250.0,4,C34JM,460,test
1040.5280590057373,5,2,1,4,0,3,H-,1,5,0,0,1000,250.0,5,C34JM,461,test
1024.2841243743896,5,2,1,4,0,3,H-,1,0,4,0,1000,250.0,0,C34JM,462,test
3568.2730674743652,5,2,1,4,0,3,H-,1,1,2,0,1000,250.0,1,C34JM,463,test
2624.8910427093506,5,2,1,4,0,3,H-,1,2,1,0,1000,250.0,2,C34JM,464,test
3136.323928833008,5,2,1,4,0,3,H-,1,0,4,0,1000,250.0,0,C34JM,465,test
672.3639965057373,5,2,1,4,0,3,H-,1,0,4,0,1000,250.0,0,C34JM,466,test
832.4599266052246,5,2,1,4,0,3,H-,1,1,2,0,1000,250.0,1,C34JM,467,test
1217.069149017334,5,2,1,4,0,3,H-,1,4,3,0,1000,250.0,4,C34JM,468,test
768.6150074005127,5,2,1,4,0,3,H-,1,3,5,0,1000,250.0,3,C34JM,469,test
1808.3159923553467,5,2,1,4,0,3,H-,1,5,0,0,1000,250.0,5,C34JM,470,test
1601.0549068450928,5,2,1,4,0,3,H-,1,4,3,0,1000,250.0,4,C34JM,471,test
704.639196395874,5,2,1,4,0,3,H-,1,3,5,0,1000,250.0,3,C34JM,472,test
560.2049827575684,5,2,1,4,0,3,H-,1,3,5,0,1000,250.0,3,C34JM,473,test
1313.0710124969482,5,2,1,4,0,3,H-,1,5,0,0,1000,250.0,5,C34JM,474,test
752.6030540466309,5,2,1,4,0,3,H-,1,5,0,0,1000,250.0,5,C34JM,475,test
624.1967678070068,5,2,1,4,0,3,H-,1,4,3,0,1000,250.0,4,C34JM,476,test
1088.5589122772217,5,2,1,4,0,3,H-,1,3,5,0,1000,250.0,3,C34JM,477,test
848.3190536499023,5,2,1,4,0,3,H-,1,4,3,0,1000,250.0,4,C34JM,478,test
1248.453140258789,5,2,1,4,0,3,H-,1,0,4,0,1000,250.0,0,C34JM,479,test
1104.4559478759766,5,2,1,4,0,3,H-,1,0,4,0,1000,250.0,0,C34JM,480,test
976.8140316009521,5,2,1,4,0,3,H-,1,2,1,0,1000,250.0,2,C34JM,481,test
1136.3229751586914,5,2,1,4,0,3,H-,1,0,4,0,1000,250.0,0,C34JM,482,test
1233.6609363555908,5,2,1,4,0,3,H-,1,5,0,0,1000,250.0,5,C34JM,483,test
768.2681083679199,5,2,1,4,0,3,H-,1,0,4,0,1000,250.0,0,C34JM,484,test
800.1430034637451,5,2,1,4,0,3,H-,1,2,1,0,1000,250.0,2,C34JM,485,test
688.3981227874756,5,2,1,4,0,3,H-,0,3,5,0,1000,250.0,4,C34JM,486,test
1616.3570880889893,5,2,1,4,0,3,H-,1,1,2,0,1000,250.0,1,C34JM,487,test
816.8909549713135,5,2,1,4,0,3,H-,1,1,2,0,1000,250.0,1,C34JM,488,test
1360.5210781097412,5,2,1,4,0,3,H-,1,1,2,0,1000,250.0,1,C34JM,489,test
704.4148445129395,5,2,1,4,0,3,H-,1,3,5,0,1000,250.0,3,C34JM,490,test
782.7320098876953,5,2,1,4,0,3,H-,1,3,5,0,1000,250.0,3,C34JM,491,test
830.6050300598145,5,2,1,4,0,3,H-,1,4,3,0,1000,250.0,4,C34JM,492,test
1152.9290676116943,5,2,1,4,0,3,H-,0,1,2,0,1000,250.0,0,C34JM,493,test
1456.19797706604,5,2,1,4,0,3,H-,1,2,1,0,1000,250.0,2,C34JM,494,test
1760.2300643920898,5,2,1,4,0,3,H-,1,0,4,0,1000,250.0,0,C34JM,495,test
1472.10693359375,5,2,1,4,0,3,H-,1,5,0,0,1000,250.0,5,C34JM,496,test
1856.245994567871,5,2,1,4,0,3,H-,1,1,2,0,1000,250.0,1,C34JM,497,test
1167.8719520568848,5,2,1,4,0,3,H-,0,3,5,0,1000,250.0,2,C34JM,498,test
640.3939723968506,5,2,1,4,0,3,H-,0,2,1,0,1000,250.0,1,C34JM,499,test
