RT,SRmap_0,SRmap_1,SRmap_2,SRmap_3,SRmap_4,SRmap_5,condition,correct,correct_response,curstim,ms-precue,ms-prestimblank,ntrials,response,subject,trial,type
6848.601818084717,2,4,3,0,5,1,H-,1,1,5,0,1000,250.0,1,c29pm,0,train
1104.996919631958,2,4,3,0,5,1,H-,1,1,5,0,1000,250.0,1,c29pm,1,train
1425.1461029052734,2,4,3,0,5,1,H-,1,1,5,0,1000,250.0,1,c29pm,2,train
3249.2051124572754,2,4,3,0,5,1,H-,1,3,2,0,1000,250.0,3,c29pm,3,train
1936.7311000823975,2,4,3,0,5,1,H-,0,1,5,0,1000,250.0,3,c29pm,4,train
1776.6380310058594,2,4,3,0,5,1,H-,1,0,3,0,1000,250.0,0,c29pm,5,train
1472.7540016174316,2,4,3,0,5,1,H-,1,1,5,0,1000,250.0,1,c29pm,6,train
7409.092903137207,2,4,3,0,5,1,H-,0,5,4,0,1000,250.0,4,c29pm,7,train
1569.0748691558838,2,4,3,0,5,1,H-,1,5,4,0,1000,250.0,5,c29pm,8,train
737.036943435669,2,4,3,0,5,1,H-,1,5,4,0,1000,250.0,5,c29pm,9,train
1473.0579853057861,2,4,3,0,5,1,H-,1,1,5,0,1000,250.0,1,c29pm,10,train
4657.088041305542,2,4,3,0,5,1,H-,1,3,2,0,1000,250.0,3,c29pm,11,train
1248.7521171569824,2,4,3,0,5,1,H-,0,0,3,0,1000,250.0,1,c29pm,12,train
1792.720079421997,2,4,3,0,5,1,H-,1,5,4,0,1000,250.0,5,c29pm,13,train
1136.1041069030762,2,4,3,0,5,1,H-,1,5,4,0,1000,250.0,5,c29pm,14,train
704.7929763793945,2,4,3,0,5,1,H-,1,0,3,0,1000,250.0,0,c29pm,15,train
4033.118963241577,2,4,3,0,5,1,H-,1,2,0,0,1000,250.0,2,c29pm,16,train
912.9719734191895,2,4,3,0,5,1,H-,1,5,4,0,1000,250.0,5,c29pm,17,train
1344.331979751587,2,4,3,0,5,1,H-,1,0,3,0,1000,250.0,0,c29pm,18,train
2256.783962249756,2,4,3,0,5,1,H-,1,2,0,0,1000,250.0,2,c29pm,19,train
6161.164045333862,2,4,3,0,5,1,H-,1,3,2,0,1000,250.0,3,c29pm,20,train
1024.8310565948486,2,4,3,0,5,1,H-,1,5,4,0,1000,250.0,5,c29pm,21,train
528.5711288452148,2,4,3,0,5,1,H-,1,5,4,0,1000,250.0,5,c29pm,22,train
768.6159610748291,2,4,3,0,5,1,H-,0,1,5,0,1000,250.0,0,c29pm,23,train
640.5270099639893,2,4,3,0,5,1,H-,1,5,4,0,1000,250.0,5,c29pm,24,train
1025.2211093902588,2,4,3,0,5,1,H-,1,2,0,0,1000,250.0,2,c29pm,25,train
3104.6299934387207,2,4,3,0,5,1,H-,1,4,1,0,1000,250.0,4,c29pm,26,train
1473.2370376586914,2,4,3,0,5,1,H-,1,1,5,0,1000,250.0,1,c29pm,27,train
1105.0329208374023,2,4,3,0,5,1,H-,1,0,3,0,1000,250.0,0,c29pm,28,train
912.2099876403809,2,4,3,0,5,1,H-,1,0,3,0,1000,250.0,0,c29pm,29,train
2448.9989280700684,2,4,3,0,5,1,H-,1,2,0,0,1000,250.0,2,c29pm,30,train
3217.4899578094482,2,4,3,0,5,1,H-,1,3,2,0,1000,250.0,3,c29pm,31,train
1312.8118515014648,2,4,3,0,5,1,H-,1,3,2,0,1000,250.0,3,c29pm,32,train
1520.570993423462,2,4,3,0,5,1,H-,1,1,5,0,1000,250.0,1,c29pm,33,train
2752.5930404663086,2,4,3,0,5,1,H-,1,4,1,0,1000,250.0,4,c29pm,34,train
2784.7540378570557,2,4,3,0,5,1,H-,1,4,1,0,1000,250.0,4,c29pm,35,train
1024.6360301971436,2,4,3,0,5,1,H-,1,0,3,0,1000,250.0,0,c29pm,36,train
2896.8770503997803,2,4,3,0,5,1,H-,1,3,2,0,1000,250.0,3,c29pm,37,train
624.7000694274902,2,4,3,0,5,1,H-,1,5,4,0,1000,250.0,5,c29pm,38,train
720.6790447235107,2,4,3,0,5,1,H-,1,5,4,0,1000,250.0,5,c29pm,39,train
2113.010883331299,2,4,3,0,5,1,H-,1,3,2,0,1000,250.0,3,c29pm,40,train
2034.182071685791,2,4,3,0,5,1,H-,1,2,0,0,1000,250.0,2,c29pm,41,train
4400.479078292847,2,4,3,0,5,1,H-,0,4,1,0,1000,250.0,3,c29pm,42,train
848.7451076507568,2,4,3,0,5,1,H-,0,1,5,0,1000,250.0,0,c29pm,43,train
2881.1800479888916,2,4,3,0,5,1,H-,1,3,2,0,1000,250.0,3,c29pm,44,train
1328.552007675171,2,4,3,0,5,1,H-,1,0,3,0,1000,250.0,0,c29pm,45,train
1104.9559116363525,2,4,3,0,5,1,H-,1,0,3,0,1000,250.0,0,c29pm,46,train
945.1720714569092,2,4,3,0,5,1,H-,1,5,4,0,1000,250.0,5,c29pm,47,train
496.77491188049316,2,4,3,0,5,1,H-,1,5,4,0,1000,250.0,5,c29pm,48,train
1665.1930809020996,2,4,3,0,5,1,H-,1,2,0,0,1000,250.0,2,c29pm,49,train
1408.4100723266602,2,4,3,0,5,1,H-,1,0,3,0,1000,250.0,0,c29pm,50,train
416.6991710662842,2,4,3,0,5,1,H-,1,1,5,0,1000,250.0,1,c29pm,51,train
3361.138105392456,2,4,3,0,5,1,H-,1,3,2,0,1000,250.0,3,c29pm,52,train
1248.6209869384766,2,4,3,0,5,1,H-,1,0,3,0,1000,250.0,0,c29pm,53,train
576.6959190368652,2,4,3,0,5,1,H-,1,0,3,0,1000,250.0,0,c29pm,54,train
897.0789909362793,2,4,3,0,5,1,H-,1,2,0,0,1000,250.0,2,c29pm,55,train
928.4639358520508,2,4,3,0,5,1,H-,1,0,3,0,1000,250.0,0,c29pm,56,train
592.4479961395264,2,4,3,0,5,1,H-,1,1,5,0,1000,250.0,1,c29pm,57,train
2033.0989360809326,2,4,3,0,5,1,H-,1,4,1,0,1000,250.0,4,c29pm,58,train
960.784912109375,2,4,3,0,5,1,H-,1,2,0,0,1000,250.0,2,c29pm,59,train
1488.8699054718018,2,4,3,0,5,1,H-,1,2,0,0,1000,250.0,2,c29pm,60,train
545.0570583343506,2,4,3,0,5,1,H-,1,1,5,0,1000,250.0,1,c29pm,61,train
3374.729871749878,2,4,3,0,5,1,H-,1,3,2,0,1000,250.0,3,c29pm,62,train
1361.0501289367676,2,4,3,0,5,1,H-,1,0,3,0,1000,250.0,0,c29pm,63,train
1057.192087173462,2,4,3,0,5,1,H-,1,3,2,0,1000,250.0,3,c29pm,64,train
512.9280090332031,2,4,3,0,5,1,H-,1,3,2,0,1000,250.0,3,c29pm,65,train
609.1089248657227,2,4,3,0,5,1,H-,1,5,4,0,1000,250.0,5,c29pm,66,train
656.6989421844482,2,4,3,0,5,1,H-,0,2,0,0,1000,250.0,1,c29pm,67,train
3008.665084838867,2,4,3,0,5,1,H-,1,4,1,0,1000,250.0,4,c29pm,68,train
1121.093988418579,2,4,3,0,5,1,H-,1,0,3,0,1000,250.0,0,c29pm,69,train
641.0810947418213,2,4,3,0,5,1,H-,1,2,0,0,1000,250.0,2,c29pm,70,train
1985.12601852417,2,4,3,0,5,1,H-,1,4,1,0,1000,250.0,4,c29pm,71,train
928.7362098693848,2,4,3,0,5,1,H-,1,1,5,0,1000,250.0,1,c29pm,72,train
577.0699977874756,2,4,3,0,5,1,H-,1,2,0,0,1000,250.0,2,c29pm,73,train
689.068078994751,2,4,3,0,5,1,H-,1,0,3,0,1000,250.0,0,c29pm,74,train
529.6940803527832,2,4,3,0,5,1,H-,1,1,5,0,1000,250.0,1,c29pm,75,train
2848.48690032959,2,4,3,0,5,1,H-,1,3,2,0,1000,250.0,3,c29pm,76,train
816.6110515594482,2,4,3,0,5,1,H-,1,0,3,0,1000,250.0,0,c29pm,77,train
560.8999729156494,2,4,3,0,5,1,H-,1,5,4,0,1000,250.0,5,c29pm,78,train
1230.4890155792236,2,4,3,0,5,1,H-,1,4,1,0,1000,250.0,4,c29pm,79,train
720.6771373748779,2,4,3,0,5,1,H-,0,1,5,0,1000,250.0,0,c29pm,80,train
753.1979084014893,2,4,3,0,5,1,H-,1,1,5,0,1000,250.0,1,c29pm,81,train
449.07188415527344,2,4,3,0,5,1,H-,1,0,3,0,1000,250.0,0,c29pm,82,train
622.6630210876465,2,4,3,0,5,1,H-,1,0,3,0,1000,250.0,0,c29pm,83,train
833.2138061523438,2,4,3,0,5,1,H-,1,4,1,0,1000,250.0,4,c29pm,84,train
529.0818214416504,2,4,3,0,5,1,H-,0,1,5,0,1000,250.0,0,c29pm,85,train
928.3709526062012,2,4,3,0,5,1,H-,1,4,1,0,1000,250.0,4,c29pm,86,train
1009.1538429260254,2,4,3,0,5,1,H-,0,3,2,0,1000,250.0,5,c29pm,87,train
785.2058410644531,2,4,3,0,5,1,H-,1,2,0,0,1000,250.0,2,c29pm,88,train
768.8970565795898,2,4,3,0,5,1,H-,1,5,4,0,1000,250.0,5,c29pm,89,train
2209.1360092163086,2,4,3,0,5,1,H-,1,3,2,0,1000,250.0,3,c29pm,90,train
785.1028442382812,2,4,3,0,5,1,H-,1,2,0,0,1000,250.0,2,c29pm,91,train
1185.0330829620361,2,4,3,0,5,1,H-,1,1,5,0,1000,250.0,1,c29pm,92,train
2705.148935317993,2,4,3,0,5,1,H-,1,3,2,0,1000,250.0,3,c29pm,93,train
718.7139987945557,2,4,3,0,5,1,H-,1,5,4,0,1000,250.0,5,c29pm,94,train
1681.1561584472656,2,4,3,0,5,1,H-,1,1,5,0,1000,250.0,1,c29pm,95,train
673.0310916900635,2,4,3,0,5,1,H-,1,2,0,0,1000,250.0,2,c29pm,96,train
1263.8769149780273,2,4,3,0,5,1,H-,1,3,2,0,1000,250.0,3,c29pm,97,train
913.1441116333008,2,4,3,0,5,1,H-,1,1,5,0,1000,250.0,1,c29pm,98,train
609.0149879455566,2,4,3,0,5,1,H-,1,2,0,0,1000,250.0,2,c29pm,99,train
1024.9061584472656,2,4,3,0,5,1,H-,1,3,2,0,1000,250.0,3,c29pm,100,train
1040.8918857574463,2,4,3,0,5,1,H-,1,0,3,0,1000,250.0,0,c29pm,101,train
544.6910858154297,2,4,3,0,5,1,H-,1,5,4,0,1000,250.0,5,c29pm,102,train
1104.1648387908936,2,4,3,0,5,1,H-,1,1,5,0,1000,250.0,1,c29pm,103,train
608.6039543151855,2,4,3,0,5,1,H-,1,2,0,0,1000,250.0,2,c29pm,104,train
592.7538871765137,2,4,3,0,5,1,H-,1,5,4,0,1000,250.0,5,c29pm,105,train
496.7348575592041,2,4,3,0,5,1,H-,1,3,2,0,1000,250.0,3,c29pm,106,train
704.87380027771,2,4,3,0,5,1,H-,1,1,5,0,1000,250.0,1,c29pm,107,train
689.1720294952393,2,4,3,0,5,1,H-,1,1,5,0,1000,250.0,1,c29pm,108,train
575.9179592132568,2,4,3,0,5,1,H-,1,0,3,0,1000,250.0,0,c29pm,109,train
832.1919441223145,2,4,3,0,5,1,H-,1,3,2,0,1000,250.0,3,c29pm,110,train
640.3119564056396,2,4,3,0,5,1,H-,1,3,2,0,1000,250.0,3,c29pm,111,train
976.862907409668,2,4,3,0,5,1,H-,1,0,3,0,1000,250.0,0,c29pm,112,train
640.7768726348877,2,4,3,0,5,1,H-,1,5,4,0,1000,250.0,5,c29pm,113,train
721.1120128631592,2,4,3,0,5,1,H-,1,0,3,0,1000,250.0,0,c29pm,114,train
1025.0918865203857,2,4,3,0,5,1,H-,1,3,2,0,1000,250.0,3,c29pm,115,train
688.9040470123291,2,4,3,0,5,1,H-,1,1,5,0,1000,250.0,1,c29pm,116,train
448.8539695739746,2,4,3,0,5,1,H-,1,1,5,0,1000,250.0,1,c29pm,117,train
494.59290504455566,2,4,3,0,5,1,H-,1,0,3,0,1000,250.0,0,c29pm,118,train
721.1649417877197,2,4,3,0,5,1,H-,1,0,3,0,1000,250.0,0,c29pm,119,train
593.1389331817627,2,4,3,0,5,1,H-,1,5,4,0,1000,250.0,5,c29pm,120,train
769.2070007324219,2,4,3,0,5,1,H-,0,1,5,0,1000,250.0,0,c29pm,121,train
545.1929569244385,2,4,3,0,5,1,H-,1,5,4,0,1000,250.0,5,c29pm,122,train
593.1940078735352,2,4,3,0,5,1,H-,1,5,4,0,1000,250.0,5,c29pm,123,train
1617.0909404754639,2,4,3,0,5,1,H-,0,2,0,0,1000,250.0,1,c29pm,124,train
529.1051864624023,2,4,3,0,5,1,H-,1,5,4,0,1000,250.0,5,c29pm,125,train
416.90897941589355,2,4,3,0,5,1,H-,1,2,0,0,1000,250.0,2,c29pm,126,train
832.7369689941406,2,4,3,0,5,1,H-,1,3,2,0,1000,250.0,3,c29pm,127,train
481.20903968811035,2,4,3,0,5,1,H-,1,3,2,0,1000,250.0,3,c29pm,128,train
1089.245080947876,2,4,3,0,5,1,H-,1,1,5,0,1000,250.0,1,c29pm,129,train
480.9069633483887,2,4,3,0,5,1,H-,1,0,3,0,1000,250.0,0,c29pm,130,train
544.8629856109619,2,4,3,0,5,1,H-,1,0,3,0,1000,250.0,0,c29pm,131,train
432.7888488769531,2,4,3,0,5,1,H-,1,0,3,0,1000,250.0,0,c29pm,132,train
849.174976348877,2,4,3,0,5,1,H-,1,2,0,0,1000,250.0,2,c29pm,133,train
800.6999492645264,2,4,3,0,5,1,H-,1,3,2,0,1000,250.0,3,c29pm,134,train
672.6808547973633,2,4,3,0,5,1,H-,1,0,3,0,1000,250.0,0,c29pm,135,train
688.7340545654297,2,4,3,0,5,1,H-,1,2,0,0,1000,250.0,2,c29pm,136,train
513.0429267883301,2,4,3,0,5,1,H-,1,0,3,0,1000,250.0,0,c29pm,137,train
770.1499462127686,2,4,3,0,5,1,H-,1,5,4,0,1000,250.0,5,c29pm,138,train
673.1770038604736,2,4,3,0,5,1,H-,1,2,0,0,1000,250.0,2,c29pm,139,train
641.042947769165,2,4,3,0,5,1,H-,1,5,4,0,1000,250.0,5,c29pm,140,train
1616.7819499969482,2,4,3,0,5,1,H-,1,1,5,0,1000,250.0,1,c29pm,141,train
624.7189044952393,2,4,3,0,5,1,H-,0,1,5,0,1000,250.0,0,c29pm,142,train
577.5191783905029,2,4,3,0,5,1,H-,1,2,0,0,1000,250.0,2,c29pm,143,train
561.0079765319824,2,4,3,0,5,1,H-,1,5,4,0,1000,250.0,5,c29pm,144,train
560.075044631958,2,4,3,0,5,1,H-,1,5,4,0,1000,250.0,5,c29pm,145,train
433.08091163635254,2,4,3,0,5,1,H-,1,1,5,0,1000,250.0,1,c29pm,146,train
528.8450717926025,2,4,3,0,5,1,H-,1,5,4,0,1000,250.0,5,c29pm,147,train
544.7418689727783,2,4,3,0,5,1,H-,1,0,3,0,1000,250.0,0,c29pm,148,train
705.2597999572754,2,4,3,0,5,1,H-,1,5,4,0,1000,250.0,5,c29pm,149,train
1089.0510082244873,2,4,3,0,5,1,H-,1,2,0,0,1000,250.0,2,c29pm,150,train
576.3580799102783,2,4,3,0,5,1,H-,1,5,4,0,1000,250.0,5,c29pm,151,train
832.521915435791,2,4,3,0,5,1,H-,1,3,2,0,1000,250.0,3,c29pm,152,train
625.7810592651367,2,4,3,0,5,1,H-,1,0,3,0,1000,250.0,0,c29pm,153,train
496.5200424194336,2,4,3,0,5,1,H-,1,0,3,0,1000,250.0,0,c29pm,154,train
624.4361400604248,2,4,3,0,5,1,H-,1,3,2,0,1000,250.0,3,c29pm,155,train
1088.9759063720703,2,4,3,0,5,1,H-,1,1,5,0,1000,250.0,1,c29pm,156,train
1056.0331344604492,2,4,3,0,5,1,H-,1,4,1,0,1000,250.0,4,c29pm,157,train
544.9130535125732,2,4,3,0,5,1,H-,1,5,4,0,1000,250.0,5,c29pm,158,train
897.0959186553955,2,4,3,0,5,1,H-,1,2,0,0,1000,250.0,2,c29pm,159,train
734.5759868621826,2,4,3,0,5,1,H-,1,3,2,0,1000,250.0,3,c29pm,160,train
656.9688320159912,2,4,3,0,5,1,H-,0,1,5,0,1000,250.0,0,c29pm,161,train
752.3179054260254,2,4,3,0,5,1,H-,1,2,0,0,1000,250.0,2,c29pm,162,train
657.1059226989746,2,4,3,0,5,1,H-,1,5,4,0,1000,250.0,5,c29pm,163,train
1456.8300247192383,2,4,3,0,5,1,H-,1,0,3,0,1000,250.0,0,c29pm,164,train
688.0970001220703,2,4,3,0,5,1,H-,1,3,2,0,1000,250.0,3,c29pm,165,train
1120.4431056976318,2,4,3,0,5,1,H-,1,1,5,0,1000,250.0,1,c29pm,166,train
880.8290958404541,2,4,3,0,5,1,H-,1,1,5,0,1000,250.0,1,c29pm,167,train
480.43179512023926,2,4,3,0,5,1,H-,1,1,5,0,1000,250.0,1,c29pm,168,train
433.1388473510742,2,4,3,0,5,1,H-,1,1,5,0,1000,250.0,1,c29pm,169,train
1024.6670246124268,2,4,3,0,5,1,H-,1,4,1,0,1000,250.0,4,c29pm,170,train
480.50999641418457,2,4,3,0,5,1,H-,1,3,2,0,1000,250.0,3,c29pm,171,train
624.1400241851807,2,4,3,0,5,1,H-,1,3,2,0,1000,250.0,3,c29pm,172,train
864.3851280212402,2,4,3,0,5,1,H-,1,2,0,0,1000,250.0,2,c29pm,173,train
672.7910041809082,2,4,3,0,5,1,H-,1,0,3,0,1000,250.0,0,c29pm,174,train
689.093828201294,2,4,3,0,5,1,H-,1,2,0,0,1000,250.0,2,c29pm,175,train
961.1008167266846,2,4,3,0,5,1,H-,1,4,1,0,1000,250.0,4,c29pm,176,train
528.4039974212646,2,4,3,0,5,1,H-,1,5,4,0,1000,250.0,5,c29pm,177,train
881.0060024261475,2,4,3,0,5,1,H-,1,0,3,0,1000,250.0,0,c29pm,178,train
656.9969654083252,2,4,3,0,5,1,H-,1,2,0,0,1000,250.0,2,c29pm,179,train
592.4899578094482,2,4,3,0,5,1,H-,1,0,3,0,1000,250.0,0,c29pm,180,train
848.4129905700684,2,4,3,0,5,1,H-,1,4,1,0,1000,250.0,4,c29pm,181,train
497.07484245300293,2,4,3,0,5,1,H-,0,4,1,0,1000,250.0,3,c29pm,182,train
1376.446008682251,2,4,3,0,5,1,H-,1,4,1,0,1000,250.0,4,c29pm,183,train
1856.4660549163818,2,4,3,0,5,1,H-,1,2,0,0,1000,250.0,2,c29pm,184,train
464.63894844055176,2,4,3,0,5,1,H-,1,2,0,0,1000,250.0,2,c29pm,185,train
497.64204025268555,2,4,3,0,5,1,H-,1,5,4,0,1000,250.0,5,c29pm,186,train
864.92919921875,2,4,3,0,5,1,H-,1,1,5,0,1000,250.0,1,c29pm,187,train
529.231071472168,2,4,3,0,5,1,H-,1,0,3,0,1000,250.0,0,c29pm,188,train
912.3489856719971,2,4,3,0,5,1,H-,1,4,1,0,1000,250.0,4,c29pm,189,train
784.4600677490234,2,4,3,0,5,1,H-,1,1,5,0,1000,250.0,1,c29pm,190,train
526.5970230102539,2,4,3,0,5,1,H-,1,1,5,0,1000,250.0,1,c29pm,191,train
720.6900119781494,2,4,3,0,5,1,H-,1,2,0,0,1000,250.0,2,c29pm,192,train
1056.9219589233398,2,4,3,0,5,1,H-,1,3,2,0,1000,250.0,3,c29pm,193,train
592.5278663635254,2,4,3,0,5,1,H-,1,1,5,0,1000,250.0,1,c29pm,194,train
478.97887229919434,2,4,3,0,5,1,H-,1,0,3,0,1000,250.0,0,c29pm,195,train
976.7229557037354,2,4,3,0,5,1,H-,1,4,1,0,1000,250.0,4,c29pm,196,train
688.7500286102295,2,4,3,0,5,1,H-,1,1,5,0,1000,250.0,1,c29pm,197,train
528.6288261413574,2,4,3,0,5,1,H-,1,5,4,0,1000,250.0,5,c29pm,198,train
528.4450054168701,2,4,3,0,5,1,H-,1,5,4,0,1000,250.0,5,c29pm,199,train
735.9490394592285,2,4,3,0,5,1,H-,1,4,1,0,1000,250.0,4,c29pm,200,train
880.7289600372314,2,4,3,0,5,1,H-,1,0,3,0,1000,250.0,0,c29pm,201,train
704.8561573028564,2,4,3,0,5,1,H-,1,1,5,0,1000,250.0,1,c29pm,202,train
511.7769241333008,2,4,3,0,5,1,H-,1,0,3,0,1000,250.0,0,c29pm,203,train
608.6609363555908,2,4,3,0,5,1,H-,1,1,5,0,1000,250.0,1,c29pm,204,train
1712.9440307617188,2,4,3,0,5,1,H-,1,4,1,0,1000,250.0,4,c29pm,205,train
1696.4058876037598,2,4,3,0,5,1,H-,1,1,5,0,1000,250.0,1,c29pm,206,train
881.2780380249023,2,4,3,0,5,1,H-,1,4,1,0,1000,250.0,4,c29pm,207,train
1248.5661506652832,2,4,3,0,5,1,H-,1,0,3,0,1000,250.0,0,c29pm,208,train
1776.3090133666992,2,4,3,0,5,1,H-,0,4,1,0,1000,250.0,5,c29pm,209,train
880.3479671478271,2,4,3,0,5,1,H-,1,3,2,0,1000,250.0,3,c29pm,210,train
976.3739109039307,2,4,3,0,5,1,H-,1,2,0,0,1000,250.0,2,c29pm,211,train
752.7768611907959,2,4,3,0,5,1,H-,1,3,2,0,1000,250.0,3,c29pm,212,train
2512.9270553588867,2,4,3,0,5,1,H-,1,2,0,0,1000,250.0,2,c29pm,213,train
784.6798896789551,2,4,3,0,5,1,H-,1,5,4,0,1000,250.0,5,c29pm,214,train
1216.75705909729,2,4,3,0,5,1,H-,1,1,5,0,1000,250.0,1,c29pm,215,train
2320.7640647888184,2,4,3,0,5,1,H-,1,3,2,0,1000,250.0,3,c29pm,216,train
497.12419509887695,2,4,3,0,5,1,H-,1,3,2,0,1000,250.0,3,c29pm,217,train
448.87304306030273,2,4,3,0,5,1,H-,1,3,2,0,1000,250.0,3,c29pm,218,train
544.2368984222412,2,4,3,0,5,1,H-,1,3,2,0,1000,250.0,3,c29pm,219,train
1025.0349044799805,2,4,3,0,5,1,H-,1,1,5,0,1000,250.0,1,c29pm,220,train
576.9848823547363,2,4,3,0,5,1,H-,1,1,5,0,1000,250.0,1,c29pm,221,train
512.3550891876221,2,4,3,0,5,1,H-,1,1,5,0,1000,250.0,1,c29pm,222,train
592.3879146575928,2,4,3,0,5,1,H-,1,5,4,0,1000,250.0,5,c29pm,223,train
768.9058780670166,2,4,3,0,5,1,H-,1,2,0,0,1000,250.0,2,c29pm,224,train
590.7330513000488,2,4,3,0,5,1,H-,1,0,3,0,1000,250.0,0,c29pm,225,train
688.9491081237793,2,4,3,0,5,1,H-,1,1,5,0,1000,250.0,1,c29pm,226,train
576.5440464019775,2,4,3,0,5,1,H-,1,5,4,0,1000,250.0,5,c29pm,227,train
1233.0148220062256,2,4,3,0,5,1,H-,1,3,2,0,1000,250.0,3,c29pm,228,train
1136.2650394439697,2,4,3,0,5,1,H-,1,0,3,0,1000,250.0,0,c29pm,229,train
672.6949214935303,2,4,3,0,5,1,H-,1,3,2,0,1000,250.0,3,c29pm,230,train
416.9490337371826,2,4,3,0,5,1,H-,1,3,2,0,1000,250.0,3,c29pm,231,train
511.69300079345703,2,4,3,0,5,1,H-,1,3,2,0,1000,250.0,3,c29pm,232,train
657.2108268737793,2,4,3,0,5,1,H-,1,2,0,0,1000,250.0,2,c29pm,233,train
497.2350597381592,2,4,3,0,5,1,H-,1,0,3,0,1000,250.0,0,c29pm,234,train
720.905065536499,2,4,3,0,5,1,H-,1,0,3,0,1000,250.0,0,c29pm,235,train
512.49098777771,2,4,3,0,5,1,H-,1,0,3,0,1000,250.0,0,c29pm,236,train
321.03896141052246,2,4,3,0,5,1,H-,1,0,3,0,1000,250.0,0,c29pm,237,train
864.7081851959229,2,4,3,0,5,1,H-,0,4,1,0,1000,250.0,5,c29pm,238,train
752.9549598693848,2,4,3,0,5,1,H-,1,0,3,0,1000,250.0,0,c29pm,239,train
689.5339488983154,2,4,3,0,5,1,H-,1,3,2,0,1000,250.0,3,c29pm,240,train
816.4451122283936,2,4,3,0,5,1,H-,1,1,5,0,1000,250.0,1,c29pm,241,train
432.92808532714844,2,4,3,0,5,1,H-,1,1,5,0,1000,250.0,1,c29pm,242,train
1056.4711093902588,2,4,3,0,5,1,H-,1,4,1,0,1000,250.0,4,c29pm,243,train
608.5801124572754,2,4,3,0,5,1,H-,1,3,2,0,1000,250.0,3,c29pm,244,train
592.379093170166,2,4,3,0,5,1,H-,1,3,2,0,1000,250.0,3,c29pm,245,train
449.01394844055176,2,4,3,0,5,1,H-,1,3,2,0,1000,250.0,3,c29pm,246,train
577.2080421447754,2,4,3,0,5,1,H-,1,5,4,0,1000,250.0,5,c29pm,247,train
624.3410110473633,2,4,3,0,5,1,H-,1,0,3,0,1000,250.0,0,c29pm,248,train
639.1191482543945,2,4,3,0,5,1,H-,1,2,0,0,1000,250.0,2,c29pm,249,train
6113.063812255859,5,2,0,3,4,1,H-,1,0,2,0,1000,250.0,0,c29pm,250,test
1824.2828845977783,5,2,0,3,4,1,H-,1,4,4,0,1000,250.0,4,c29pm,251,test
2016.2549018859863,5,2,0,3,4,1,H-,1,2,1,0,1000,250.0,2,c29pm,252,test
1040.531873703003,5,2,0,3,4,1,H-,1,1,5,0,1000,250.0,1,c29pm,253,test
688.8670921325684,5,2,0,3,4,1,H-,1,1,5,0,1000,250.0,1,c29pm,254,test
2160.714864730835,5,2,0,3,4,1,H-,1,0,2,0,1000,250.0,0,c29pm,255,test
1248.5949993133545,5,2,0,3,4,1,H-,1,2,1,0,1000,250.0,2,c29pm,256,test
2080.4648399353027,5,2,0,3,4,1,H-,1,5,0,0,1000,250.0,5,c29pm,257,test
2864.8011684417725,5,2,0,3,4,1,H-,1,3,3,0,1000,250.0,3,c29pm,258,test
1392.988920211792,5,2,0,3,4,1,H-,1,1,5,0,1000,250.0,1,c29pm,259,test
450.02102851867676,5,2,0,3,4,1,H-,1,1,5,0,1000,250.0,1,c29pm,260,test
1840.7888412475586,5,2,0,3,4,1,H-,1,2,1,0,1000,250.0,2,c29pm,261,test
1472.9359149932861,5,2,0,3,4,1,H-,1,1,5,0,1000,250.0,1,c29pm,262,test
2560.606002807617,5,2,0,3,4,1,H-,1,3,3,0,1000,250.0,3,c29pm,263,test
1312.591791152954,5,2,0,3,4,1,H-,1,4,4,0,1000,250.0,4,c29pm,264,test
1264.5699977874756,5,2,0,3,4,1,H-,1,1,5,0,1000,250.0,1,c29pm,265,test
1600.4300117492676,5,2,0,3,4,1,H-,1,2,1,0,1000,250.0,2,c29pm,266,test
849.0040302276611,5,2,0,3,4,1,H-,1,2,1,0,1000,250.0,2,c29pm,267,test
832.6520919799805,5,2,0,3,4,1,H-,1,1,5,0,1000,250.0,1,c29pm,268,test
2896.8429565429688,5,2,0,3,4,1,H-,1,5,0,0,1000,250.0,5,c29pm,269,test
1680.4430484771729,5,2,0,3,4,1,H-,1,2,1,0,1000,250.0,2,c29pm,270,test
720.7119464874268,5,2,0,3,4,1,H-,1,1,5,0,1000,250.0,1,c29pm,271,test
1232.787847518921,5,2,0,3,4,1,H-,1,2,1,0,1000,250.0,2,c29pm,272,test
720.5989360809326,5,2,0,3,4,1,H-,0,4,4,0,1000,250.0,5,c29pm,273,test
2656.7258834838867,5,2,0,3,4,1,H-,1,3,3,0,1000,250.0,3,c29pm,274,test
848.4420776367188,5,2,0,3,4,1,H-,1,4,4,0,1000,250.0,4,c29pm,275,test
1168.7688827514648,5,2,0,3,4,1,H-,1,0,2,0,1000,250.0,0,c29pm,276,test
737.0390892028809,5,2,0,3,4,1,H-,1,4,4,0,1000,250.0,4,c29pm,277,test
496.60706520080566,5,2,0,3,4,1,H-,1,4,4,0,1000,250.0,4,c29pm,278,test
3328.6778926849365,5,2,0,3,4,1,H-,1,5,0,0,1000,250.0,5,c29pm,279,test
1888.6370658874512,5,2,0,3,4,1,H-,1,3,3,0,1000,250.0,3,c29pm,280,test
608.3099842071533,5,2,0,3,4,1,H-,1,3,3,0,1000,250.0,3,c29pm,281,test
1152.2362232208252,5,2,0,3,4,1,H-,1,2,1,0,1000,250.0,2,c29pm,282,test
975.7800102233887,5,2,0,3,4,1,H-,1,4,4,0,1000,250.0,4,c29pm,283,test
544.6679592132568,5,2,0,3,4,1,H-,1,4,4,0,1000,250.0,4,c29pm,284,test
464.296817779541,5,2,0,3,4,1,H-,1,4,4,0,1000,250.0,4,c29pm,285,test
576.4079093933105,5,2,0,3,4,1,H-,0,0,2,0,1000,250.0,2,c29pm,286,test
832.5259685516357,5,2,0,3,4,1,H-,1,4,4,0,1000,250.0,4,c29pm,287,test
704.4758796691895,5,2,0,3,4,1,H-,0,3,3,0,1000,250.0,1,c29pm,288,test
688.3819103240967,5,2,0,3,4,1,H-,1,0,2,0,1000,250.0,0,c29pm,289,test
1984.4398498535156,5,2,0,3,4,1,H-,1,3,3,0,1000,250.0,3,c29pm,290,test
400.2969264984131,5,2,0,3,4,1,H-,1,3,3,0,1000,250.0,3,c29pm,291,test
464.9648666381836,5,2,0,3,4,1,H-,1,3,3,0,1000,250.0,3,c29pm,292,test
1281.059980392456,5,2,0,3,4,1,H-,1,5,0,0,1000,250.0,5,c29pm,293,test
640.2020454406738,5,2,0,3,4,1,H-,1,4,4,0,1000,250.0,4,c29pm,294,test
1968.5499668121338,5,2,0,3,4,1,H-,1,2,1,0,1000,250.0,2,c29pm,295,test
976.1910438537598,5,2,0,3,4,1,H-,1,1,5,0,1000,250.0,1,c29pm,296,test
1536.9579792022705,5,2,0,3,4,1,H-,0,3,3,0,1000,250.0,4,c29pm,297,test
1089.048147201538,5,2,0,3,4,1,H-,1,5,0,0,1000,250.0,5,c29pm,298,test
623.8119602203369,5,2,0,3,4,1,H-,1,0,2,0,1000,250.0,0,c29pm,299,test
1552.5100231170654,5,2,0,3,4,1,H-,1,2,1,0,1000,250.0,2,c29pm,300,test
561.0148906707764,5,2,0,3,4,1,H-,1,2,1,0,1000,250.0,2,c29pm,301,test
464.3750190734863,5,2,0,3,4,1,H-,1,2,1,0,1000,250.0,2,c29pm,302,test
1024.3110656738281,5,2,0,3,4,1,H-,1,1,5,0,1000,250.0,1,c29pm,303,test
878.9188861846924,5,2,0,3,4,1,H-,1,0,2,0,1000,250.0,0,c29pm,304,test
621.8650341033936,5,2,0,3,4,1,H-,1,1,5,0,1000,250.0,1,c29pm,305,test
2560.791015625,5,2,0,3,4,1,H-,1,3,3,0,1000,250.0,3,c29pm,306,test
720.8409309387207,5,2,0,3,4,1,H-,1,1,5,0,1000,250.0,1,c29pm,307,test
672.7340221405029,5,2,0,3,4,1,H-,1,0,2,0,1000,250.0,0,c29pm,308,test
592.2918319702148,5,2,0,3,4,1,H-,1,0,2,0,1000,250.0,0,c29pm,309,test
2736.219882965088,5,2,0,3,4,1,H-,1,3,3,0,1000,250.0,3,c29pm,310,test
544.2349910736084,5,2,0,3,4,1,H-,0,4,4,0,1000,250.0,5,c29pm,311,test
608.6239814758301,5,2,0,3,4,1,H-,1,4,4,0,1000,250.0,4,c29pm,312,test
878.6349296569824,5,2,0,3,4,1,H-,1,5,0,0,1000,250.0,5,c29pm,313,test
352.65588760375977,5,2,0,3,4,1,H-,1,5,0,0,1000,250.0,5,c29pm,314,test
3088.844060897827,5,2,0,3,4,1,H-,1,2,1,0,1000,250.0,2,c29pm,315,test
3072.3931789398193,5,2,0,3,4,1,H-,1,3,3,0,1000,250.0,3,c29pm,316,test
625.0860691070557,5,2,0,3,4,1,H-,1,0,2,0,1000,250.0,0,c29pm,317,test
864.96901512146,5,2,0,3,4,1,H-,1,1,5,0,1000,250.0,1,c29pm,318,test
1472.6428985595703,5,2,0,3,4,1,H-,1,5,0,0,1000,250.0,5,c29pm,319,test
1536.3759994506836,5,2,0,3,4,1,H-,1,1,5,0,1000,250.0,1,c29pm,320,test
881.4990520477295,5,2,0,3,4,1,H-,0,4,4,0,1000,250.0,5,c29pm,321,test
864.7410869598389,5,2,0,3,4,1,H-,1,2,1,0,1000,250.0,2,c29pm,322,test
784.2459678649902,5,2,0,3,4,1,H-,1,5,0,0,1000,250.0,5,c29pm,323,test
784.6331596374512,5,2,0,3,4,1,H-,1,4,4,0,1000,250.0,4,c29pm,324,test
736.7432117462158,5,2,0,3,4,1,H-,1,0,2,0,1000,250.0,0,c29pm,325,test
848.2751846313477,5,2,0,3,4,1,H-,1,1,5,0,1000,250.0,1,c29pm,326,test
784.311056137085,5,2,0,3,4,1,H-,1,1,5,0,1000,250.0,1,c29pm,327,test
2064.2669200897217,5,2,0,3,4,1,H-,1,3,3,0,1000,250.0,3,c29pm,328,test
1440.2720928192139,5,2,0,3,4,1,H-,1,2,1,0,1000,250.0,2,c29pm,329,test
736.3591194152832,5,2,0,3,4,1,H-,1,1,5,0,1000,250.0,1,c29pm,330,test
671.6630458831787,5,2,0,3,4,1,H-,1,5,0,0,1000,250.0,5,c29pm,331,test
1536.9188785552979,5,2,0,3,4,1,H-,1,3,3,0,1000,250.0,3,c29pm,332,test
720.0751304626465,5,2,0,3,4,1,H-,1,0,2,0,1000,250.0,0,c29pm,333,test
1904.325008392334,5,2,0,3,4,1,H-,1,4,4,0,1000,250.0,4,c29pm,334,test
1872.4391460418701,5,2,0,3,4,1,H-,1,4,4,0,1000,250.0,4,c29pm,335,test
593.0190086364746,5,2,0,3,4,1,H-,1,4,4,0,1000,250.0,4,c29pm,336,test
656.592845916748,5,2,0,3,4,1,H-,1,0,2,0,1000,250.0,0,c29pm,337,test
944.6539878845215,5,2,0,3,4,1,H-,1,1,5,0,1000,250.0,1,c29pm,338,test
592.4577713012695,5,2,0,3,4,1,H-,1,1,5,0,1000,250.0,1,c29pm,339,test
768.441915512085,5,2,0,3,4,1,H-,1,4,4,0,1000,250.0,4,c29pm,340,test
2928.557872772217,5,2,0,3,4,1,H-,1,5,0,0,1000,250.0,5,c29pm,341,test
592.6859378814697,5,2,0,3,4,1,H-,1,0,2,0,1000,250.0,0,c29pm,342,test
720.4248905181885,5,2,0,3,4,1,H-,1,4,4,0,1000,250.0,4,c29pm,343,test
2032.7417850494385,5,2,0,3,4,1,H-,1,3,3,0,1000,250.0,3,c29pm,344,test
560.1279735565186,5,2,0,3,4,1,H-,1,0,2,0,1000,250.0,0,c29pm,345,test
1680.7429790496826,5,2,0,3,4,1,H-,1,2,1,0,1000,250.0,2,c29pm,346,test
1008.3608627319336,5,2,0,3,4,1,H-,1,2,1,0,1000,250.0,2,c29pm,347,test
848.6340045928955,5,2,0,3,4,1,H-,1,1,5,0,1000,250.0,1,c29pm,348,test
560.3640079498291,5,2,0,3,4,1,H-,1,1,5,0,1000,250.0,1,c29pm,349,test
1840.8839702606201,5,2,0,3,4,1,H-,1,3,3,0,1000,250.0,3,c29pm,350,test
1248.5840320587158,5,2,0,3,4,1,H-,1,0,2,0,1000,250.0,0,c29pm,351,test
1904.0460586547852,5,2,0,3,4,1,H-,1,2,1,0,1000,250.0,2,c29pm,352,test
1616.4259910583496,5,2,0,3,4,1,H-,1,5,0,0,1000,250.0,5,c29pm,353,test
1136.073112487793,5,2,0,3,4,1,H-,1,0,2,0,1000,250.0,0,c29pm,354,test
1200.3810405731201,5,2,0,3,4,1,H-,1,4,4,0,1000,250.0,4,c29pm,355,test
1646.4221477508545,5,2,0,3,4,1,H-,1,0,2,0,1000,250.0,0,c29pm,356,test
1937.0858669281006,5,2,0,3,4,1,H-,1,3,3,0,1000,250.0,3,c29pm,357,test
1248.4731674194336,5,2,0,3,4,1,H-,1,0,2,0,1000,250.0,0,c29pm,358,test
1233.036994934082,5,2,0,3,4,1,H-,0,5,0,0,1000,250.0,4,c29pm,359,test
800.6560802459717,5,2,0,3,4,1,H-,1,4,4,0,1000,250.0,4,c29pm,360,test
1408.8160991668701,5,2,0,3,4,1,H-,1,3,3,0,1000,250.0,3,c29pm,361,test
688.8718605041504,5,2,0,3,4,1,H-,1,4,4,0,1000,250.0,4,c29pm,362,test
608.659029006958,5,2,0,3,4,1,H-,1,0,2,0,1000,250.0,0,c29pm,363,test
672.8899478912354,5,2,0,3,4,1,H-,1,5,0,0,1000,250.0,5,c29pm,364,test
640.3980255126953,5,2,0,3,4,1,H-,1,4,4,0,1000,250.0,4,c29pm,365,test
960.4051113128662,5,2,0,3,4,1,H-,1,3,3,0,1000,250.0,3,c29pm,366,test
880.2151679992676,5,2,0,3,4,1,H-,1,2,1,0,1000,250.0,2,c29pm,367,test
560.3458881378174,5,2,0,3,4,1,H-,1,0,2,0,1000,250.0,0,c29pm,368,test
368.5770034790039,5,2,0,3,4,1,H-,1,1,5,0,1000,250.0,1,c29pm,369,test
432.80911445617676,5,2,0,3,4,1,H-,1,1,5,0,1000,250.0,1,c29pm,370,test
513.1330490112305,5,2,0,3,4,1,H-,1,0,2,0,1000,250.0,0,c29pm,371,test
800.2510070800781,5,2,0,3,4,1,H-,0,4,4,0,1000,250.0,5,c29pm,372,test
608.6380481719971,5,2,0,3,4,1,H-,1,5,0,0,1000,250.0,5,c29pm,373,test
624.9821186065674,5,2,0,3,4,1,H-,1,0,2,0,1000,250.0,0,c29pm,374,test
928.4830093383789,5,2,0,3,4,1,H-,1,5,0,0,1000,250.0,5,c29pm,375,test
512.9640102386475,5,2,0,3,4,1,H-,1,0,2,0,1000,250.0,0,c29pm,376,test
688.1380081176758,5,2,0,3,4,1,H-,1,5,0,0,1000,250.0,5,c29pm,377,test
430.54699897766113,5,2,0,3,4,1,H-,1,5,0,0,1000,250.0,5,c29pm,378,test
592.6620960235596,5,2,0,3,4,1,H-,1,4,4,0,1000,250.0,4,c29pm,379,test
1294.734001159668,5,2,0,3,4,1,H-,1,2,1,0,1000,250.0,2,c29pm,380,test
561.0649585723877,5,2,0,3,4,1,H-,1,0,2,0,1000,250.0,0,c29pm,381,test
1408.130168914795,5,2,0,3,4,1,H-,1,4,4,0,1000,250.0,4,c29pm,382,test
672.4121570587158,5,2,0,3,4,1,H-,1,1,5,0,1000,250.0,1,c29pm,383,test
782.8550338745117,5,2,0,3,4,1,H-,1,5,0,0,1000,250.0,5,c29pm,384,test
704.5528888702393,5,2,0,3,4,1,H-,1,4,4,0,1000,250.0,4,c29pm,385,test
686.5200996398926,5,2,0,3,4,1,H-,1,5,0,0,1000,250.0,5,c29pm,386,test
1280.2231311798096,5,2,0,3,4,1,H-,1,1,5,0,1000,250.0,1,c29pm,387,test
496.168851852417,5,2,0,3,4,1,H-,0,5,0,0,1000,250.0,1,c29pm,388,test
1664.492130279541,5,2,0,3,4,1,H-,1,2,1,0,1000,250.0,2,c29pm,389,test
1360.2111339569092,5,2,0,3,4,1,H-,0,3,3,0,1000,250.0,4,c29pm,390,test
673.0561256408691,5,2,0,3,4,1,H-,1,0,2,0,1000,250.0,0,c29pm,391,test
544.327974319458,5,2,0,3,4,1,H-,1,0,2,0,1000,250.0,0,c29pm,392,test
1311.8929862976074,5,2,0,3,4,1,H-,1,3,3,0,1000,250.0,3,c29pm,393,test
590.6379222869873,5,2,0,3,4,1,H-,1,3,3,0,1000,250.0,3,c29pm,394,test
909.3959331512451,5,2,0,3,4,1,H-,1,4,4,0,1000,250.0,4,c29pm,395,test
639.8379802703857,5,2,0,3,4,1,H-,1,0,2,0,1000,250.0,0,c29pm,396,test
624.5920658111572,5,2,0,3,4,1,H-,1,0,2,0,1000,250.0,0,c29pm,397,test
432.6801300048828,5,2,0,3,4,1,H-,1,0,2,0,1000,250.0,0,c29pm,398,test
3070.7170963287354,5,2,0,3,4,1,H-,1,2,1,0,1000,250.0,2,c29pm,399,test
880.669116973877,5,2,0,3,4,1,H-,1,1,5,0,1000,250.0,1,c29pm,400,test
814.4738674163818,5,2,0,3,4,1,H-,1,5,0,0,1000,250.0,5,c29pm,401,test
1024.346113204956,5,2,0,3,4,1,H-,1,1,5,0,1000,250.0,1,c29pm,402,test
1152.2328853607178,5,2,0,3,4,1,H-,1,4,4,0,1000,250.0,4,c29pm,403,test
3184.7541332244873,5,2,0,3,4,1,H-,1,0,2,0,1000,250.0,0,c29pm,404,test
1456.178903579712,5,2,0,3,4,1,H-,1,5,0,0,1000,250.0,5,c29pm,405,test
624.2430210113525,5,2,0,3,4,1,H-,1,0,2,0,1000,250.0,0,c29pm,406,test
432.1157932281494,5,2,0,3,4,1,H-,1,0,2,0,1000,250.0,0,c29pm,407,test
1504.4820308685303,5,2,0,3,4,1,H-,1,3,3,0,1000,250.0,3,c29pm,408,test
560.157060623169,5,2,0,3,4,1,H-,1,0,2,0,1000,250.0,0,c29pm,409,test
1008.1849098205566,5,2,0,3,4,1,H-,1,1,5,0,1000,250.0,1,c29pm,410,test
1487.2410297393799,5,2,0,3,4,1,H-,1,3,3,0,1000,250.0,3,c29pm,411,test
1888.1988525390625,5,2,0,3,4,1,H-,1,2,1,0,1000,250.0,2,c29pm,412,test
1344.5749282836914,5,2,0,3,4,1,H-,1,4,4,0,1000,250.0,4,c29pm,413,test
1664.9761199951172,5,2,0,3,4,1,H-,1,3,3,0,1000,250.0,3,c29pm,414,test
800.6460666656494,5,2,0,3,4,1,H-,1,3,3,0,1000,250.0,3,c29pm,415,test
912.574052810669,5,2,0,3,4,1,H-,1,4,4,0,1000,250.0,4,c29pm,416,test
816.2720203399658,5,2,0,3,4,1,H-,1,3,3,0,1000,250.0,3,c29pm,417,test
737.2150421142578,5,2,0,3,4,1,H-,1,1,5,0,1000,250.0,1,c29pm,418,test
1680.2880764007568,5,2,0,3,4,1,H-,1,1,5,0,1000,250.0,1,c29pm,419,test
2576.4849185943604,5,2,0,3,4,1,H-,1,3,3,0,1000,250.0,3,c29pm,420,test
816.4379596710205,5,2,0,3,4,1,H-,1,1,5,0,1000,250.0,1,c29pm,421,test
993.0541515350342,5,2,0,3,4,1,H-,1,4,4,0,1000,250.0,4,c29pm,422,test
1712.5139236450195,5,2,0,3,4,1,H-,1,3,3,0,1000,250.0,3,c29pm,423,test
1136.415958404541,5,2,0,3,4,1,H-,1,5,0,0,1000,250.0,5,c29pm,424,test
2464.622974395752,5,2,0,3,4,1,H-,1,3,3,0,1000,250.0,3,c29pm,425,test
750.662088394165,5,2,0,3,4,1,H-,1,4,4,0,1000,250.0,4,c29pm,426,test
912.1310710906982,5,2,0,3,4,1,H-,1,5,0,0,1000,250.0,5,c29pm,427,test
832.507848739624,5,2,0,3,4,1,H-,1,5,0,0,1000,250.0,5,c29pm,428,test
912.3070240020752,5,2,0,3,4,1,H-,1,1,5,0,1000,250.0,1,c29pm,429,test
1552.1600246429443,5,2,0,3,4,1,H-,1,3,3,0,1000,250.0,3,c29pm,430,test
752.3889541625977,5,2,0,3,4,1,H-,1,3,3,0,1000,250.0,3,c29pm,431,test
1744.9569702148438,5,2,0,3,4,1,H-,1,2,1,0,1000,250.0,2,c29pm,432,test
448.4400749206543,5,2,0,3,4,1,H-,1,2,1,0,1000,250.0,2,c29pm,433,test
608.5000038146973,5,2,0,3,4,1,H-,1,4,4,0,1000,250.0,4,c29pm,434,test
544.4209575653076,5,2,0,3,4,1,H-,1,0,2,0,1000,250.0,0,c29pm,435,test
384.052038192749,5,2,0,3,4,1,H-,1,0,2,0,1000,250.0,0,c29pm,436,test
720.4360961914062,5,2,0,3,4,1,H-,1,5,0,0,1000,250.0,5,c29pm,437,test
1375.6699562072754,5,2,0,3,4,1,H-,1,2,1,0,1000,250.0,2,c29pm,438,test
832.1108818054199,5,2,0,3,4,1,H-,1,3,3,0,1000,250.0,3,c29pm,439,test
960.6859683990479,5,2,0,3,4,1,H-,1,1,5,0,1000,250.0,1,c29pm,440,test
1024.4600772857666,5,2,0,3,4,1,H-,1,4,4,0,1000,250.0,4,c29pm,441,test
976.1521816253662,5,2,0,3,4,1,H-,1,2,1,0,1000,250.0,2,c29pm,442,test
736.2611293792725,5,2,0,3,4,1,H-,1,4,4,0,1000,250.0,4,c29pm,443,test
528.9459228515625,5,2,0,3,4,1,H-,1,0,2,0,1000,250.0,0,c29pm,444,test
512.2401714324951,5,2,0,3,4,1,H-,1,0,2,0,1000,250.0,0,c29pm,445,test
1632.1580410003662,5,2,0,3,4,1,H-,1,3,3,0,1000,250.0,3,c29pm,446,test
592.1809673309326,5,2,0,3,4,1,H-,1,1,5,0,1000,250.0,1,c29pm,447,test
400.6061553955078,5,2,0,3,4,1,H-,1,1,5,0,1000,250.0,1,c29pm,448,test
592.6659107208252,5,2,0,3,4,1,H-,1,0,2,0,1000,250.0,0,c29pm,449,test
1264.5719051361084,5,2,0,3,4,1,H-,1,2,1,0,1000,250.0,2,c29pm,450,test
624.5429515838623,5,2,0,3,4,1,H-,1,4,4,0,1000,250.0,4,c29pm,451,test
656.2991142272949,5,2,0,3,4,1,H-,1,0,2,0,1000,250.0,0,c29pm,452,test
720.4568386077881,5,2,0,3,4,1,H-,1,5,0,0,1000,250.0,5,c29pm,453,test
624.2611408233643,5,2,0,3,4,1,H-,1,1,5,0,1000,250.0,1,c29pm,454,test
479.21204566955566,5,2,0,3,4,1,H-,1,1,5,0,1000,250.0,1,c29pm,455,test
721.0829257965088,5,2,0,3,4,1,H-,1,4,4,0,1000,250.0,4,c29pm,456,test
592.4351215362549,5,2,0,3,4,1,H-,1,0,2,0,1000,250.0,0,c29pm,457,test
1728.477954864502,5,2,0,3,4,1,H-,1,3,3,0,1000,250.0,3,c29pm,458,test
718.5909748077393,5,2,0,3,4,1,H-,1,1,5,0,1000,250.0,1,c29pm,459,test
592.2329425811768,5,2,0,3,4,1,H-,1,5,0,0,1000,250.0,5,c29pm,460,test
640.6588554382324,5,2,0,3,4,1,H-,1,4,4,0,1000,250.0,4,c29pm,461,test
512.779951095581,5,2,0,3,4,1,H-,1,4,4,0,1000,250.0,4,c29pm,462,test
1438.506841659546,5,2,0,3,4,1,H-,1,3,3,0,1000,250.0,3,c29pm,463,test
752.4421215057373,5,2,0,3,4,1,H-,1,1,5,0,1000,250.0,1,c29pm,464,test
622.6229667663574,5,2,0,3,4,1,H-,1,4,4,0,1000,250.0,4,c29pm,465,test
1536.4048480987549,5,2,0,3,4,1,H-,1,3,3,0,1000,250.0,3,c29pm,466,test
784.4870090484619,5,2,0,3,4,1,H-,1,4,4,0,1000,250.0,4,c29pm,467,test
544.3120002746582,5,2,0,3,4,1,H-,1,0,2,0,1000,250.0,0,c29pm,468,test
847.2778797149658,5,2,0,3,4,1,H-,1,2,1,0,1000,250.0,2,c29pm,469,test
1376.4100074768066,5,2,0,3,4,1,H-,1,3,3,0,1000,250.0,3,c29pm,470,test
1136.2318992614746,5,2,0,3,4,1,H-,1,2,1,0,1000,250.0,2,c29pm,471,test
574.836015701294,5,2,0,3,4,1,H-,1,4,4,0,1000,250.0,4,c29pm,472,test
720.1120853424072,5,2,0,3,4,1,H-,1,2,1,0,1000,250.0,2,c29pm,473,test
448.18615913391113,5,2,0,3,4,1,H-,1,2,1,0,1000,250.0,2,c29pm,474,test
560.8489513397217,5,2,0,3,4,1,H-,1,4,4,0,1000,250.0,4,c29pm,475,test
1360.4259490966797,5,2,0,3,4,1,H-,0,3,3,0,1000,250.0,4,c29pm,476,test
720.2150821685791,5,2,0,3,4,1,H-,1,0,2,0,1000,250.0,0,c29pm,477,test
1968.2669639587402,5,2,0,3,4,1,H-,1,3,3,0,1000,250.0,3,c29pm,478,test
1952.458143234253,5,2,0,3,4,1,H-,1,5,0,0,1000,250.0,5,c29pm,479,test
560.2869987487793,5,2,0,3,4,1,H-,1,0,2,0,1000,250.0,0,c29pm,480,test
496.14620208740234,5,2,0,3,4,1,H-,1,0,2,0,1000,250.0,0,c29pm,481,test
960.3061676025391,5,2,0,3,4,1,H-,1,5,0,0,1000,250.0,5,c29pm,482,test
926.5410900115967,5,2,0,3,4,1,H-,1,4,4,0,1000,250.0,4,c29pm,483,test
639.9929523468018,5,2,0,3,4,1,H-,1,4,4,0,1000,250.0,4,c29pm,484,test
1488.1420135498047,5,2,0,3,4,1,H-,1,3,3,0,1000,250.0,3,c29pm,485,test
736.968994140625,5,2,0,3,4,1,H-,1,3,3,0,1000,250.0,3,c29pm,486,test
480.42798042297363,5,2,0,3,4,1,H-,1,3,3,0,1000,250.0,3,c29pm,487,test
608.2279682159424,5,2,0,3,4,1,H-,1,4,4,0,1000,250.0,4,c29pm,488,test
544.666051864624,5,2,0,3,4,1,H-,1,0,2,0,1000,250.0,0,c29pm,489,test
816.1759376525879,5,2,0,3,4,1,H-,1,4,4,0,1000,250.0,4,c29pm,490,test
784.3818664550781,5,2,0,3,4,1,H-,1,4,4,0,1000,250.0,4,c29pm,491,test
640.261173248291,5,2,0,3,4,1,H-,1,0,2,0,1000,250.0,0,c29pm,492,test
928.5299777984619,5,2,0,3,4,1,H-,1,1,5,0,1000,250.0,1,c29pm,493,test
1136.2550258636475,5,2,0,3,4,1,H-,1,0,2,0,1000,250.0,0,c29pm,494,test
1712.589979171753,5,2,0,3,4,1,H-,1,3,3,0,1000,250.0,3,c29pm,495,test
880.3699016571045,5,2,0,3,4,1,H-,1,2,1,0,1000,250.0,2,c29pm,496,test
896.6109752655029,5,2,0,3,4,1,H-,1,5,0,0,1000,250.0,5,c29pm,497,test
560.3480339050293,5,2,0,3,4,1,H-,1,0,2,0,1000,250.0,0,c29pm,498,test
864.886999130249,5,2,0,3,4,1,H-,1,1,5,0,1000,250.0,1,c29pm,499,test
