RT,SRmap_0,SRmap_1,SRmap_2,SRmap_3,SRmap_4,SRmap_5,condition,correct,correct_response,curstim,ms-precue,ms-prestimblank,ntrials,response,subject,trial,type
1232.8319549560547,4,2,0,5,1,3,M,1,1,4,0,1000,250.0,1,d12bw,0,train
592.9679870605469,4,2,0,5,1,3,M,1,0,2,0,1000,250.0,0,d12bw,1,train
688.6129379272461,4,2,0,5,1,3,M,1,5,3,0,1000,250.0,5,d12bw,2,train
672.4438667297363,4,2,0,5,1,3,M,1,4,0,0,1000,250.0,4,d12bw,3,train
640.4240131378174,4,2,0,5,1,3,M,0,2,1,0,1000,250.0,1,d12bw,4,train
816.551923751831,4,2,0,5,1,3,M,1,4,0,0,1000,250.0,4,d12bw,5,train
736.5310192108154,4,2,0,5,1,3,M,1,3,5,0,1000,250.0,3,d12bw,6,train
608.5019111633301,4,2,0,5,1,3,M,1,1,4,0,1000,250.0,1,d12bw,7,train
560.5320930480957,4,2,0,5,1,3,M,0,3,5,0,1000,250.0,4,d12bw,8,train
720.5569744110107,4,2,0,5,1,3,M,0,2,1,0,1000,250.0,3,d12bw,9,train
912.5809669494629,4,2,0,5,1,3,M,1,3,5,0,1000,250.0,3,d12bw,10,train
672.5518703460693,4,2,0,5,1,3,M,1,1,4,0,1000,250.0,1,d12bw,11,train
560.5318546295166,4,2,0,5,1,3,M,1,2,1,0,1000,250.0,2,d12bw,12,train
576.524019241333,4,2,0,5,1,3,M,1,5,3,0,1000,250.0,5,d12bw,13,train
624.4809627532959,4,2,0,5,1,3,M,1,4,0,0,1000,250.0,4,d12bw,14,train
752.5129318237305,4,2,0,5,1,3,M,1,4,0,0,1000,250.0,4,d12bw,15,train
512.8190517425537,4,2,0,5,1,3,M,1,1,4,0,1000,250.0,1,d12bw,16,train
560.4510307312012,4,2,0,5,1,3,M,1,2,1,0,1000,250.0,2,d12bw,17,train
512.5081539154053,4,2,0,5,1,3,M,1,5,3,0,1000,250.0,5,d12bw,18,train
464.4818305969238,4,2,0,5,1,3,M,1,5,3,0,1000,250.0,5,d12bw,19,train
481.0450077056885,4,2,0,5,1,3,M,1,0,2,0,1000,250.0,0,d12bw,20,train
705.071210861206,4,2,0,5,1,3,M,1,2,1,0,1000,250.0,2,d12bw,21,train
481.1358451843262,4,2,0,5,1,3,M,1,0,2,0,1000,250.0,0,d12bw,22,train
801.1250495910645,4,2,0,5,1,3,M,0,3,5,0,1000,250.0,5,d12bw,23,train
545.0217723846436,4,2,0,5,1,3,M,1,5,3,0,1000,250.0,5,d12bw,24,train
721.0688591003418,4,2,0,5,1,3,M,1,1,4,0,1000,250.0,1,d12bw,25,train
593.0280685424805,4,2,0,5,1,3,M,1,1,4,0,1000,250.0,1,d12bw,26,train
785.0890159606934,4,2,0,5,1,3,M,1,4,0,0,1000,250.0,4,d12bw,27,train
1008.9230537414551,4,2,0,5,1,3,M,1,3,5,0,1000,250.0,3,d12bw,28,train
577.0840644836426,4,2,0,5,1,3,M,1,4,0,0,1000,250.0,4,d12bw,29,train
529.1080474853516,4,2,0,5,1,3,M,1,3,5,0,1000,250.0,3,d12bw,30,train
609.001874923706,4,2,0,5,1,3,M,1,5,3,0,1000,250.0,5,d12bw,31,train
481.0030460357666,4,2,0,5,1,3,M,1,5,3,0,1000,250.0,5,d12bw,32,train
512.5350952148438,4,2,0,5,1,3,M,1,4,0,0,1000,250.0,4,d12bw,33,train
1280.4298400878906,4,2,0,5,1,3,M,1,3,5,0,1000,250.0,3,d12bw,34,train
1136.5301609039307,4,2,0,5,1,3,M,1,2,1,0,1000,250.0,2,d12bw,35,train
960.5851173400879,4,2,0,5,1,3,M,1,4,0,0,1000,250.0,4,d12bw,36,train
576.5120983123779,4,2,0,5,1,3,M,1,0,2,0,1000,250.0,0,d12bw,37,train
544.4698333740234,4,2,0,5,1,3,M,1,2,1,0,1000,250.0,2,d12bw,38,train
560.4240894317627,4,2,0,5,1,3,M,1,2,1,0,1000,250.0,2,d12bw,39,train
496.47021293640137,4,2,0,5,1,3,M,1,1,4,0,1000,250.0,1,d12bw,40,train
592.4668312072754,4,2,0,5,1,3,M,1,5,3,0,1000,250.0,5,d12bw,41,train
800.4610538482666,4,2,0,5,1,3,M,1,3,5,0,1000,250.0,3,d12bw,42,train
432.5129985809326,4,2,0,5,1,3,M,1,1,4,0,1000,250.0,1,d12bw,43,train
496.31214141845703,4,2,0,5,1,3,M,0,3,5,0,1000,250.0,2,d12bw,44,train
720.4768657684326,4,2,0,5,1,3,M,1,2,1,0,1000,250.0,2,d12bw,45,train
496.39201164245605,4,2,0,5,1,3,M,1,2,1,0,1000,250.0,2,d12bw,46,train
608.4940433502197,4,2,0,5,1,3,M,1,4,0,0,1000,250.0,4,d12bw,47,train
640.5849456787109,4,2,0,5,1,3,M,1,5,3,0,1000,250.0,5,d12bw,48,train
544.511079788208,4,2,0,5,1,3,M,1,4,0,0,1000,250.0,4,d12bw,49,train
432.85608291625977,4,2,0,5,1,3,M,1,0,2,0,1000,250.0,0,d12bw,50,train
896.4309692382812,4,2,0,5,1,3,M,1,4,0,0,1000,250.0,4,d12bw,51,train
736.4060878753662,4,2,0,5,1,3,M,1,4,0,0,1000,250.0,4,d12bw,52,train
384.4900131225586,4,2,0,5,1,3,M,1,0,2,0,1000,250.0,0,d12bw,53,train
400.47502517700195,4,2,0,5,1,3,M,1,1,4,0,1000,250.0,1,d12bw,54,train
816.5051937103271,4,2,0,5,1,3,M,1,4,0,0,1000,250.0,4,d12bw,55,train
464.5509719848633,4,2,0,5,1,3,M,1,5,3,0,1000,250.0,5,d12bw,56,train
640.4740810394287,4,2,0,5,1,3,M,1,2,1,0,1000,250.0,2,d12bw,57,train
368.6189651489258,4,2,0,5,1,3,M,1,0,2,0,1000,250.0,0,d12bw,58,train
496.6111183166504,4,2,0,5,1,3,M,1,4,0,0,1000,250.0,4,d12bw,59,train
480.9141159057617,4,2,0,5,1,3,M,1,5,3,0,1000,250.0,5,d12bw,60,train
384.5400810241699,4,2,0,5,1,3,M,1,5,3,0,1000,250.0,5,d12bw,61,train
416.5151119232178,4,2,0,5,1,3,M,1,5,3,0,1000,250.0,5,d12bw,62,train
432.4650764465332,4,2,0,5,1,3,M,1,0,2,0,1000,250.0,0,d12bw,63,train
480.53908348083496,4,2,0,5,1,3,M,1,5,3,0,1000,250.0,5,d12bw,64,train
1088.582992553711,4,2,0,5,1,3,M,1,3,5,0,1000,250.0,3,d12bw,65,train
464.54787254333496,4,2,0,5,1,3,M,1,5,3,0,1000,250.0,5,d12bw,66,train
496.596097946167,4,2,0,5,1,3,M,0,3,5,0,1000,250.0,5,d12bw,67,train
480.49116134643555,4,2,0,5,1,3,M,1,5,3,0,1000,250.0,5,d12bw,68,train
416.8529510498047,4,2,0,5,1,3,M,1,5,3,0,1000,250.0,5,d12bw,69,train
400.64215660095215,4,2,0,5,1,3,M,1,5,3,0,1000,250.0,5,d12bw,70,train
480.5741310119629,4,2,0,5,1,3,M,1,0,2,0,1000,250.0,0,d12bw,71,train
496.4752197265625,4,2,0,5,1,3,M,1,1,4,0,1000,250.0,1,d12bw,72,train
928.6789894104004,4,2,0,5,1,3,M,1,3,5,0,1000,250.0,3,d12bw,73,train
624.6790885925293,4,2,0,5,1,3,M,1,1,4,0,1000,250.0,1,d12bw,74,train
544.5389747619629,4,2,0,5,1,3,M,1,4,0,0,1000,250.0,4,d12bw,75,train
448.59790802001953,4,2,0,5,1,3,M,1,4,0,0,1000,250.0,4,d12bw,76,train
464.5979404449463,4,2,0,5,1,3,M,1,0,2,0,1000,250.0,0,d12bw,77,train
576.5199661254883,4,2,0,5,1,3,M,1,2,1,0,1000,250.0,2,d12bw,78,train
480.5939197540283,4,2,0,5,1,3,M,1,2,1,0,1000,250.0,2,d12bw,79,train
496.5810775756836,4,2,0,5,1,3,M,1,1,4,0,1000,250.0,1,d12bw,80,train
448.5139846801758,4,2,0,5,1,3,M,1,2,1,0,1000,250.0,2,d12bw,81,train
1264.543056488037,4,2,0,5,1,3,M,0,4,0,0,1000,250.0,3,d12bw,82,train
480.44395446777344,4,2,0,5,1,3,M,1,5,3,0,1000,250.0,5,d12bw,83,train
480.58009147644043,4,2,0,5,1,3,M,1,5,3,0,1000,250.0,5,d12bw,84,train
400.53796768188477,4,2,0,5,1,3,M,1,5,3,0,1000,250.0,5,d12bw,85,train
704.6070098876953,4,2,0,5,1,3,M,1,2,1,0,1000,250.0,2,d12bw,86,train
512.606143951416,4,2,0,5,1,3,M,1,2,1,0,1000,250.0,2,d12bw,87,train
368.6230182647705,4,2,0,5,1,3,M,1,2,1,0,1000,250.0,2,d12bw,88,train
528.5429954528809,4,2,0,5,1,3,M,1,1,4,0,1000,250.0,1,d12bw,89,train
384.5951557159424,4,2,0,5,1,3,M,1,1,4,0,1000,250.0,1,d12bw,90,train
1088.6149406433105,4,2,0,5,1,3,M,1,3,5,0,1000,250.0,3,d12bw,91,train
688.5459423065186,4,2,0,5,1,3,M,1,4,0,0,1000,250.0,4,d12bw,92,train
912.6079082489014,4,2,0,5,1,3,M,1,1,4,0,1000,250.0,1,d12bw,93,train
544.9130535125732,4,2,0,5,1,3,M,1,5,3,0,1000,250.0,5,d12bw,94,train
480.59892654418945,4,2,0,5,1,3,M,1,0,2,0,1000,250.0,0,d12bw,95,train
768.6688899993896,4,2,0,5,1,3,M,1,5,3,0,1000,250.0,5,d12bw,96,train
448.6699104309082,4,2,0,5,1,3,M,1,1,4,0,1000,250.0,1,d12bw,97,train
544.5380210876465,4,2,0,5,1,3,M,1,2,1,0,1000,250.0,2,d12bw,98,train
800.5530834197998,4,2,0,5,1,3,M,1,3,5,0,1000,250.0,3,d12bw,99,train
544.5339679718018,4,2,0,5,1,3,M,1,5,3,0,1000,250.0,5,d12bw,100,train
464.4429683685303,4,2,0,5,1,3,M,1,1,4,0,1000,250.0,1,d12bw,101,train
496.55795097351074,4,2,0,5,1,3,M,1,2,1,0,1000,250.0,2,d12bw,102,train
480.4391860961914,4,2,0,5,1,3,M,1,5,3,0,1000,250.0,5,d12bw,103,train
368.36695671081543,4,2,0,5,1,3,M,1,0,2,0,1000,250.0,0,d12bw,104,train
368.6039447784424,4,2,0,5,1,3,M,1,1,4,0,1000,250.0,1,d12bw,105,train
384.18006896972656,4,2,0,5,1,3,M,1,0,2,0,1000,250.0,0,d12bw,106,train
432.5590133666992,4,2,0,5,1,3,M,1,2,1,0,1000,250.0,2,d12bw,107,train
1168.5140132904053,4,2,0,5,1,3,M,1,4,0,0,1000,250.0,4,d12bw,108,train
448.4879970550537,4,2,0,5,1,3,M,1,1,4,0,1000,250.0,1,d12bw,109,train
384.6020698547363,4,2,0,5,1,3,M,1,0,2,0,1000,250.0,0,d12bw,110,train
352.49900817871094,4,2,0,5,1,3,M,1,0,2,0,1000,250.0,0,d12bw,111,train
880.4991245269775,4,2,0,5,1,3,M,1,3,5,0,1000,250.0,3,d12bw,112,train
880.3279399871826,4,2,0,5,1,3,M,1,4,0,0,1000,250.0,4,d12bw,113,train
400.5298614501953,4,2,0,5,1,3,M,1,0,2,0,1000,250.0,0,d12bw,114,train
528.4769535064697,4,2,0,5,1,3,M,1,5,3,0,1000,250.0,5,d12bw,115,train
688.575029373169,4,2,0,5,1,3,M,1,2,1,0,1000,250.0,2,d12bw,116,train
320.5289840698242,4,2,0,5,1,3,M,1,0,2,0,1000,250.0,0,d12bw,117,train
832.5660228729248,4,2,0,5,1,3,M,1,3,5,0,1000,250.0,3,d12bw,118,train
608.5619926452637,4,2,0,5,1,3,M,1,3,5,0,1000,250.0,3,d12bw,119,train
400.3582000732422,4,2,0,5,1,3,M,1,0,2,0,1000,250.0,0,d12bw,120,train
384.6769332885742,4,2,0,5,1,3,M,1,0,2,0,1000,250.0,0,d12bw,121,train
688.4629726409912,4,2,0,5,1,3,M,1,4,0,0,1000,250.0,4,d12bw,122,train
560.5649948120117,4,2,0,5,1,3,M,1,4,0,0,1000,250.0,4,d12bw,123,train
624.6509552001953,4,2,0,5,1,3,M,1,1,4,0,1000,250.0,1,d12bw,124,train
432.9240322113037,4,2,0,5,1,3,M,1,1,4,0,1000,250.0,1,d12bw,125,train
432.3599338531494,4,2,0,5,1,3,M,1,0,2,0,1000,250.0,0,d12bw,126,train
352.54406929016113,4,2,0,5,1,3,M,0,2,1,0,1000,250.0,0,d12bw,127,train
497.1590042114258,4,2,0,5,1,3,M,1,2,1,0,1000,250.0,2,d12bw,128,train
528.6369323730469,4,2,0,5,1,3,M,1,5,3,0,1000,250.0,5,d12bw,129,train
528.0580520629883,4,2,0,5,1,3,M,1,1,4,0,1000,250.0,1,d12bw,130,train
401.0581970214844,4,2,0,5,1,3,M,1,1,4,0,1000,250.0,1,d12bw,131,train
1904.7338962554932,4,2,0,5,1,3,M,1,4,0,0,1000,250.0,4,d12bw,132,train
672.4481582641602,4,2,0,5,1,3,M,1,1,4,0,1000,250.0,1,d12bw,133,train
544.5759296417236,4,2,0,5,1,3,M,1,5,3,0,1000,250.0,5,d12bw,134,train
448.5790729522705,4,2,0,5,1,3,M,1,0,2,0,1000,250.0,0,d12bw,135,train
576.6901969909668,4,2,0,5,1,3,M,1,2,1,0,1000,250.0,2,d12bw,136,train
496.56081199645996,4,2,0,5,1,3,M,1,1,4,0,1000,250.0,1,d12bw,137,train
416.54515266418457,4,2,0,5,1,3,M,1,1,4,0,1000,250.0,1,d12bw,138,train
1232.5341701507568,4,2,0,5,1,3,M,1,3,5,0,1000,250.0,3,d12bw,139,train
848.548173904419,4,2,0,5,1,3,M,1,1,4,0,1000,250.0,1,d12bw,140,train
720.5729484558105,4,2,0,5,1,3,M,1,3,5,0,1000,250.0,3,d12bw,141,train
576.6170024871826,4,2,0,5,1,3,M,1,5,3,0,1000,250.0,5,d12bw,142,train
432.5869083404541,4,2,0,5,1,3,M,1,0,2,0,1000,250.0,0,d12bw,143,train
848.6168384552002,4,2,0,5,1,3,M,1,3,5,0,1000,250.0,3,d12bw,144,train
448.67610931396484,4,2,0,5,1,3,M,1,1,4,0,1000,250.0,1,d12bw,145,train
496.5641498565674,4,2,0,5,1,3,M,1,5,3,0,1000,250.0,5,d12bw,146,train
608.5569858551025,4,2,0,5,1,3,M,1,3,5,0,1000,250.0,3,d12bw,147,train
480.5769920349121,4,2,0,5,1,3,M,1,5,3,0,1000,250.0,5,d12bw,148,train
416.49794578552246,4,2,0,5,1,3,M,1,0,2,0,1000,250.0,0,d12bw,149,train
416.67699813842773,4,2,0,5,1,3,M,1,1,4,0,1000,250.0,1,d12bw,150,train
432.59286880493164,4,2,0,5,1,3,M,1,0,2,0,1000,250.0,0,d12bw,151,train
512.3660564422607,4,2,0,5,1,3,M,1,3,5,0,1000,250.0,3,d12bw,152,train
432.57713317871094,4,2,0,5,1,3,M,1,5,3,0,1000,250.0,5,d12bw,153,train
448.6358165740967,4,2,0,5,1,3,M,1,1,4,0,1000,250.0,1,d12bw,154,train
1040.4579639434814,4,2,0,5,1,3,M,1,2,1,0,1000,250.0,2,d12bw,155,train
496.52910232543945,4,2,0,5,1,3,M,1,2,1,0,1000,250.0,2,d12bw,156,train
544.4629192352295,4,2,0,5,1,3,M,1,3,5,0,1000,250.0,3,d12bw,157,train
624.6240139007568,4,2,0,5,1,3,M,1,4,0,0,1000,250.0,4,d12bw,158,train
336.4980220794678,4,2,0,5,1,3,M,1,5,3,0,1000,250.0,5,d12bw,159,train
288.44714164733887,4,2,0,5,1,3,M,1,0,2,0,1000,250.0,0,d12bw,160,train
464.5199775695801,4,2,0,5,1,3,M,1,5,3,0,1000,250.0,5,d12bw,161,train
464.50281143188477,4,2,0,5,1,3,M,1,5,3,0,1000,250.0,5,d12bw,162,train
336.4531993865967,4,2,0,5,1,3,M,1,5,3,0,1000,250.0,5,d12bw,163,train
352.6151180267334,4,2,0,5,1,3,M,1,0,2,0,1000,250.0,0,d12bw,164,train
448.5349655151367,4,2,0,5,1,3,M,1,1,4,0,1000,250.0,1,d12bw,165,train
512.570858001709,4,2,0,5,1,3,M,0,4,0,0,1000,250.0,3,d12bw,166,train
416.14294052124023,4,2,0,5,1,3,M,0,3,5,0,1000,250.0,4,d12bw,167,train
448.57096672058105,4,2,0,5,1,3,M,1,0,2,0,1000,250.0,0,d12bw,168,train
336.56811714172363,4,2,0,5,1,3,M,1,1,4,0,1000,250.0,1,d12bw,169,train
688.4629726409912,4,2,0,5,1,3,M,1,4,0,0,1000,250.0,4,d12bw,170,train
896.5039253234863,4,2,0,5,1,3,M,1,1,4,0,1000,250.0,1,d12bw,171,train
512.5758647918701,4,2,0,5,1,3,M,1,2,1,0,1000,250.0,2,d12bw,172,train
544.558048248291,4,2,0,5,1,3,M,1,1,4,0,1000,250.0,1,d12bw,173,train
544.6128845214844,4,2,0,5,1,3,M,1,5,3,0,1000,250.0,5,d12bw,174,train
688.2967948913574,4,2,0,5,1,3,M,1,2,1,0,1000,250.0,2,d12bw,175,train
624.6099472045898,4,2,0,5,1,3,M,1,3,5,0,1000,250.0,3,d12bw,176,train
496.4439868927002,4,2,0,5,1,3,M,1,4,0,0,1000,250.0,4,d12bw,177,train
464.4920825958252,4,2,0,5,1,3,M,1,4,0,0,1000,250.0,4,d12bw,178,train
416.54205322265625,4,2,0,5,1,3,M,1,1,4,0,1000,250.0,1,d12bw,179,train
368.5030937194824,4,2,0,5,1,3,M,1,2,1,0,1000,250.0,2,d12bw,180,train
496.54698371887207,4,2,0,5,1,3,M,1,5,3,0,1000,250.0,5,d12bw,181,train
448.9610195159912,4,2,0,5,1,3,M,1,1,4,0,1000,250.0,1,d12bw,182,train
496.68407440185547,4,2,0,5,1,3,M,1,2,1,0,1000,250.0,2,d12bw,183,train
464.6749496459961,4,2,0,5,1,3,M,1,5,3,0,1000,250.0,5,d12bw,184,train
464.64014053344727,4,2,0,5,1,3,M,1,5,3,0,1000,250.0,5,d12bw,185,train
576.9329071044922,4,2,0,5,1,3,M,1,0,2,0,1000,250.0,0,d12bw,186,train
768.5818672180176,4,2,0,5,1,3,M,1,3,5,0,1000,250.0,3,d12bw,187,train
512.6080513000488,4,2,0,5,1,3,M,1,5,3,0,1000,250.0,5,d12bw,188,train
432.4760437011719,4,2,0,5,1,3,M,1,5,3,0,1000,250.0,5,d12bw,189,train
528.5608768463135,4,2,0,5,1,3,M,1,1,4,0,1000,250.0,1,d12bw,190,train
496.5169429779053,4,2,0,5,1,3,M,1,5,3,0,1000,250.0,5,d12bw,191,train
512.549877166748,4,2,0,5,1,3,M,1,1,4,0,1000,250.0,1,d12bw,192,train
1104.7148704528809,4,2,0,5,1,3,M,1,4,0,0,1000,250.0,4,d12bw,193,train
624.9969005584717,4,2,0,5,1,3,M,1,1,4,0,1000,250.0,1,d12bw,194,train
1008.9459419250488,4,2,0,5,1,3,M,1,3,5,0,1000,250.0,3,d12bw,195,train
576.5430927276611,4,2,0,5,1,3,M,1,3,5,0,1000,250.0,3,d12bw,196,train
432.5530529022217,4,2,0,5,1,3,M,1,0,2,0,1000,250.0,0,d12bw,197,train
704.6101093292236,4,2,0,5,1,3,M,1,1,4,0,1000,250.0,1,d12bw,198,train
560.5759620666504,4,2,0,5,1,3,M,1,4,0,0,1000,250.0,4,d12bw,199,train
496.5829849243164,4,2,0,5,1,3,M,1,4,0,0,1000,250.0,4,d12bw,200,train
432.664155960083,4,2,0,5,1,3,M,1,1,4,0,1000,250.0,1,d12bw,201,train
672.5800037384033,4,2,0,5,1,3,M,1,3,5,0,1000,250.0,3,d12bw,202,train
448.61507415771484,4,2,0,5,1,3,M,0,2,1,0,1000,250.0,1,d12bw,203,train
576.6329765319824,4,2,0,5,1,3,M,1,5,3,0,1000,250.0,5,d12bw,204,train
576.5979290008545,4,2,0,5,1,3,M,1,2,1,0,1000,250.0,2,d12bw,205,train
512.6190185546875,4,2,0,5,1,3,M,1,2,1,0,1000,250.0,2,d12bw,206,train
640.6381130218506,4,2,0,5,1,3,M,1,5,3,0,1000,250.0,5,d12bw,207,train
464.59102630615234,4,2,0,5,1,3,M,1,0,2,0,1000,250.0,0,d12bw,208,train
448.51088523864746,4,2,0,5,1,3,M,1,5,3,0,1000,250.0,5,d12bw,209,train
400.5560874938965,4,2,0,5,1,3,M,1,0,2,0,1000,250.0,0,d12bw,210,train
416.5680408477783,4,2,0,5,1,3,M,1,0,2,0,1000,250.0,0,d12bw,211,train
576.563835144043,4,2,0,5,1,3,M,0,4,0,0,1000,250.0,5,d12bw,212,train
448.47989082336426,4,2,0,5,1,3,M,1,0,2,0,1000,250.0,0,d12bw,213,train
416.55588150024414,4,2,0,5,1,3,M,1,0,2,0,1000,250.0,0,d12bw,214,train
384.46807861328125,4,2,0,5,1,3,M,1,0,2,0,1000,250.0,0,d12bw,215,train
767.0700550079346,4,2,0,5,1,3,M,1,3,5,0,1000,250.0,3,d12bw,216,train
560.6648921966553,4,2,0,5,1,3,M,1,5,3,0,1000,250.0,5,d12bw,217,train
432.62386322021484,4,2,0,5,1,3,M,1,5,3,0,1000,250.0,5,d12bw,218,train
384.4919204711914,4,2,0,5,1,3,M,1,1,4,0,1000,250.0,1,d12bw,219,train
688.572883605957,4,2,0,5,1,3,M,1,4,0,0,1000,250.0,4,d12bw,220,train
784.553050994873,4,2,0,5,1,3,M,1,3,5,0,1000,250.0,3,d12bw,221,train
672.6608276367188,4,2,0,5,1,3,M,0,3,5,0,1000,250.0,4,d12bw,222,train
528.5899639129639,4,2,0,5,1,3,M,1,5,3,0,1000,250.0,5,d12bw,223,train
864.5889759063721,4,2,0,5,1,3,M,1,2,1,0,1000,250.0,2,d12bw,224,train
464.4958972930908,4,2,0,5,1,3,M,1,0,2,0,1000,250.0,0,d12bw,225,train
512.5651359558105,4,2,0,5,1,3,M,1,1,4,0,1000,250.0,1,d12bw,226,train
512.7630233764648,4,2,0,5,1,3,M,1,5,3,0,1000,250.0,5,d12bw,227,train
945.0039863586426,4,2,0,5,1,3,M,1,3,5,0,1000,250.0,3,d12bw,228,train
609.166145324707,4,2,0,5,1,3,M,1,5,3,0,1000,250.0,5,d12bw,229,train
865.2148246765137,4,2,0,5,1,3,M,1,2,1,0,1000,250.0,2,d12bw,230,train
529.0660858154297,4,2,0,5,1,3,M,1,2,1,0,1000,250.0,2,d12bw,231,train
593.0149555206299,4,2,0,5,1,3,M,1,3,5,0,1000,250.0,3,d12bw,232,train
848.9749431610107,4,2,0,5,1,3,M,1,3,5,0,1000,250.0,3,d12bw,233,train
384.54699516296387,4,2,0,5,1,3,M,1,3,5,0,1000,250.0,3,d12bw,234,train
528.3539295196533,4,2,0,5,1,3,M,1,5,3,0,1000,250.0,5,d12bw,235,train
576.6499042510986,4,2,0,5,1,3,M,1,4,0,0,1000,250.0,4,d12bw,236,train
529.1688442230225,4,2,0,5,1,3,M,1,5,3,0,1000,250.0,5,d12bw,237,train
1089.1878604888916,4,2,0,5,1,3,M,1,1,4,0,1000,250.0,1,d12bw,238,train
433.0401420593262,4,2,0,5,1,3,M,1,1,4,0,1000,250.0,1,d12bw,239,train
385.1490020751953,4,2,0,5,1,3,M,1,0,2,0,1000,250.0,0,d12bw,240,train
417.15192794799805,4,2,0,5,1,3,M,1,1,4,0,1000,250.0,1,d12bw,241,train
609.2410087585449,4,2,0,5,1,3,M,1,3,5,0,1000,250.0,3,d12bw,242,train
481.1840057373047,4,2,0,5,1,3,M,1,2,1,0,1000,250.0,2,d12bw,243,train
497.1880912780762,4,2,0,5,1,3,M,1,5,3,0,1000,250.0,5,d12bw,244,train
641.1950588226318,4,2,0,5,1,3,M,1,2,1,0,1000,250.0,2,d12bw,245,train
513.2899284362793,4,2,0,5,1,3,M,1,5,3,0,1000,250.0,5,d12bw,246,train
449.1739273071289,4,2,0,5,1,3,M,1,5,3,0,1000,250.0,5,d12bw,247,train
720.5579280853271,4,2,0,5,1,3,M,1,4,0,0,1000,250.0,4,d12bw,248,train
640.6550407409668,4,2,0,5,1,3,M,1,4,0,0,1000,250.0,4,d12bw,249,train
16448.380947113037,4,2,0,5,1,3,M,1,1,4,0,1000,250.0,1,d12bw,250,test
2080.36208152771,4,2,0,5,1,3,M,1,2,1,0,1000,250.0,2,d12bw,251,test
1360.9530925750732,4,2,0,5,1,3,M,1,0,2,0,1000,250.0,0,d12bw,252,test
1216.4218425750732,4,2,0,5,1,3,M,1,3,5,0,1000,250.0,3,d12bw,253,test
1904.5109748840332,4,2,0,5,1,3,M,1,4,0,0,1000,250.0,4,d12bw,254,test
1024.6288776397705,4,2,0,5,1,3,M,1,5,3,0,1000,250.0,5,d12bw,255,test
2160.513162612915,4,2,0,5,1,3,M,1,2,1,0,1000,250.0,2,d12bw,256,test
1536.4930629730225,4,2,0,5,1,3,M,1,1,4,0,1000,250.0,1,d12bw,257,test
2000.6449222564697,4,2,0,5,1,3,M,1,3,5,0,1000,250.0,3,d12bw,258,test
960.6020450592041,4,2,0,5,1,3,M,1,0,2,0,1000,250.0,0,d12bw,259,test
496.4621067047119,4,2,0,5,1,3,M,1,0,2,0,1000,250.0,0,d12bw,260,test
1392.4729824066162,4,2,0,5,1,3,M,1,2,1,0,1000,250.0,2,d12bw,261,test
976.599931716919,4,2,0,5,1,3,M,1,2,1,0,1000,250.0,2,d12bw,262,test
992.5358295440674,4,2,0,5,1,3,M,1,3,5,0,1000,250.0,3,d12bw,263,test
1152.5359153747559,4,2,0,5,1,3,M,1,4,0,0,1000,250.0,4,d12bw,264,test
944.5390701293945,4,2,0,5,1,3,M,1,0,2,0,1000,250.0,0,d12bw,265,test
1408.560037612915,4,2,0,5,1,3,M,1,1,4,0,1000,250.0,1,d12bw,266,test
1120.441198348999,4,2,0,5,1,3,M,1,5,3,0,1000,250.0,5,d12bw,267,test
1968.5280323028564,4,2,0,5,1,3,M,1,2,1,0,1000,250.0,2,d12bw,268,test
1712.5208377838135,4,2,0,5,1,3,M,1,3,5,0,1000,250.0,3,d12bw,269,test
1488.5811805725098,4,2,0,5,1,3,M,1,2,1,0,1000,250.0,2,d12bw,270,test
1376.5039443969727,4,2,0,5,1,3,M,1,4,0,0,1000,250.0,4,d12bw,271,test
1168.130874633789,4,2,0,5,1,3,M,1,1,4,0,1000,250.0,1,d12bw,272,test
1632.4999332427979,4,2,0,5,1,3,M,1,4,0,0,1000,250.0,4,d12bw,273,test
784.3940258026123,4,2,0,5,1,3,M,1,3,5,0,1000,250.0,3,d12bw,274,test
976.525068283081,4,2,0,5,1,3,M,1,5,3,0,1000,250.0,5,d12bw,275,test
897.0658779144287,4,2,0,5,1,3,M,1,0,2,0,1000,250.0,0,d12bw,276,test
1216.4537906646729,4,2,0,5,1,3,M,1,3,5,0,1000,250.0,3,d12bw,277,test
1040.497064590454,4,2,0,5,1,3,M,1,5,3,0,1000,250.0,5,d12bw,278,test
897.0389366149902,4,2,0,5,1,3,M,1,3,5,0,1000,250.0,3,d12bw,279,test
833.0609798431396,4,2,0,5,1,3,M,1,3,5,0,1000,250.0,3,d12bw,280,test
608.4449291229248,4,2,0,5,1,3,M,1,0,2,0,1000,250.0,0,d12bw,281,test
720.4549312591553,4,2,0,5,1,3,M,1,2,1,0,1000,250.0,2,d12bw,282,test
1120.5971240997314,4,2,0,5,1,3,M,1,5,3,0,1000,250.0,5,d12bw,283,test
1392.5800323486328,4,2,0,5,1,3,M,1,1,4,0,1000,250.0,1,d12bw,284,test
704.5450210571289,4,2,0,5,1,3,M,1,0,2,0,1000,250.0,0,d12bw,285,test
896.4920043945312,4,2,0,5,1,3,M,0,3,5,0,1000,250.0,4,d12bw,286,test
1184.4468116760254,4,2,0,5,1,3,M,1,2,1,0,1000,250.0,2,d12bw,287,test
1008.5201263427734,4,2,0,5,1,3,M,1,5,3,0,1000,250.0,5,d12bw,288,test
1104.517936706543,4,2,0,5,1,3,M,1,4,0,0,1000,250.0,4,d12bw,289,test
1120.5170154571533,4,2,0,5,1,3,M,1,3,5,0,1000,250.0,3,d12bw,290,test
1200.3898620605469,4,2,0,5,1,3,M,1,1,4,0,1000,250.0,1,d12bw,291,test
1745.030164718628,4,2,0,5,1,3,M,1,4,0,0,1000,250.0,4,d12bw,292,test
752.5730133056641,4,2,0,5,1,3,M,1,3,5,0,1000,250.0,3,d12bw,293,test
1056.4091205596924,4,2,0,5,1,3,M,1,2,1,0,1000,250.0,2,d12bw,294,test
1072.545051574707,4,2,0,5,1,3,M,1,1,4,0,1000,250.0,1,d12bw,295,test
1696.5088844299316,4,2,0,5,1,3,M,1,4,0,0,1000,250.0,4,d12bw,296,test
1024.5120525360107,4,2,0,5,1,3,M,1,1,4,0,1000,250.0,1,d12bw,297,test
1280.4501056671143,4,2,0,5,1,3,M,1,2,1,0,1000,250.0,2,d12bw,298,test
1008.540153503418,4,2,0,5,1,3,M,1,1,4,0,1000,250.0,1,d12bw,299,test
1024.5640277862549,4,2,0,5,1,3,M,1,3,5,0,1000,250.0,3,d12bw,300,test
928.574800491333,4,2,0,5,1,3,M,1,1,4,0,1000,250.0,1,d12bw,301,test
928.6339282989502,4,2,0,5,1,3,M,1,5,3,0,1000,250.0,5,d12bw,302,test
752.5110244750977,4,2,0,5,1,3,M,1,4,0,0,1000,250.0,4,d12bw,303,test
1040.5659675598145,4,2,0,5,1,3,M,1,2,1,0,1000,250.0,2,d12bw,304,test
1392.3850059509277,4,2,0,5,1,3,M,1,3,5,0,1000,250.0,3,d12bw,305,test
2385.0460052490234,4,2,0,5,1,3,M,1,4,0,0,1000,250.0,4,d12bw,306,test
864.509105682373,4,2,0,5,1,3,M,1,4,0,0,1000,250.0,4,d12bw,307,test
464.48206901550293,4,2,0,5,1,3,M,1,4,0,0,1000,250.0,4,d12bw,308,test
448.5650062561035,4,2,0,5,1,3,M,1,4,0,0,1000,250.0,4,d12bw,309,test
784.6040725708008,4,2,0,5,1,3,M,1,3,5,0,1000,250.0,3,d12bw,310,test
800.5080223083496,4,2,0,5,1,3,M,1,0,2,0,1000,250.0,0,d12bw,311,test
1392.4541473388672,4,2,0,5,1,3,M,1,4,0,0,1000,250.0,4,d12bw,312,test
736.4799976348877,4,2,0,5,1,3,M,1,5,3,0,1000,250.0,5,d12bw,313,test
1104.461908340454,4,2,0,5,1,3,M,1,2,1,0,1000,250.0,2,d12bw,314,test
1168.5168743133545,4,2,0,5,1,3,M,1,4,0,0,1000,250.0,4,d12bw,315,test
720.5150127410889,4,2,0,5,1,3,M,1,4,0,0,1000,250.0,4,d12bw,316,test
944.5910453796387,4,2,0,5,1,3,M,1,5,3,0,1000,250.0,5,d12bw,317,test
1200.5510330200195,4,2,0,5,1,3,M,1,1,4,0,1000,250.0,1,d12bw,318,test
1024.3189334869385,4,2,0,5,1,3,M,1,5,3,0,1000,250.0,5,d12bw,319,test
1200.484037399292,4,2,0,5,1,3,M,1,1,4,0,1000,250.0,1,d12bw,320,test
1040.5402183532715,4,2,0,5,1,3,M,1,5,3,0,1000,250.0,5,d12bw,321,test
960.3538513183594,4,2,0,5,1,3,M,1,3,5,0,1000,250.0,3,d12bw,322,test
1088.4530544281006,4,2,0,5,1,3,M,1,4,0,0,1000,250.0,4,d12bw,323,test
1376.5199184417725,4,2,0,5,1,3,M,1,4,0,0,1000,250.0,4,d12bw,324,test
1728.6019325256348,4,2,0,5,1,3,M,1,4,0,0,1000,250.0,4,d12bw,325,test
1360.5051040649414,4,2,0,5,1,3,M,1,2,1,0,1000,250.0,2,d12bw,326,test
720.4458713531494,4,2,0,5,1,3,M,1,2,1,0,1000,250.0,2,d12bw,327,test
672.3778247833252,4,2,0,5,1,3,M,1,0,2,0,1000,250.0,0,d12bw,328,test
624.871015548706,4,2,0,5,1,3,M,0,2,1,0,1000,250.0,0,d12bw,329,test
1553.0109405517578,4,2,0,5,1,3,M,1,3,5,0,1000,250.0,3,d12bw,330,test
865.1549816131592,4,2,0,5,1,3,M,1,2,1,0,1000,250.0,2,d12bw,331,test
3073.253870010376,4,2,0,5,1,3,M,1,4,0,0,1000,250.0,4,d12bw,332,test
1105.0500869750977,4,2,0,5,1,3,M,1,1,4,0,1000,250.0,1,d12bw,333,test
960.9880447387695,4,2,0,5,1,3,M,1,2,1,0,1000,250.0,2,d12bw,334,test
1329.0250301361084,4,2,0,5,1,3,M,1,4,0,0,1000,250.0,4,d12bw,335,test
1105.0639152526855,4,2,0,5,1,3,M,1,3,5,0,1000,250.0,3,d12bw,336,test
737.0588779449463,4,2,0,5,1,3,M,1,2,1,0,1000,250.0,2,d12bw,337,test
1233.048915863037,4,2,0,5,1,3,M,1,4,0,0,1000,250.0,4,d12bw,338,test
737.0109558105469,4,2,0,5,1,3,M,1,5,3,0,1000,250.0,5,d12bw,339,test
913.0120277404785,4,2,0,5,1,3,M,1,4,0,0,1000,250.0,4,d12bw,340,test
1585.137128829956,4,2,0,5,1,3,M,1,1,4,0,1000,250.0,1,d12bw,341,test
1137.1140480041504,4,2,0,5,1,3,M,1,0,2,0,1000,250.0,0,d12bw,342,test
1217.1378135681152,4,2,0,5,1,3,M,1,4,0,0,1000,250.0,4,d12bw,343,test
1217.1239852905273,4,2,0,5,1,3,M,1,3,5,0,1000,250.0,3,d12bw,344,test
641.0419940948486,4,2,0,5,1,3,M,1,0,2,0,1000,250.0,0,d12bw,345,test
433.1071376800537,4,2,0,5,1,3,M,1,0,2,0,1000,250.0,0,d12bw,346,test
1025.1431465148926,4,2,0,5,1,3,M,1,3,5,0,1000,250.0,3,d12bw,347,test
1632.8752040863037,4,2,0,5,1,3,M,1,3,5,0,1000,250.0,3,d12bw,348,test
769.1259384155273,4,2,0,5,1,3,M,0,2,1,0,1000,250.0,0,d12bw,349,test
1200.9410858154297,4,2,0,5,1,3,M,0,4,0,0,1000,250.0,5,d12bw,350,test
1025.1569747924805,4,2,0,5,1,3,M,1,3,5,0,1000,250.0,3,d12bw,351,test
817.0950412750244,4,2,0,5,1,3,M,1,4,0,0,1000,250.0,4,d12bw,352,test
1057.0671558380127,4,2,0,5,1,3,M,1,1,4,0,1000,250.0,1,d12bw,353,test
1296.9779968261719,4,2,0,5,1,3,M,1,4,0,0,1000,250.0,4,d12bw,354,test
608.9930534362793,4,2,0,5,1,3,M,1,5,3,0,1000,250.0,5,d12bw,355,test
753.166913986206,4,2,0,5,1,3,M,1,4,0,0,1000,250.0,4,d12bw,356,test
977.1978855133057,4,2,0,5,1,3,M,1,3,5,0,1000,250.0,3,d12bw,357,test
784.5768928527832,4,2,0,5,1,3,M,1,5,3,0,1000,250.0,5,d12bw,358,test
881.0341358184814,4,2,0,5,1,3,M,1,5,3,0,1000,250.0,5,d12bw,359,test
641.1759853363037,4,2,0,5,1,3,M,1,0,2,0,1000,250.0,0,d12bw,360,test
1152.510166168213,4,2,0,5,1,3,M,1,4,0,0,1000,250.0,4,d12bw,361,test
1392.557144165039,4,2,0,5,1,3,M,1,4,0,0,1000,250.0,4,d12bw,362,test
832.6292037963867,4,2,0,5,1,3,M,1,5,3,0,1000,250.0,5,d12bw,363,test
672.5850105285645,4,2,0,5,1,3,M,1,5,3,0,1000,250.0,5,d12bw,364,test
1232.530117034912,4,2,0,5,1,3,M,1,2,1,0,1000,250.0,2,d12bw,365,test
1056.562900543213,4,2,0,5,1,3,M,1,4,0,0,1000,250.0,4,d12bw,366,test
944.5371627807617,4,2,0,5,1,3,M,1,1,4,0,1000,250.0,1,d12bw,367,test
1808.568000793457,4,2,0,5,1,3,M,1,1,4,0,1000,250.0,1,d12bw,368,test
1440.3090476989746,4,2,0,5,1,3,M,1,4,0,0,1000,250.0,4,d12bw,369,test
1072.6308822631836,4,2,0,5,1,3,M,1,3,5,0,1000,250.0,3,d12bw,370,test
1104.5689582824707,4,2,0,5,1,3,M,1,4,0,0,1000,250.0,4,d12bw,371,test
1120.5830574035645,4,2,0,5,1,3,M,1,2,1,0,1000,250.0,2,d12bw,372,test
912.5471115112305,4,2,0,5,1,3,M,1,3,5,0,1000,250.0,3,d12bw,373,test
1200.4890441894531,4,2,0,5,1,3,M,1,0,2,0,1000,250.0,0,d12bw,374,test
1280.4319858551025,4,2,0,5,1,3,M,1,3,5,0,1000,250.0,3,d12bw,375,test
1345.069169998169,4,2,0,5,1,3,M,1,0,2,0,1000,250.0,0,d12bw,376,test
1024.5449542999268,4,2,0,5,1,3,M,1,3,5,0,1000,250.0,3,d12bw,377,test
896.5561389923096,4,2,0,5,1,3,M,1,3,5,0,1000,250.0,3,d12bw,378,test
720.5588817596436,4,2,0,5,1,3,M,1,1,4,0,1000,250.0,1,d12bw,379,test
1312.4330043792725,4,2,0,5,1,3,M,1,4,0,0,1000,250.0,4,d12bw,380,test
752.5169849395752,4,2,0,5,1,3,M,1,5,3,0,1000,250.0,5,d12bw,381,test
864.5329475402832,4,2,0,5,1,3,M,1,3,5,0,1000,250.0,3,d12bw,382,test
1040.5919551849365,4,2,0,5,1,3,M,1,0,2,0,1000,250.0,0,d12bw,383,test
944.5528984069824,4,2,0,5,1,3,M,1,3,5,0,1000,250.0,3,d12bw,384,test
912.5370979309082,4,2,0,5,1,3,M,1,0,2,0,1000,250.0,0,d12bw,385,test
753.0910968780518,4,2,0,5,1,3,M,1,2,1,0,1000,250.0,2,d12bw,386,test
1313.0991458892822,4,2,0,5,1,3,M,1,4,0,0,1000,250.0,4,d12bw,387,test
465.1520252227783,4,2,0,5,1,3,M,1,2,1,0,1000,250.0,2,d12bw,388,test
721.2018966674805,4,2,0,5,1,3,M,1,2,1,0,1000,250.0,2,d12bw,389,test
945.1210498809814,4,2,0,5,1,3,M,1,4,0,0,1000,250.0,4,d12bw,390,test
929.1608333587646,4,2,0,5,1,3,M,1,1,4,0,1000,250.0,1,d12bw,391,test
833.1868648529053,4,2,0,5,1,3,M,1,1,4,0,1000,250.0,1,d12bw,392,test
1073.1570720672607,4,2,0,5,1,3,M,1,4,0,0,1000,250.0,4,d12bw,393,test
833.2009315490723,4,2,0,5,1,3,M,1,4,0,0,1000,250.0,4,d12bw,394,test
881.1509609222412,4,2,0,5,1,3,M,1,3,5,0,1000,250.0,3,d12bw,395,test
1153.181791305542,4,2,0,5,1,3,M,1,1,4,0,1000,250.0,1,d12bw,396,test
881.1740875244141,4,2,0,5,1,3,M,1,5,3,0,1000,250.0,5,d12bw,397,test
529.23583984375,4,2,0,5,1,3,M,1,5,3,0,1000,250.0,5,d12bw,398,test
513.1230354309082,4,2,0,5,1,3,M,1,2,1,0,1000,250.0,2,d12bw,399,test
993.2129383087158,4,2,0,5,1,3,M,1,3,5,0,1000,250.0,3,d12bw,400,test
593.1191444396973,4,2,0,5,1,3,M,1,3,5,0,1000,250.0,3,d12bw,401,test
465.18802642822266,4,2,0,5,1,3,M,0,1,4,0,1000,250.0,2,d12bw,402,test
465.03591537475586,4,2,0,5,1,3,M,1,0,2,0,1000,250.0,0,d12bw,403,test
401.08513832092285,4,2,0,5,1,3,M,1,0,2,0,1000,250.0,0,d12bw,404,test
417.1278476715088,4,2,0,5,1,3,M,0,4,0,0,1000,250.0,2,d12bw,405,test
1025.1080989837646,4,2,0,5,1,3,M,1,3,5,0,1000,250.0,3,d12bw,406,test
737.0188236236572,4,2,0,5,1,3,M,1,1,4,0,1000,250.0,1,d12bw,407,test
913.1820201873779,4,2,0,5,1,3,M,1,3,5,0,1000,250.0,3,d12bw,408,test
609.0419292449951,4,2,0,5,1,3,M,1,3,5,0,1000,250.0,3,d12bw,409,test
401.0739326477051,4,2,0,5,1,3,M,1,0,2,0,1000,250.0,0,d12bw,410,test
2033.2751274108887,4,2,0,5,1,3,M,1,4,0,0,1000,250.0,4,d12bw,411,test
641.0889625549316,4,2,0,5,1,3,M,1,5,3,0,1000,250.0,5,d12bw,412,test
641.0958766937256,4,2,0,5,1,3,M,1,4,0,0,1000,250.0,4,d12bw,413,test
1521.0931301116943,4,2,0,5,1,3,M,1,1,4,0,1000,250.0,1,d12bw,414,test
705.111026763916,4,2,0,5,1,3,M,1,2,1,0,1000,250.0,2,d12bw,415,test
2000.6749629974365,4,2,0,5,1,3,M,1,4,0,0,1000,250.0,4,d12bw,416,test
1904.425859451294,4,2,0,5,1,3,M,1,3,5,0,1000,250.0,3,d12bw,417,test
672.6198196411133,4,2,0,5,1,3,M,1,5,3,0,1000,250.0,5,d12bw,418,test
592.6969051361084,4,2,0,5,1,3,M,1,2,1,0,1000,250.0,2,d12bw,419,test
1041.1689281463623,4,2,0,5,1,3,M,1,5,3,0,1000,250.0,5,d12bw,420,test
2256.9329738616943,4,2,0,5,1,3,M,1,4,0,0,1000,250.0,4,d12bw,421,test
449.02682304382324,4,2,0,5,1,3,M,1,2,1,0,1000,250.0,2,d12bw,422,test
385.0271701812744,4,2,0,5,1,3,M,0,2,1,0,1000,250.0,0,d12bw,423,test
1296.5631484985352,4,2,0,5,1,3,M,1,3,5,0,1000,250.0,3,d12bw,424,test
465.18397331237793,4,2,0,5,1,3,M,1,0,2,0,1000,250.0,0,d12bw,425,test
864.5949363708496,4,2,0,5,1,3,M,1,3,5,0,1000,250.0,3,d12bw,426,test
1200.5441188812256,4,2,0,5,1,3,M,1,4,0,0,1000,250.0,4,d12bw,427,test
384.4740390777588,4,2,0,5,1,3,M,1,0,2,0,1000,250.0,0,d12bw,428,test
2592.568874359131,4,2,0,5,1,3,M,1,3,5,0,1000,250.0,3,d12bw,429,test
672.6260185241699,4,2,0,5,1,3,M,1,2,1,0,1000,250.0,2,d12bw,430,test
1136.4731788635254,4,2,0,5,1,3,M,1,5,3,0,1000,250.0,5,d12bw,431,test
592.5590991973877,4,2,0,5,1,3,M,1,0,2,0,1000,250.0,0,d12bw,432,test
1408.522129058838,4,2,0,5,1,3,M,1,4,0,0,1000,250.0,4,d12bw,433,test
656.6190719604492,4,2,0,5,1,3,M,1,2,1,0,1000,250.0,2,d12bw,434,test
912.6131534576416,4,2,0,5,1,3,M,1,5,3,0,1000,250.0,5,d12bw,435,test
832.5660228729248,4,2,0,5,1,3,M,1,2,1,0,1000,250.0,2,d12bw,436,test
880.5971145629883,4,2,0,5,1,3,M,1,3,5,0,1000,250.0,3,d12bw,437,test
880.6099891662598,4,2,0,5,1,3,M,1,5,3,0,1000,250.0,5,d12bw,438,test
496.4749813079834,4,2,0,5,1,3,M,1,5,3,0,1000,250.0,5,d12bw,439,test
624.5791912078857,4,2,0,5,1,3,M,1,0,2,0,1000,250.0,0,d12bw,440,test
1713.019847869873,4,2,0,5,1,3,M,1,4,0,0,1000,250.0,4,d12bw,441,test
673.022985458374,4,2,0,5,1,3,M,1,1,4,0,1000,250.0,1,d12bw,442,test
865.1690483093262,4,2,0,5,1,3,M,1,5,3,0,1000,250.0,5,d12bw,443,test
641.1221027374268,4,2,0,5,1,3,M,1,4,0,0,1000,250.0,4,d12bw,444,test
593.0941104888916,4,2,0,5,1,3,M,1,2,1,0,1000,250.0,2,d12bw,445,test
673.2070446014404,4,2,0,5,1,3,M,1,2,1,0,1000,250.0,2,d12bw,446,test
464.9679660797119,4,2,0,5,1,3,M,0,0,2,0,1000,250.0,2,d12bw,447,test
912.6379489898682,4,2,0,5,1,3,M,1,4,0,0,1000,250.0,4,d12bw,448,test
912.4889373779297,4,2,0,5,1,3,M,1,3,5,0,1000,250.0,3,d12bw,449,test
656.5890312194824,4,2,0,5,1,3,M,0,2,1,0,1000,250.0,1,d12bw,450,test
880.4919719696045,4,2,0,5,1,3,M,1,3,5,0,1000,250.0,3,d12bw,451,test
639.9860382080078,4,2,0,5,1,3,M,1,5,3,0,1000,250.0,5,d12bw,452,test
800.6229400634766,4,2,0,5,1,3,M,1,1,4,0,1000,250.0,1,d12bw,453,test
912.4870300292969,4,2,0,5,1,3,M,1,5,3,0,1000,250.0,5,d12bw,454,test
896.4951038360596,4,2,0,5,1,3,M,1,0,2,0,1000,250.0,0,d12bw,455,test
480.3469181060791,4,2,0,5,1,3,M,1,2,1,0,1000,250.0,2,d12bw,456,test
544.4920063018799,4,2,0,5,1,3,M,1,4,0,0,1000,250.0,4,d12bw,457,test
640.4690742492676,4,2,0,5,1,3,M,1,4,0,0,1000,250.0,4,d12bw,458,test
480.4408550262451,4,2,0,5,1,3,M,1,3,5,0,1000,250.0,3,d12bw,459,test
544.5160865783691,4,2,0,5,1,3,M,1,5,3,0,1000,250.0,5,d12bw,460,test
576.4720439910889,4,2,0,5,1,3,M,1,0,2,0,1000,250.0,0,d12bw,461,test
1824.603796005249,4,2,0,5,1,3,M,1,4,0,0,1000,250.0,4,d12bw,462,test
624.4959831237793,4,2,0,5,1,3,M,1,2,1,0,1000,250.0,2,d12bw,463,test
688.6200904846191,4,2,0,5,1,3,M,1,2,1,0,1000,250.0,2,d12bw,464,test
1824.6049880981445,4,2,0,5,1,3,M,1,4,0,0,1000,250.0,4,d12bw,465,test
592.5838947296143,4,2,0,5,1,3,M,1,2,1,0,1000,250.0,2,d12bw,466,test
1104.6578884124756,4,2,0,5,1,3,M,1,3,5,0,1000,250.0,3,d12bw,467,test
1200.4261016845703,4,2,0,5,1,3,M,1,0,2,0,1000,250.0,0,d12bw,468,test
448.4410285949707,4,2,0,5,1,3,M,1,0,2,0,1000,250.0,0,d12bw,469,test
480.5748462677002,4,2,0,5,1,3,M,1,0,2,0,1000,250.0,0,d12bw,470,test
800.4751205444336,4,2,0,5,1,3,M,1,1,4,0,1000,250.0,1,d12bw,471,test
784.5230102539062,4,2,0,5,1,3,M,1,1,4,0,1000,250.0,1,d12bw,472,test
384.4897747039795,4,2,0,5,1,3,M,1,1,4,0,1000,250.0,1,d12bw,473,test
1120.6870079040527,4,2,0,5,1,3,M,1,3,5,0,1000,250.0,3,d12bw,474,test
529.2308330535889,4,2,0,5,1,3,M,1,1,4,0,1000,250.0,1,d12bw,475,test
672.4710464477539,4,2,0,5,1,3,M,1,5,3,0,1000,250.0,5,d12bw,476,test
592.465877532959,4,2,0,5,1,3,M,1,5,3,0,1000,250.0,5,d12bw,477,test
784.5408916473389,4,2,0,5,1,3,M,1,3,5,0,1000,250.0,3,d12bw,478,test
928.5128116607666,4,2,0,5,1,3,M,1,3,5,0,1000,250.0,3,d12bw,479,test
592.5600528717041,4,2,0,5,1,3,M,1,5,3,0,1000,250.0,5,d12bw,480,test
640.6409740447998,4,2,0,5,1,3,M,1,3,5,0,1000,250.0,3,d12bw,481,test
800.6200790405273,4,2,0,5,1,3,M,1,2,1,0,1000,250.0,2,d12bw,482,test
512.5439167022705,4,2,0,5,1,3,M,1,2,1,0,1000,250.0,2,d12bw,483,test
896.4240550994873,4,2,0,5,1,3,M,1,3,5,0,1000,250.0,3,d12bw,484,test
512.4900341033936,4,2,0,5,1,3,M,1,0,2,0,1000,250.0,0,d12bw,485,test
640.5801773071289,4,2,0,5,1,3,M,1,3,5,0,1000,250.0,3,d12bw,486,test
800.6091117858887,4,2,0,5,1,3,M,1,4,0,0,1000,250.0,4,d12bw,487,test
800.6300926208496,4,2,0,5,1,3,M,1,1,4,0,1000,250.0,1,d12bw,488,test
768.6009407043457,4,2,0,5,1,3,M,1,0,2,0,1000,250.0,0,d12bw,489,test
784.527063369751,4,2,0,5,1,3,M,1,3,5,0,1000,250.0,3,d12bw,490,test
672.5208759307861,4,2,0,5,1,3,M,1,1,4,0,1000,250.0,1,d12bw,491,test
800.5709648132324,4,2,0,5,1,3,M,1,2,1,0,1000,250.0,2,d12bw,492,test
864.5319938659668,4,2,0,5,1,3,M,1,1,4,0,1000,250.0,1,d12bw,493,test
560.48583984375,4,2,0,5,1,3,M,1,1,4,0,1000,250.0,1,d12bw,494,test
864.5248413085938,4,2,0,5,1,3,M,1,5,3,0,1000,250.0,5,d12bw,495,test
1041.234016418457,4,2,0,5,1,3,M,1,4,0,0,1000,250.0,4,d12bw,496,test
1216.5610790252686,4,2,0,5,1,3,M,1,4,0,0,1000,250.0,4,d12bw,497,test
576.5061378479004,4,2,0,5,1,3,M,1,5,3,0,1000,250.0,5,d12bw,498,test
1104.5432090759277,4,2,0,5,1,3,M,1,4,0,0,1000,250.0,4,d12bw,499,test
