RT,SRmap_0,SRmap_1,SRmap_2,SRmap_3,SRmap_4,SRmap_5,condition,correct,correct_response,curstim,ms-precue,ms-prestimblank,ntrials,response,subject,trial,type
2015.5580043792725,4,2,5,1,0,3,M,1,3,5,0,1000,250.0,3,e12jt,0,train
640.5119895935059,4,2,5,1,0,3,M,1,0,4,0,1000,250.0,0,e12jt,1,train
528.6118984222412,4,2,5,1,0,3,M,1,0,4,0,1000,250.0,0,e12jt,2,train
736.5829944610596,4,2,5,1,0,3,M,1,4,0,0,1000,250.0,4,e12jt,3,train
464.8020267486572,4,2,5,1,0,3,M,1,5,2,0,1000,250.0,5,e12jt,4,train
768.5689926147461,4,2,5,1,0,3,M,1,4,0,0,1000,250.0,4,e12jt,5,train
417.07515716552734,4,2,5,1,0,3,M,1,1,3,0,1000,250.0,1,e12jt,6,train
736.7620468139648,4,2,5,1,0,3,M,1,4,0,0,1000,250.0,4,e12jt,7,train
545.0730323791504,4,2,5,1,0,3,M,1,0,4,0,1000,250.0,0,e12jt,8,train
752.9740333557129,4,2,5,1,0,3,M,1,4,0,0,1000,250.0,4,e12jt,9,train
529.0970802307129,4,2,5,1,0,3,M,1,0,4,0,1000,250.0,0,e12jt,10,train
512.7608776092529,4,2,5,1,0,3,M,1,0,4,0,1000,250.0,0,e12jt,11,train
657.1559906005859,4,2,5,1,0,3,M,1,5,2,0,1000,250.0,5,e12jt,12,train
561.1181259155273,4,2,5,1,0,3,M,1,5,2,0,1000,250.0,5,e12jt,13,train
561.0668659210205,4,2,5,1,0,3,M,0,2,1,0,1000,250.0,1,e12jt,14,train
544.7099208831787,4,2,5,1,0,3,M,1,0,4,0,1000,250.0,0,e12jt,15,train
497.0240592956543,4,2,5,1,0,3,M,1,0,4,0,1000,250.0,0,e12jt,16,train
657.0868492126465,4,2,5,1,0,3,M,0,3,5,0,1000,250.0,4,e12jt,17,train
753.0980110168457,4,2,5,1,0,3,M,1,4,0,0,1000,250.0,4,e12jt,18,train
561.2008571624756,4,2,5,1,0,3,M,1,4,0,0,1000,250.0,4,e12jt,19,train
577.0940780639648,4,2,5,1,0,3,M,1,5,2,0,1000,250.0,5,e12jt,20,train
609.1461181640625,4,2,5,1,0,3,M,1,5,2,0,1000,250.0,5,e12jt,21,train
512.9210948944092,4,2,5,1,0,3,M,1,0,4,0,1000,250.0,0,e12jt,22,train
769.04296875,4,2,5,1,0,3,M,1,4,0,0,1000,250.0,4,e12jt,23,train
737.1840476989746,4,2,5,1,0,3,M,1,2,1,0,1000,250.0,2,e12jt,24,train
720.9300994873047,4,2,5,1,0,3,M,1,1,3,0,1000,250.0,1,e12jt,25,train
592.9830074310303,4,2,5,1,0,3,M,1,0,4,0,1000,250.0,0,e12jt,26,train
545.1149940490723,4,2,5,1,0,3,M,1,2,1,0,1000,250.0,2,e12jt,27,train
609.1651916503906,4,2,5,1,0,3,M,1,1,3,0,1000,250.0,1,e12jt,28,train
769.0079212188721,4,2,5,1,0,3,M,1,2,1,0,1000,250.0,2,e12jt,29,train
721.0729122161865,4,2,5,1,0,3,M,1,4,0,0,1000,250.0,4,e12jt,30,train
481.18114471435547,4,2,5,1,0,3,M,1,5,2,0,1000,250.0,5,e12jt,31,train
641.1430835723877,4,2,5,1,0,3,M,1,2,1,0,1000,250.0,2,e12jt,32,train
785.2740287780762,4,2,5,1,0,3,M,1,3,5,0,1000,250.0,3,e12jt,33,train
576.8129825592041,4,2,5,1,0,3,M,1,1,3,0,1000,250.0,1,e12jt,34,train
625.2679824829102,4,2,5,1,0,3,M,1,2,1,0,1000,250.0,2,e12jt,35,train
865.2040958404541,4,2,5,1,0,3,M,1,4,0,0,1000,250.0,4,e12jt,36,train
513.2119655609131,4,2,5,1,0,3,M,1,1,3,0,1000,250.0,1,e12jt,37,train
465.1761054992676,4,2,5,1,0,3,M,1,2,1,0,1000,250.0,2,e12jt,38,train
513.139009475708,4,2,5,1,0,3,M,1,0,4,0,1000,250.0,0,e12jt,39,train
609.201192855835,4,2,5,1,0,3,M,1,5,2,0,1000,250.0,5,e12jt,40,train
961.1549377441406,4,2,5,1,0,3,M,1,3,5,0,1000,250.0,3,e12jt,41,train
641.1759853363037,4,2,5,1,0,3,M,1,5,2,0,1000,250.0,5,e12jt,42,train
865.1988506317139,4,2,5,1,0,3,M,1,3,5,0,1000,250.0,3,e12jt,43,train
481.2479019165039,4,2,5,1,0,3,M,1,0,4,0,1000,250.0,0,e12jt,44,train
417.15288162231445,4,2,5,1,0,3,M,1,1,3,0,1000,250.0,1,e12jt,45,train
608.9460849761963,4,2,5,1,0,3,M,1,1,3,0,1000,250.0,1,e12jt,46,train
945.2550411224365,4,2,5,1,0,3,M,1,4,0,0,1000,250.0,4,e12jt,47,train
817.0890808105469,4,2,5,1,0,3,M,1,3,5,0,1000,250.0,3,e12jt,48,train
656.7769050598145,4,2,5,1,0,3,M,1,4,0,0,1000,250.0,4,e12jt,49,train
624.7749328613281,4,2,5,1,0,3,M,1,5,2,0,1000,250.0,5,e12jt,50,train
720.8240032196045,4,2,5,1,0,3,M,1,3,5,0,1000,250.0,3,e12jt,51,train
512.8090381622314,4,2,5,1,0,3,M,1,0,4,0,1000,250.0,0,e12jt,52,train
416.75305366516113,4,2,5,1,0,3,M,1,1,3,0,1000,250.0,1,e12jt,53,train
752.8600692749023,4,2,5,1,0,3,M,1,3,5,0,1000,250.0,3,e12jt,54,train
1056.8301677703857,4,2,5,1,0,3,M,1,3,5,0,1000,250.0,3,e12jt,55,train
640.751838684082,4,2,5,1,0,3,M,1,2,1,0,1000,250.0,2,e12jt,56,train
832.6108455657959,4,2,5,1,0,3,M,1,4,0,0,1000,250.0,4,e12jt,57,train
576.7619609832764,4,2,5,1,0,3,M,1,1,3,0,1000,250.0,1,e12jt,58,train
672.7969646453857,4,2,5,1,0,3,M,1,5,2,0,1000,250.0,5,e12jt,59,train
1056.6151142120361,4,2,5,1,0,3,M,1,4,0,0,1000,250.0,4,e12jt,60,train
704.8039436340332,4,2,5,1,0,3,M,1,1,3,0,1000,250.0,1,e12jt,61,train
544.7061061859131,4,2,5,1,0,3,M,1,1,3,0,1000,250.0,1,e12jt,62,train
544.8179244995117,4,2,5,1,0,3,M,1,2,1,0,1000,250.0,2,e12jt,63,train
800.8310794830322,4,2,5,1,0,3,M,1,3,5,0,1000,250.0,3,e12jt,64,train
624.7498989105225,4,2,5,1,0,3,M,1,5,2,0,1000,250.0,5,e12jt,65,train
608.7331771850586,4,2,5,1,0,3,M,1,1,3,0,1000,250.0,1,e12jt,66,train
736.7851734161377,4,2,5,1,0,3,M,0,4,0,0,1000,250.0,3,e12jt,67,train
576.76100730896,4,2,5,1,0,3,M,1,0,4,0,1000,250.0,0,e12jt,68,train
512.6428604125977,4,2,5,1,0,3,M,1,0,4,0,1000,250.0,0,e12jt,69,train
576.8120288848877,4,2,5,1,0,3,M,0,4,0,0,1000,250.0,5,e12jt,70,train
528.8360118865967,4,2,5,1,0,3,M,1,0,4,0,1000,250.0,0,e12jt,71,train
544.623851776123,4,2,5,1,0,3,M,1,0,4,0,1000,250.0,0,e12jt,72,train
1488.87300491333,4,2,5,1,0,3,M,1,4,0,0,1000,250.0,4,e12jt,73,train
544.6219444274902,4,2,5,1,0,3,M,1,0,4,0,1000,250.0,0,e12jt,74,train
736.7310523986816,4,2,5,1,0,3,M,1,2,1,0,1000,250.0,2,e12jt,75,train
848.6390113830566,4,2,5,1,0,3,M,1,4,0,0,1000,250.0,4,e12jt,76,train
816.7479038238525,4,2,5,1,0,3,M,1,3,5,0,1000,250.0,3,e12jt,77,train
528.7179946899414,4,2,5,1,0,3,M,1,0,4,0,1000,250.0,0,e12jt,78,train
784.6770286560059,4,2,5,1,0,3,M,0,3,5,0,1000,250.0,4,e12jt,79,train
560.8079433441162,4,2,5,1,0,3,M,1,2,1,0,1000,250.0,2,e12jt,80,train
816.9631958007812,4,2,5,1,0,3,M,1,5,2,0,1000,250.0,5,e12jt,81,train
688.6870861053467,4,2,5,1,0,3,M,1,2,1,0,1000,250.0,2,e12jt,82,train
608.6180210113525,4,2,5,1,0,3,M,1,2,1,0,1000,250.0,2,e12jt,83,train
608.6859703063965,4,2,5,1,0,3,M,1,3,5,0,1000,250.0,3,e12jt,84,train
544.5640087127686,4,2,5,1,0,3,M,0,2,1,0,1000,250.0,1,e12jt,85,train
928.8458824157715,4,2,5,1,0,3,M,1,4,0,0,1000,250.0,4,e12jt,86,train
672.9271411895752,4,2,5,1,0,3,M,1,4,0,0,1000,250.0,4,e12jt,87,train
592.6129817962646,4,2,5,1,0,3,M,1,0,4,0,1000,250.0,0,e12jt,88,train
672.6958751678467,4,2,5,1,0,3,M,1,5,2,0,1000,250.0,5,e12jt,89,train
608.7539196014404,4,2,5,1,0,3,M,1,4,0,0,1000,250.0,4,e12jt,90,train
400.5448818206787,4,2,5,1,0,3,M,1,3,5,0,1000,250.0,3,e12jt,91,train
480.73410987854004,4,2,5,1,0,3,M,1,0,4,0,1000,250.0,0,e12jt,92,train
592.7581787109375,4,2,5,1,0,3,M,0,2,1,0,1000,250.0,1,e12jt,93,train
560.791015625,4,2,5,1,0,3,M,1,1,3,0,1000,250.0,1,e12jt,94,train
1248.6419677734375,4,2,5,1,0,3,M,1,4,0,0,1000,250.0,4,e12jt,95,train
640.7191753387451,4,2,5,1,0,3,M,1,2,1,0,1000,250.0,2,e12jt,96,train
672.9598045349121,4,2,5,1,0,3,M,1,4,0,0,1000,250.0,4,e12jt,97,train
848.6921787261963,4,2,5,1,0,3,M,1,1,3,0,1000,250.0,1,e12jt,98,train
672.8358268737793,4,2,5,1,0,3,M,1,5,2,0,1000,250.0,5,e12jt,99,train
912.8170013427734,4,2,5,1,0,3,M,1,3,5,0,1000,250.0,3,e12jt,100,train
608.6227893829346,4,2,5,1,0,3,M,1,1,3,0,1000,250.0,1,e12jt,101,train
752.6860237121582,4,2,5,1,0,3,M,0,4,0,0,1000,250.0,3,e12jt,102,train
640.8159732818604,4,2,5,1,0,3,M,1,2,1,0,1000,250.0,2,e12jt,103,train
640.7151222229004,4,2,5,1,0,3,M,1,2,1,0,1000,250.0,2,e12jt,104,train
576.6148567199707,4,2,5,1,0,3,M,1,0,4,0,1000,250.0,0,e12jt,105,train
624.722957611084,4,2,5,1,0,3,M,1,3,5,0,1000,250.0,3,e12jt,106,train
544.741153717041,4,2,5,1,0,3,M,1,3,5,0,1000,250.0,3,e12jt,107,train
672.7921962738037,4,2,5,1,0,3,M,1,5,2,0,1000,250.0,5,e12jt,108,train
688.7900829315186,4,2,5,1,0,3,M,1,1,3,0,1000,250.0,1,e12jt,109,train
833.0278396606445,4,2,5,1,0,3,M,1,5,2,0,1000,250.0,5,e12jt,110,train
496.7231750488281,4,2,5,1,0,3,M,1,5,2,0,1000,250.0,5,e12jt,111,train
961.1151218414307,4,2,5,1,0,3,M,1,3,5,0,1000,250.0,3,e12jt,112,train
544.7800159454346,4,2,5,1,0,3,M,1,1,3,0,1000,250.0,1,e12jt,113,train
576.9557952880859,4,2,5,1,0,3,M,1,5,2,0,1000,250.0,5,e12jt,114,train
496.7539310455322,4,2,5,1,0,3,M,1,5,2,0,1000,250.0,5,e12jt,115,train
592.7989482879639,4,2,5,1,0,3,M,1,3,5,0,1000,250.0,3,e12jt,116,train
544.8489189147949,4,2,5,1,0,3,M,1,0,4,0,1000,250.0,0,e12jt,117,train
800.8410930633545,4,2,5,1,0,3,M,0,4,0,0,1000,250.0,3,e12jt,118,train
576.7688751220703,4,2,5,1,0,3,M,1,0,4,0,1000,250.0,0,e12jt,119,train
624.7961521148682,4,2,5,1,0,3,M,1,2,1,0,1000,250.0,2,e12jt,120,train
624.8760223388672,4,2,5,1,0,3,M,1,5,2,0,1000,250.0,5,e12jt,121,train
496.7389106750488,4,2,5,1,0,3,M,1,5,2,0,1000,250.0,5,e12jt,122,train
864.9649620056152,4,2,5,1,0,3,M,1,4,0,0,1000,250.0,4,e12jt,123,train
1216.752052307129,4,2,5,1,0,3,M,1,5,2,0,1000,250.0,5,e12jt,124,train
672.8100776672363,4,2,5,1,0,3,M,1,2,1,0,1000,250.0,2,e12jt,125,train
752.7928352355957,4,2,5,1,0,3,M,1,4,0,0,1000,250.0,4,e12jt,126,train
640.7489776611328,4,2,5,1,0,3,M,1,4,0,0,1000,250.0,4,e12jt,127,train
576.9109725952148,4,2,5,1,0,3,M,1,3,5,0,1000,250.0,3,e12jt,128,train
784.8520278930664,4,2,5,1,0,3,M,1,1,3,0,1000,250.0,1,e12jt,129,train
1104.8600673675537,4,2,5,1,0,3,M,1,4,0,0,1000,250.0,4,e12jt,130,train
512.8030776977539,4,2,5,1,0,3,M,1,4,0,0,1000,250.0,4,e12jt,131,train
448.81701469421387,4,2,5,1,0,3,M,1,4,0,0,1000,250.0,4,e12jt,132,train
464.7829532623291,4,2,5,1,0,3,M,1,0,4,0,1000,250.0,0,e12jt,133,train
608.773946762085,4,2,5,1,0,3,M,1,4,0,0,1000,250.0,4,e12jt,134,train
880.8228969573975,4,2,5,1,0,3,M,1,3,5,0,1000,250.0,3,e12jt,135,train
624.8161792755127,4,2,5,1,0,3,M,1,4,0,0,1000,250.0,4,e12jt,136,train
704.7548294067383,4,2,5,1,0,3,M,1,4,0,0,1000,250.0,4,e12jt,137,train
496.7770576477051,4,2,5,1,0,3,M,1,0,4,0,1000,250.0,0,e12jt,138,train
592.8080081939697,4,2,5,1,0,3,M,1,4,0,0,1000,250.0,4,e12jt,139,train
496.7939853668213,4,2,5,1,0,3,M,1,4,0,0,1000,250.0,4,e12jt,140,train
944.875955581665,4,2,5,1,0,3,M,1,3,5,0,1000,250.0,3,e12jt,141,train
640.8109664916992,4,2,5,1,0,3,M,1,5,2,0,1000,250.0,5,e12jt,142,train
560.621976852417,4,2,5,1,0,3,M,1,1,3,0,1000,250.0,1,e12jt,143,train
576.613187789917,4,2,5,1,0,3,M,1,3,5,0,1000,250.0,3,e12jt,144,train
624.6509552001953,4,2,5,1,0,3,M,1,5,2,0,1000,250.0,5,e12jt,145,train
624.9010562896729,4,2,5,1,0,3,M,1,3,5,0,1000,250.0,3,e12jt,146,train
592.7448272705078,4,2,5,1,0,3,M,1,3,5,0,1000,250.0,3,e12jt,147,train
576.6208171844482,4,2,5,1,0,3,M,1,1,3,0,1000,250.0,1,e12jt,148,train
528.7079811096191,4,2,5,1,0,3,M,1,0,4,0,1000,250.0,0,e12jt,149,train
592.7729606628418,4,2,5,1,0,3,M,1,2,1,0,1000,250.0,2,e12jt,150,train
528.7389755249023,4,2,5,1,0,3,M,1,5,2,0,1000,250.0,5,e12jt,151,train
640.7279968261719,4,2,5,1,0,3,M,1,1,3,0,1000,250.0,1,e12jt,152,train
608.8111400604248,4,2,5,1,0,3,M,0,3,5,0,1000,250.0,2,e12jt,153,train
656.836986541748,4,2,5,1,0,3,M,1,4,0,0,1000,250.0,4,e12jt,154,train
592.7450656890869,4,2,5,1,0,3,M,1,2,1,0,1000,250.0,2,e12jt,155,train
480.8001518249512,4,2,5,1,0,3,M,1,2,1,0,1000,250.0,2,e12jt,156,train
592.6551818847656,4,2,5,1,0,3,M,1,5,2,0,1000,250.0,5,e12jt,157,train
864.6500110626221,4,2,5,1,0,3,M,1,5,2,0,1000,250.0,5,e12jt,158,train
896.752119064331,4,2,5,1,0,3,M,1,3,5,0,1000,250.0,3,e12jt,159,train
544.7039604187012,4,2,5,1,0,3,M,1,5,2,0,1000,250.0,5,e12jt,160,train
656.6829681396484,4,2,5,1,0,3,M,1,2,1,0,1000,250.0,2,e12jt,161,train
1104.7770977020264,4,2,5,1,0,3,M,1,4,0,0,1000,250.0,4,e12jt,162,train
464.66708183288574,4,2,5,1,0,3,M,1,5,2,0,1000,250.0,5,e12jt,163,train
784.7170829772949,4,2,5,1,0,3,M,1,3,5,0,1000,250.0,3,e12jt,164,train
688.5979175567627,4,2,5,1,0,3,M,1,1,3,0,1000,250.0,1,e12jt,165,train
593.0049419403076,4,2,5,1,0,3,M,1,5,2,0,1000,250.0,5,e12jt,166,train
960.7019424438477,4,2,5,1,0,3,M,1,1,3,0,1000,250.0,1,e12jt,167,train
944.7669982910156,4,2,5,1,0,3,M,1,4,0,0,1000,250.0,4,e12jt,168,train
576.7149925231934,4,2,5,1,0,3,M,1,0,4,0,1000,250.0,0,e12jt,169,train
496.8130588531494,4,2,5,1,0,3,M,1,0,4,0,1000,250.0,0,e12jt,170,train
512.706995010376,4,2,5,1,0,3,M,1,5,2,0,1000,250.0,5,e12jt,171,train
576.6599178314209,4,2,5,1,0,3,M,1,0,4,0,1000,250.0,0,e12jt,172,train
752.6628971099854,4,2,5,1,0,3,M,1,3,5,0,1000,250.0,3,e12jt,173,train
688.6570453643799,4,2,5,1,0,3,M,1,4,0,0,1000,250.0,4,e12jt,174,train
865.0369644165039,4,2,5,1,0,3,M,1,2,1,0,1000,250.0,2,e12jt,175,train
593.209981918335,4,2,5,1,0,3,M,1,5,2,0,1000,250.0,5,e12jt,176,train
513.0090713500977,4,2,5,1,0,3,M,1,5,2,0,1000,250.0,5,e12jt,177,train
833.1871032714844,4,2,5,1,0,3,M,1,3,5,0,1000,250.0,3,e12jt,178,train
737.1220588684082,4,2,5,1,0,3,M,1,1,3,0,1000,250.0,1,e12jt,179,train
561.2149238586426,4,2,5,1,0,3,M,1,0,4,0,1000,250.0,0,e12jt,180,train
609.2329025268555,4,2,5,1,0,3,M,1,5,2,0,1000,250.0,5,e12jt,181,train
1201.1680603027344,4,2,5,1,0,3,M,1,4,0,0,1000,250.0,4,e12jt,182,train
817.2380924224854,4,2,5,1,0,3,M,1,3,5,0,1000,250.0,3,e12jt,183,train
609.2140674591064,4,2,5,1,0,3,M,1,4,0,0,1000,250.0,4,e12jt,184,train
512.7861499786377,4,2,5,1,0,3,M,1,0,4,0,1000,250.0,0,e12jt,185,train
481.10198974609375,4,2,5,1,0,3,M,0,4,0,0,1000,250.0,3,e12jt,186,train
833.2271575927734,4,2,5,1,0,3,M,1,2,1,0,1000,250.0,2,e12jt,187,train
529.1190147399902,4,2,5,1,0,3,M,1,1,3,0,1000,250.0,1,e12jt,188,train
641.2310600280762,4,2,5,1,0,3,M,1,1,3,0,1000,250.0,1,e12jt,189,train
721.2040424346924,4,2,5,1,0,3,M,1,3,5,0,1000,250.0,3,e12jt,190,train
672.8720664978027,4,2,5,1,0,3,M,1,1,3,0,1000,250.0,1,e12jt,191,train
753.2517910003662,4,2,5,1,0,3,M,1,5,2,0,1000,250.0,5,e12jt,192,train
737.0719909667969,4,2,5,1,0,3,M,1,3,5,0,1000,250.0,3,e12jt,193,train
512.9950046539307,4,2,5,1,0,3,M,1,0,4,0,1000,250.0,0,e12jt,194,train
609.1418266296387,4,2,5,1,0,3,M,1,5,2,0,1000,250.0,5,e12jt,195,train
529.1428565979004,4,2,5,1,0,3,M,1,5,2,0,1000,250.0,5,e12jt,196,train
577.225923538208,4,2,5,1,0,3,M,1,1,3,0,1000,250.0,1,e12jt,197,train
561.2168312072754,4,2,5,1,0,3,M,1,3,5,0,1000,250.0,3,e12jt,198,train
673.2261180877686,4,2,5,1,0,3,M,0,2,1,0,1000,250.0,1,e12jt,199,train
849.1799831390381,4,2,5,1,0,3,M,1,3,5,0,1000,250.0,3,e12jt,200,train
561.0818862915039,4,2,5,1,0,3,M,1,1,3,0,1000,250.0,1,e12jt,201,train
609.1728210449219,4,2,5,1,0,3,M,1,1,3,0,1000,250.0,1,e12jt,202,train
593.203067779541,4,2,5,1,0,3,M,1,2,1,0,1000,250.0,2,e12jt,203,train
528.9900302886963,4,2,5,1,0,3,M,1,0,4,0,1000,250.0,0,e12jt,204,train
624.7308254241943,4,2,5,1,0,3,M,1,2,1,0,1000,250.0,2,e12jt,205,train
624.6960163116455,4,2,5,1,0,3,M,1,4,0,0,1000,250.0,4,e12jt,206,train
576.6699314117432,4,2,5,1,0,3,M,1,2,1,0,1000,250.0,2,e12jt,207,train
560.5521202087402,4,2,5,1,0,3,M,1,0,4,0,1000,250.0,0,e12jt,208,train
960.4158401489258,4,2,5,1,0,3,M,0,4,0,0,1000,250.0,3,e12jt,209,train
512.6380920410156,4,2,5,1,0,3,M,1,4,0,0,1000,250.0,4,e12jt,210,train
576.7090320587158,4,2,5,1,0,3,M,1,2,1,0,1000,250.0,2,e12jt,211,train
592.9751396179199,4,2,5,1,0,3,M,1,4,0,0,1000,250.0,4,e12jt,212,train
848.8450050354004,4,2,5,1,0,3,M,1,3,5,0,1000,250.0,3,e12jt,213,train
733.5250377655029,4,2,5,1,0,3,M,1,3,5,0,1000,250.0,3,e12jt,214,train
608.828067779541,4,2,5,1,0,3,M,1,5,2,0,1000,250.0,5,e12jt,215,train
592.8070545196533,4,2,5,1,0,3,M,1,3,5,0,1000,250.0,3,e12jt,216,train
496.77014350891113,4,2,5,1,0,3,M,1,0,4,0,1000,250.0,0,e12jt,217,train
432.76190757751465,4,2,5,1,0,3,M,1,1,3,0,1000,250.0,1,e12jt,218,train
832.8690528869629,4,2,5,1,0,3,M,1,4,0,0,1000,250.0,4,e12jt,219,train
496.83094024658203,4,2,5,1,0,3,M,1,2,1,0,1000,250.0,2,e12jt,220,train
576.9329071044922,4,2,5,1,0,3,M,1,1,3,0,1000,250.0,1,e12jt,221,train
480.8239936828613,4,2,5,1,0,3,M,1,3,5,0,1000,250.0,3,e12jt,222,train
688.8229846954346,4,2,5,1,0,3,M,1,1,3,0,1000,250.0,1,e12jt,223,train
480.76701164245605,4,2,5,1,0,3,M,1,0,4,0,1000,250.0,0,e12jt,224,train
560.7891082763672,4,2,5,1,0,3,M,1,5,2,0,1000,250.0,5,e12jt,225,train
512.7642154693604,4,2,5,1,0,3,M,1,0,4,0,1000,250.0,0,e12jt,226,train
592.811107635498,4,2,5,1,0,3,M,1,4,0,0,1000,250.0,4,e12jt,227,train
608.7751388549805,4,2,5,1,0,3,M,1,2,1,0,1000,250.0,2,e12jt,228,train
528.8209915161133,4,2,5,1,0,3,M,1,0,4,0,1000,250.0,0,e12jt,229,train
720.789909362793,4,2,5,1,0,3,M,1,4,0,0,1000,250.0,4,e12jt,230,train
752.8669834136963,4,2,5,1,0,3,M,1,1,3,0,1000,250.0,1,e12jt,231,train
640.7279968261719,4,2,5,1,0,3,M,1,5,2,0,1000,250.0,5,e12jt,232,train
528.8410186767578,4,2,5,1,0,3,M,1,0,4,0,1000,250.0,0,e12jt,233,train
720.2610969543457,4,2,5,1,0,3,M,1,5,2,0,1000,250.0,5,e12jt,234,train
464.78915214538574,4,2,5,1,0,3,M,1,0,4,0,1000,250.0,0,e12jt,235,train
624.7007846832275,4,2,5,1,0,3,M,1,4,0,0,1000,250.0,4,e12jt,236,train
512.8209590911865,4,2,5,1,0,3,M,1,1,3,0,1000,250.0,1,e12jt,237,train
960.839033126831,4,2,5,1,0,3,M,1,3,5,0,1000,250.0,3,e12jt,238,train
592.8869247436523,4,2,5,1,0,3,M,1,2,1,0,1000,250.0,2,e12jt,239,train
592.818021774292,4,2,5,1,0,3,M,1,4,0,0,1000,250.0,4,e12jt,240,train
560.6238842010498,4,2,5,1,0,3,M,1,2,1,0,1000,250.0,2,e12jt,241,train
496.6461658477783,4,2,5,1,0,3,M,1,2,1,0,1000,250.0,2,e12jt,242,train
464.62392807006836,4,2,5,1,0,3,M,1,4,0,0,1000,250.0,4,e12jt,243,train
608.8440418243408,4,2,5,1,0,3,M,1,2,1,0,1000,250.0,2,e12jt,244,train
496.75798416137695,4,2,5,1,0,3,M,1,0,4,0,1000,250.0,0,e12jt,245,train
560.7919692993164,4,2,5,1,0,3,M,1,4,0,0,1000,250.0,4,e12jt,246,train
480.6790351867676,4,2,5,1,0,3,M,0,4,0,0,1000,250.0,2,e12jt,247,train
624.8378753662109,4,2,5,1,0,3,M,1,3,5,0,1000,250.0,3,e12jt,248,train
544.806957244873,4,2,5,1,0,3,M,1,0,4,0,1000,250.0,0,e12jt,249,train
15104.798078536987,4,2,5,1,0,3,M,1,2,1,0,1000,250.0,2,e12jt,250,test
1152.6060104370117,4,2,5,1,0,3,M,1,2,1,0,1000,250.0,2,e12jt,251,test
3216.494083404541,4,2,5,1,0,3,M,1,5,2,0,1000,250.0,5,e12jt,252,test
1376.7170906066895,4,2,5,1,0,3,M,1,4,0,0,1000,250.0,4,e12jt,253,test
1808.9580535888672,4,2,5,1,0,3,M,1,1,3,0,1000,250.0,1,e12jt,254,test
3392.693042755127,4,2,5,1,0,3,M,1,3,5,0,1000,250.0,3,e12jt,255,test
2608.696937561035,4,2,5,1,0,3,M,1,1,3,0,1000,250.0,1,e12jt,256,test
1472.7540016174316,4,2,5,1,0,3,M,1,2,1,0,1000,250.0,2,e12jt,257,test
1600.7740497589111,4,2,5,1,0,3,M,1,3,5,0,1000,250.0,3,e12jt,258,test
896.7568874359131,4,2,5,1,0,3,M,1,4,0,0,1000,250.0,4,e12jt,259,test
1904.8728942871094,4,2,5,1,0,3,M,1,3,5,0,1000,250.0,3,e12jt,260,test
848.7939834594727,4,2,5,1,0,3,M,1,3,5,0,1000,250.0,3,e12jt,261,test
1104.8009395599365,4,2,5,1,0,3,M,1,1,3,0,1000,250.0,1,e12jt,262,test
2032.9678058624268,4,2,5,1,0,3,M,1,0,4,0,1000,250.0,0,e12jt,263,test
1280.979871749878,4,2,5,1,0,3,M,1,2,1,0,1000,250.0,2,e12jt,264,test
1233.083963394165,4,2,5,1,0,3,M,1,3,5,0,1000,250.0,3,e12jt,265,test
704.6568393707275,4,2,5,1,0,3,M,1,2,1,0,1000,250.0,2,e12jt,266,test
1104.8250198364258,4,2,5,1,0,3,M,1,1,3,0,1000,250.0,1,e12jt,267,test
1809.1709613800049,4,2,5,1,0,3,M,1,4,0,0,1000,250.0,4,e12jt,268,test
800.9870052337646,4,2,5,1,0,3,M,1,2,1,0,1000,250.0,2,e12jt,269,test
737.1330261230469,4,2,5,1,0,3,M,1,5,2,0,1000,250.0,5,e12jt,270,test
1024.9779224395752,4,2,5,1,0,3,M,1,4,0,0,1000,250.0,4,e12jt,271,test
929.1548728942871,4,2,5,1,0,3,M,1,0,4,0,1000,250.0,0,e12jt,272,test
1521.1150646209717,4,2,5,1,0,3,M,1,3,5,0,1000,250.0,3,e12jt,273,test
721.1780548095703,4,2,5,1,0,3,M,1,3,5,0,1000,250.0,3,e12jt,274,test
512.5389099121094,4,2,5,1,0,3,M,1,3,5,0,1000,250.0,3,e12jt,275,test
577.0809650421143,4,2,5,1,0,3,M,1,5,2,0,1000,250.0,5,e12jt,276,test
593.1100845336914,4,2,5,1,0,3,M,1,3,5,0,1000,250.0,3,e12jt,277,test
1984.7910404205322,4,2,5,1,0,3,M,1,1,3,0,1000,250.0,1,e12jt,278,test
576.923131942749,4,2,5,1,0,3,M,1,1,3,0,1000,250.0,1,e12jt,279,test
912.9941463470459,4,2,5,1,0,3,M,1,4,0,0,1000,250.0,4,e12jt,280,test
561.1081123352051,4,2,5,1,0,3,M,1,5,2,0,1000,250.0,5,e12jt,281,test
625.1258850097656,4,2,5,1,0,3,M,1,4,0,0,1000,250.0,4,e12jt,282,test
593.1458473205566,4,2,5,1,0,3,M,1,5,2,0,1000,250.0,5,e12jt,283,test
865.1688098907471,4,2,5,1,0,3,M,1,4,0,0,1000,250.0,4,e12jt,284,test
737.2090816497803,4,2,5,1,0,3,M,1,2,1,0,1000,250.0,2,e12jt,285,test
641.1168575286865,4,2,5,1,0,3,M,1,5,2,0,1000,250.0,5,e12jt,286,test
609.1489791870117,4,2,5,1,0,3,M,1,5,2,0,1000,250.0,5,e12jt,287,test
577.0831108093262,4,2,5,1,0,3,M,1,5,2,0,1000,250.0,5,e12jt,288,test
833.2059383392334,4,2,5,1,0,3,M,1,3,5,0,1000,250.0,3,e12jt,289,test
497.1280097961426,4,2,5,1,0,3,M,1,3,5,0,1000,250.0,3,e12jt,290,test
449.084997177124,4,2,5,1,0,3,M,1,3,5,0,1000,250.0,3,e12jt,291,test
545.0770854949951,4,2,5,1,0,3,M,1,1,3,0,1000,250.0,1,e12jt,292,test
416.68701171875,4,2,5,1,0,3,M,1,2,1,0,1000,250.0,2,e12jt,293,test
977.1718978881836,4,2,5,1,0,3,M,1,1,3,0,1000,250.0,1,e12jt,294,test
545.1250076293945,4,2,5,1,0,3,M,1,2,1,0,1000,250.0,2,e12jt,295,test
657.0789813995361,4,2,5,1,0,3,M,1,5,2,0,1000,250.0,5,e12jt,296,test
625.0948905944824,4,2,5,1,0,3,M,1,5,2,0,1000,250.0,5,e12jt,297,test
1184.859037399292,4,2,5,1,0,3,M,1,3,5,0,1000,250.0,3,e12jt,298,test
720.9148406982422,4,2,5,1,0,3,M,1,0,4,0,1000,250.0,0,e12jt,299,test
864.8929595947266,4,2,5,1,0,3,M,1,3,5,0,1000,250.0,3,e12jt,300,test
673.0878353118896,4,2,5,1,0,3,M,1,3,5,0,1000,250.0,3,e12jt,301,test
593.0819511413574,4,2,5,1,0,3,M,1,5,2,0,1000,250.0,5,e12jt,302,test
641.1058902740479,4,2,5,1,0,3,M,1,3,5,0,1000,250.0,3,e12jt,303,test
640.9590244293213,4,2,5,1,0,3,M,1,0,4,0,1000,250.0,0,e12jt,304,test
720.9899425506592,4,2,5,1,0,3,M,1,4,0,0,1000,250.0,4,e12jt,305,test
640.9521102905273,4,2,5,1,0,3,M,1,2,1,0,1000,250.0,2,e12jt,306,test
672.9722023010254,4,2,5,1,0,3,M,1,0,4,0,1000,250.0,0,e12jt,307,test
561.0108375549316,4,2,5,1,0,3,M,1,5,2,0,1000,250.0,5,e12jt,308,test
688.960075378418,4,2,5,1,0,3,M,1,1,3,0,1000,250.0,1,e12jt,309,test
993.0069446563721,4,2,5,1,0,3,M,1,1,3,0,1000,250.0,1,e12jt,310,test
657.1340560913086,4,2,5,1,0,3,M,1,5,2,0,1000,250.0,5,e12jt,311,test
1025.0890254974365,4,2,5,1,0,3,M,1,4,0,0,1000,250.0,4,e12jt,312,test
657.0339202880859,4,2,5,1,0,3,M,1,3,5,0,1000,250.0,3,e12jt,313,test
689.140796661377,4,2,5,1,0,3,M,1,1,3,0,1000,250.0,1,e12jt,314,test
1793.1561470031738,4,2,5,1,0,3,M,1,3,5,0,1000,250.0,3,e12jt,315,test
608.6142063140869,4,2,5,1,0,3,M,1,3,5,0,1000,250.0,3,e12jt,316,test
481.1239242553711,4,2,5,1,0,3,M,1,3,5,0,1000,250.0,3,e12jt,317,test
560.8150959014893,4,2,5,1,0,3,M,1,4,0,0,1000,250.0,4,e12jt,318,test
640.9459114074707,4,2,5,1,0,3,M,1,0,4,0,1000,250.0,0,e12jt,319,test
577.038049697876,4,2,5,1,0,3,M,1,4,0,0,1000,250.0,4,e12jt,320,test
545.133113861084,4,2,5,1,0,3,M,1,5,2,0,1000,250.0,5,e12jt,321,test
529.123067855835,4,2,5,1,0,3,M,1,2,1,0,1000,250.0,2,e12jt,322,test
1393.1288719177246,4,2,5,1,0,3,M,1,3,5,0,1000,250.0,3,e12jt,323,test
624.8478889465332,4,2,5,1,0,3,M,1,3,5,0,1000,250.0,3,e12jt,324,test
481.1251163482666,4,2,5,1,0,3,M,1,4,0,0,1000,250.0,4,e12jt,325,test
657.128095626831,4,2,5,1,0,3,M,1,4,0,0,1000,250.0,4,e12jt,326,test
1745.192050933838,4,2,5,1,0,3,M,1,1,3,0,1000,250.0,1,e12jt,327,test
593.0759906768799,4,2,5,1,0,3,M,1,4,0,0,1000,250.0,4,e12jt,328,test
593.0328369140625,4,2,5,1,0,3,M,1,0,4,0,1000,250.0,0,e12jt,329,test
705.1341533660889,4,2,5,1,0,3,M,1,4,0,0,1000,250.0,4,e12jt,330,test
593.1341648101807,4,2,5,1,0,3,M,1,3,5,0,1000,250.0,3,e12jt,331,test
1121.1860179901123,4,2,5,1,0,3,M,1,4,0,0,1000,250.0,4,e12jt,332,test
657.0169925689697,4,2,5,1,0,3,M,1,0,4,0,1000,250.0,0,e12jt,333,test
577.1839618682861,4,2,5,1,0,3,M,1,5,2,0,1000,250.0,5,e12jt,334,test
1121.088981628418,4,2,5,1,0,3,M,1,1,3,0,1000,250.0,1,e12jt,335,test
609.1089248657227,4,2,5,1,0,3,M,1,3,5,0,1000,250.0,3,e12jt,336,test
625.1509189605713,4,2,5,1,0,3,M,1,3,5,0,1000,250.0,3,e12jt,337,test
688.9841556549072,4,2,5,1,0,3,M,1,3,5,0,1000,250.0,3,e12jt,338,test
592.9579734802246,4,2,5,1,0,3,M,1,3,5,0,1000,250.0,3,e12jt,339,test
2401.099920272827,4,2,5,1,0,3,M,1,1,3,0,1000,250.0,1,e12jt,340,test
768.5751914978027,4,2,5,1,0,3,M,1,4,0,0,1000,250.0,4,e12jt,341,test
881.201982498169,4,2,5,1,0,3,M,1,1,3,0,1000,250.0,1,e12jt,342,test
1041.2099361419678,4,2,5,1,0,3,M,1,4,0,0,1000,250.0,4,e12jt,343,test
705.1169872283936,4,2,5,1,0,3,M,1,4,0,0,1000,250.0,4,e12jt,344,test
481.1069965362549,4,2,5,1,0,3,M,1,5,2,0,1000,250.0,5,e12jt,345,test
913.1369590759277,4,2,5,1,0,3,M,1,3,5,0,1000,250.0,3,e12jt,346,test
593.1310653686523,4,2,5,1,0,3,M,1,4,0,0,1000,250.0,4,e12jt,347,test
656.7471027374268,4,2,5,1,0,3,M,1,0,4,0,1000,250.0,0,e12jt,348,test
673.1250286102295,4,2,5,1,0,3,M,1,4,0,0,1000,250.0,4,e12jt,349,test
625.1111030578613,4,2,5,1,0,3,M,1,2,1,0,1000,250.0,2,e12jt,350,test
481.1270236968994,4,2,5,1,0,3,M,1,5,2,0,1000,250.0,5,e12jt,351,test
528.6641120910645,4,2,5,1,0,3,M,1,2,1,0,1000,250.0,2,e12jt,352,test
752.9280185699463,4,2,5,1,0,3,M,1,4,0,0,1000,250.0,4,e12jt,353,test
993.2160377502441,4,2,5,1,0,3,M,1,2,1,0,1000,250.0,2,e12jt,354,test
641.1521434783936,4,2,5,1,0,3,M,1,1,3,0,1000,250.0,1,e12jt,355,test
513.049840927124,4,2,5,1,0,3,M,1,5,2,0,1000,250.0,5,e12jt,356,test
577.1279335021973,4,2,5,1,0,3,M,1,2,1,0,1000,250.0,2,e12jt,357,test
545.00412940979,4,2,5,1,0,3,M,0,3,5,0,1000,250.0,4,e12jt,358,test
608.9692115783691,4,2,5,1,0,3,M,1,0,4,0,1000,250.0,0,e12jt,359,test
561.1329078674316,4,2,5,1,0,3,M,1,1,3,0,1000,250.0,1,e12jt,360,test
705.1479816436768,4,2,5,1,0,3,M,1,3,5,0,1000,250.0,3,e12jt,361,test
672.8689670562744,4,2,5,1,0,3,M,1,3,5,0,1000,250.0,3,e12jt,362,test
625.1571178436279,4,2,5,1,0,3,M,1,5,2,0,1000,250.0,5,e12jt,363,test
752.9470920562744,4,2,5,1,0,3,M,1,2,1,0,1000,250.0,2,e12jt,364,test
1136.965036392212,4,2,5,1,0,3,M,1,1,3,0,1000,250.0,1,e12jt,365,test
561.1610412597656,4,2,5,1,0,3,M,1,0,4,0,1000,250.0,0,e12jt,366,test
849.0800857543945,4,2,5,1,0,3,M,1,1,3,0,1000,250.0,1,e12jt,367,test
593.1570529937744,4,2,5,1,0,3,M,1,2,1,0,1000,250.0,2,e12jt,368,test
1072.8418827056885,4,2,5,1,0,3,M,1,3,5,0,1000,250.0,3,e12jt,369,test
577.0959854125977,4,2,5,1,0,3,M,1,4,0,0,1000,250.0,4,e12jt,370,test
593.0790901184082,4,2,5,1,0,3,M,1,0,4,0,1000,250.0,0,e12jt,371,test
593.1220054626465,4,2,5,1,0,3,M,1,5,2,0,1000,250.0,5,e12jt,372,test
561.164140701294,4,2,5,1,0,3,M,0,0,4,0,1000,250.0,1,e12jt,373,test
609.1279983520508,4,2,5,1,0,3,M,1,2,1,0,1000,250.0,2,e12jt,374,test
1185.1799488067627,4,2,5,1,0,3,M,1,1,3,0,1000,250.0,1,e12jt,375,test
545.1500415802002,4,2,5,1,0,3,M,1,2,1,0,1000,250.0,2,e12jt,376,test
592.9861068725586,4,2,5,1,0,3,M,1,0,4,0,1000,250.0,0,e12jt,377,test
1041.2039756774902,4,2,5,1,0,3,M,1,4,0,0,1000,250.0,4,e12jt,378,test
961.1210823059082,4,2,5,1,0,3,M,1,1,3,0,1000,250.0,1,e12jt,379,test
561.1038208007812,4,2,5,1,0,3,M,1,2,1,0,1000,250.0,2,e12jt,380,test
833.1429958343506,4,2,5,1,0,3,M,1,4,0,0,1000,250.0,4,e12jt,381,test
593.1510925292969,4,2,5,1,0,3,M,1,0,4,0,1000,250.0,0,e12jt,382,test
752.9749870300293,4,2,5,1,0,3,M,1,0,4,0,1000,250.0,0,e12jt,383,test
609.1229915618896,4,2,5,1,0,3,M,1,5,2,0,1000,250.0,5,e12jt,384,test
769.1569328308105,4,2,5,1,0,3,M,1,3,5,0,1000,250.0,3,e12jt,385,test
625.1218318939209,4,2,5,1,0,3,M,1,0,4,0,1000,250.0,0,e12jt,386,test
560.9951019287109,4,2,5,1,0,3,M,1,5,2,0,1000,250.0,5,e12jt,387,test
561.0811710357666,4,2,5,1,0,3,M,1,5,2,0,1000,250.0,5,e12jt,388,test
704.9179077148438,4,2,5,1,0,3,M,1,3,5,0,1000,250.0,3,e12jt,389,test
545.0818538665771,4,2,5,1,0,3,M,1,5,2,0,1000,250.0,5,e12jt,390,test
705.0909996032715,4,2,5,1,0,3,M,1,0,4,0,1000,250.0,0,e12jt,391,test
929.1150569915771,4,2,5,1,0,3,M,0,1,3,0,1000,250.0,3,e12jt,392,test
625.0920295715332,4,2,5,1,0,3,M,1,2,1,0,1000,250.0,2,e12jt,393,test
1152.9860496520996,4,2,5,1,0,3,M,1,1,3,0,1000,250.0,1,e12jt,394,test
641.1330699920654,4,2,5,1,0,3,M,1,2,1,0,1000,250.0,2,e12jt,395,test
657.1059226989746,4,2,5,1,0,3,M,1,5,2,0,1000,250.0,5,e12jt,396,test
849.1830825805664,4,2,5,1,0,3,M,0,1,3,0,1000,250.0,3,e12jt,397,test
641.118049621582,4,2,5,1,0,3,M,1,2,1,0,1000,250.0,2,e12jt,398,test
593.0891036987305,4,2,5,1,0,3,M,1,2,1,0,1000,250.0,2,e12jt,399,test
641.0820484161377,4,2,5,1,0,3,M,1,5,2,0,1000,250.0,5,e12jt,400,test
657.1509838104248,4,2,5,1,0,3,M,1,0,4,0,1000,250.0,0,e12jt,401,test
577.125072479248,4,2,5,1,0,3,M,1,0,4,0,1000,250.0,0,e12jt,402,test
545.1130867004395,4,2,5,1,0,3,M,1,5,2,0,1000,250.0,5,e12jt,403,test
545.058012008667,4,2,5,1,0,3,M,1,4,0,0,1000,250.0,4,e12jt,404,test
497.14088439941406,4,2,5,1,0,3,M,1,4,0,0,1000,250.0,4,e12jt,405,test
801.0249137878418,4,2,5,1,0,3,M,1,3,5,0,1000,250.0,3,e12jt,406,test
513.167142868042,4,2,5,1,0,3,M,1,3,5,0,1000,250.0,3,e12jt,407,test
385.0839138031006,4,2,5,1,0,3,M,1,4,0,0,1000,250.0,4,e12jt,408,test
545.1421737670898,4,2,5,1,0,3,M,1,5,2,0,1000,250.0,5,e12jt,409,test
641.085147857666,4,2,5,1,0,3,M,1,0,4,0,1000,250.0,0,e12jt,410,test
1249.1519451141357,4,2,5,1,0,3,M,1,1,3,0,1000,250.0,1,e12jt,411,test
545.1219081878662,4,2,5,1,0,3,M,1,5,2,0,1000,250.0,5,e12jt,412,test
577.1100521087646,4,2,5,1,0,3,M,1,3,5,0,1000,250.0,3,e12jt,413,test
609.112024307251,4,2,5,1,0,3,M,1,2,1,0,1000,250.0,2,e12jt,414,test
609.1268062591553,4,2,5,1,0,3,M,1,0,4,0,1000,250.0,0,e12jt,415,test
689.1460418701172,4,2,5,1,0,3,M,1,3,5,0,1000,250.0,3,e12jt,416,test
385.0290775299072,4,2,5,1,0,3,M,1,4,0,0,1000,250.0,4,e12jt,417,test
609.1279983520508,4,2,5,1,0,3,M,1,0,4,0,1000,250.0,0,e12jt,418,test
577.1169662475586,4,2,5,1,0,3,M,1,0,4,0,1000,250.0,0,e12jt,419,test
609.0989112854004,4,2,5,1,0,3,M,1,3,5,0,1000,250.0,3,e12jt,420,test
641.1828994750977,4,2,5,1,0,3,M,1,2,1,0,1000,250.0,2,e12jt,421,test
624.7360706329346,4,2,5,1,0,3,M,1,0,4,0,1000,250.0,0,e12jt,422,test
640.700101852417,4,2,5,1,0,3,M,1,4,0,0,1000,250.0,4,e12jt,423,test
608.712911605835,4,2,5,1,0,3,M,1,0,4,0,1000,250.0,0,e12jt,424,test
512.401819229126,4,2,5,1,0,3,M,1,2,1,0,1000,250.0,2,e12jt,425,test
512.6731395721436,4,2,5,1,0,3,M,1,0,4,0,1000,250.0,0,e12jt,426,test
560.62912940979,4,2,5,1,0,3,M,1,2,1,0,1000,250.0,2,e12jt,427,test
864.7589683532715,4,2,5,1,0,3,M,1,1,3,0,1000,250.0,1,e12jt,428,test
560.7001781463623,4,2,5,1,0,3,M,1,5,2,0,1000,250.0,5,e12jt,429,test
896.7220783233643,4,2,5,1,0,3,M,1,3,5,0,1000,250.0,3,e12jt,430,test
784.7120761871338,4,2,5,1,0,3,M,1,1,3,0,1000,250.0,1,e12jt,431,test
688.8108253479004,4,2,5,1,0,3,M,1,4,0,0,1000,250.0,4,e12jt,432,test
608.6568832397461,4,2,5,1,0,3,M,1,5,2,0,1000,250.0,5,e12jt,433,test
560.6281757354736,4,2,5,1,0,3,M,1,3,5,0,1000,250.0,3,e12jt,434,test
704.6310901641846,4,2,5,1,0,3,M,1,1,3,0,1000,250.0,1,e12jt,435,test
672.6529598236084,4,2,5,1,0,3,M,1,4,0,0,1000,250.0,4,e12jt,436,test
896.5649604797363,4,2,5,1,0,3,M,1,1,3,0,1000,250.0,1,e12jt,437,test
512.6738548278809,4,2,5,1,0,3,M,1,2,1,0,1000,250.0,2,e12jt,438,test
720.7350730895996,4,2,5,1,0,3,M,1,1,3,0,1000,250.0,1,e12jt,439,test
464.69902992248535,4,2,5,1,0,3,M,1,1,3,0,1000,250.0,1,e12jt,440,test
416.7139530181885,4,2,5,1,0,3,M,1,4,0,0,1000,250.0,4,e12jt,441,test
576.7650604248047,4,2,5,1,0,3,M,1,5,2,0,1000,250.0,5,e12jt,442,test
512.4871730804443,4,2,5,1,0,3,M,1,2,1,0,1000,250.0,2,e12jt,443,test
592.6711559295654,4,2,5,1,0,3,M,1,5,2,0,1000,250.0,5,e12jt,444,test
544.719934463501,4,2,5,1,0,3,M,1,2,1,0,1000,250.0,2,e12jt,445,test
768.765926361084,4,2,5,1,0,3,M,1,3,5,0,1000,250.0,3,e12jt,446,test
817.1899318695068,4,2,5,1,0,3,M,1,1,3,0,1000,250.0,1,e12jt,447,test
688.9901161193848,4,2,5,1,0,3,M,1,0,4,0,1000,250.0,0,e12jt,448,test
625.1018047332764,4,2,5,1,0,3,M,1,2,1,0,1000,250.0,2,e12jt,449,test
833.1849575042725,4,2,5,1,0,3,M,1,0,4,0,1000,250.0,0,e12jt,450,test
560.9409809112549,4,2,5,1,0,3,M,1,0,4,0,1000,250.0,0,e12jt,451,test
545.0799465179443,4,2,5,1,0,3,M,1,5,2,0,1000,250.0,5,e12jt,452,test
640.6829357147217,4,2,5,1,0,3,M,1,4,0,0,1000,250.0,4,e12jt,453,test
577.1479606628418,4,2,5,1,0,3,M,1,5,2,0,1000,250.0,5,e12jt,454,test
545.0999736785889,4,2,5,1,0,3,M,1,3,5,0,1000,250.0,3,e12jt,455,test
480.9298515319824,4,2,5,1,0,3,M,1,3,5,0,1000,250.0,3,e12jt,456,test
497.1201419830322,4,2,5,1,0,3,M,1,3,5,0,1000,250.0,3,e12jt,457,test
480.95107078552246,4,2,5,1,0,3,M,0,0,4,0,1000,250.0,3,e12jt,458,test
593.0349826812744,4,2,5,1,0,3,M,1,5,2,0,1000,250.0,5,e12jt,459,test
593.1439399719238,4,2,5,1,0,3,M,1,5,2,0,1000,250.0,5,e12jt,460,test
641.1669254302979,4,2,5,1,0,3,M,1,3,5,0,1000,250.0,3,e12jt,461,test
657.1731567382812,4,2,5,1,0,3,M,1,2,1,0,1000,250.0,2,e12jt,462,test
705.0609588623047,4,2,5,1,0,3,M,1,0,4,0,1000,250.0,0,e12jt,463,test
657.1500301361084,4,2,5,1,0,3,M,1,3,5,0,1000,250.0,3,e12jt,464,test
593.0509567260742,4,2,5,1,0,3,M,1,2,1,0,1000,250.0,2,e12jt,465,test
593.1589603424072,4,2,5,1,0,3,M,1,3,5,0,1000,250.0,3,e12jt,466,test
336.7331027984619,4,2,5,1,0,3,M,1,4,0,0,1000,250.0,4,e12jt,467,test
800.9390830993652,4,2,5,1,0,3,M,1,1,3,0,1000,250.0,1,e12jt,468,test
529.0589332580566,4,2,5,1,0,3,M,1,2,1,0,1000,250.0,2,e12jt,469,test
705.0189971923828,4,2,5,1,0,3,M,1,1,3,0,1000,250.0,1,e12jt,470,test
385.1320743560791,4,2,5,1,0,3,M,1,4,0,0,1000,250.0,4,e12jt,471,test
673.1569766998291,4,2,5,1,0,3,M,1,1,3,0,1000,250.0,1,e12jt,472,test
561.1059665679932,4,2,5,1,0,3,M,1,0,4,0,1000,250.0,0,e12jt,473,test
689.1379356384277,4,2,5,1,0,3,M,1,4,0,0,1000,250.0,4,e12jt,474,test
481.13012313842773,4,2,5,1,0,3,M,0,5,2,0,1000,250.0,2,e12jt,475,test
833.1661224365234,4,2,5,1,0,3,M,1,1,3,0,1000,250.0,1,e12jt,476,test
561.1329078674316,4,2,5,1,0,3,M,0,1,3,0,1000,250.0,3,e12jt,477,test
609.1358661651611,4,2,5,1,0,3,M,1,5,2,0,1000,250.0,5,e12jt,478,test
1088.865041732788,4,2,5,1,0,3,M,1,1,3,0,1000,250.0,1,e12jt,479,test
593.1568145751953,4,2,5,1,0,3,M,1,0,4,0,1000,250.0,0,e12jt,480,test
641.1459445953369,4,2,5,1,0,3,M,1,4,0,0,1000,250.0,4,e12jt,481,test
641.0980224609375,4,2,5,1,0,3,M,1,1,3,0,1000,250.0,1,e12jt,482,test
577.0621299743652,4,2,5,1,0,3,M,1,5,2,0,1000,250.0,5,e12jt,483,test
625.0340938568115,4,2,5,1,0,3,M,1,5,2,0,1000,250.0,5,e12jt,484,test
673.1081008911133,4,2,5,1,0,3,M,1,4,0,0,1000,250.0,4,e12jt,485,test
561.0771179199219,4,2,5,1,0,3,M,1,5,2,0,1000,250.0,5,e12jt,486,test
1393.0840492248535,4,2,5,1,0,3,M,1,3,5,0,1000,250.0,3,e12jt,487,test
577.1670341491699,4,2,5,1,0,3,M,1,0,4,0,1000,250.0,0,e12jt,488,test
528.857946395874,4,2,5,1,0,3,M,1,5,2,0,1000,250.0,5,e12jt,489,test
481.13012313842773,4,2,5,1,0,3,M,1,5,2,0,1000,250.0,5,e12jt,490,test
593.1110382080078,4,2,5,1,0,3,M,1,2,1,0,1000,250.0,2,e12jt,491,test
512.7608776092529,4,2,5,1,0,3,M,1,2,1,0,1000,250.0,2,e12jt,492,test
577.1510601043701,4,2,5,1,0,3,M,1,4,0,0,1000,250.0,4,e12jt,493,test
576.8909454345703,4,2,5,1,0,3,M,1,5,2,0,1000,250.0,5,e12jt,494,test
529.1271209716797,4,2,5,1,0,3,M,1,4,0,0,1000,250.0,4,e12jt,495,test
609.1079711914062,4,2,5,1,0,3,M,1,3,5,0,1000,250.0,3,e12jt,496,test
736.7258071899414,4,2,5,1,0,3,M,1,4,0,0,1000,250.0,4,e12jt,497,test
417.1149730682373,4,2,5,1,0,3,M,1,3,5,0,1000,250.0,3,e12jt,498,test
673.0740070343018,4,2,5,1,0,3,M,1,0,4,0,1000,250.0,0,e12jt,499,test
