RT,SRmap_0,SRmap_1,SRmap_2,SRmap_3,SRmap_4,SRmap_5,condition,correct,correct_response,curstim,ms-precue,ms-prestimblank,ntrials,response,subject,trial,type
2206.374168395996,1,2,0,3,5,4,E-,1,2,1,400,600,250.0,2,E11MW,0,train
799.3659973144531,1,2,0,3,5,4,E-,1,3,3,400,600,250.0,3,E11MW,1,train
175.28200149536133,1,2,0,3,5,4,E-,1,4,5,400,600,250.0,4,E11MW,2,train
399.22595024108887,1,2,0,3,5,4,E-,1,4,5,400,600,250.0,4,E11MW,3,train
303.2238483428955,1,2,0,3,5,4,E-,1,3,3,400,600,250.0,3,E11MW,4,train
207.4718475341797,1,2,0,3,5,4,E-,1,1,0,400,600,250.0,1,E11MW,5,train
367.5680160522461,1,2,0,3,5,4,E-,1,3,3,400,600,250.0,3,E11MW,6,train
207.3080539703369,1,2,0,3,5,4,E-,1,4,5,400,600,250.0,4,E11MW,7,train
223.26111793518066,1,2,0,3,5,4,E-,1,3,3,400,600,250.0,3,E11MW,8,train
319.20385360717773,1,2,0,3,5,4,E-,1,1,0,400,600,250.0,1,E11MW,9,train
287.2889041900635,1,2,0,3,5,4,E-,1,5,4,400,600,250.0,5,E11MW,10,train
15.414953231811523,1,2,0,3,5,4,E-,1,4,5,400,600,250.0,4,E11MW,11,train
127.3651123046875,1,2,0,3,5,4,E-,1,0,2,400,600,250.0,0,E11MW,12,train
159.25216674804688,1,2,0,3,5,4,E-,1,1,0,400,600,250.0,1,E11MW,13,train
31.394004821777344,1,2,0,3,5,4,E-,1,1,0,400,600,250.0,1,E11MW,14,train
223.3560085296631,1,2,0,3,5,4,E-,1,2,1,400,600,250.0,2,E11MW,15,train
127.2740364074707,1,2,0,3,5,4,E-,1,4,5,400,600,250.0,4,E11MW,16,train
127.29287147521973,1,2,0,3,5,4,E-,1,3,3,400,600,250.0,3,E11MW,17,train
127.32386589050293,1,2,0,3,5,4,E-,1,0,2,400,600,250.0,0,E11MW,18,train
63.291072845458984,1,2,0,3,5,4,E-,1,0,2,400,600,250.0,0,E11MW,19,train
79.33712005615234,1,2,0,3,5,4,E-,1,1,0,400,600,250.0,1,E11MW,20,train
111.36078834533691,1,2,0,3,5,4,E-,0,4,5,400,600,250.0,3,E11MW,21,train
335.31999588012695,1,2,0,3,5,4,E-,0,1,0,400,600,250.0,0,E11MW,22,train
31.573057174682617,1,2,0,3,5,4,E-,1,1,0,400,600,250.0,1,E11MW,23,train
239.18604850769043,1,2,0,3,5,4,E-,1,4,5,400,600,250.0,4,E11MW,24,train
31.344890594482422,1,2,0,3,5,4,E-,1,0,2,400,600,250.0,0,E11MW,25,train
0.05507469177246094,1,2,0,3,5,4,E-,1,1,0,400,600,250.0,1,E11MW,26,train
255.1591396331787,1,2,0,3,5,4,E-,1,2,1,400,600,250.0,2,E11MW,27,train
95.51405906677246,1,2,0,3,5,4,E-,1,1,0,400,600,250.0,1,E11MW,28,train
239.2261028289795,1,2,0,3,5,4,E-,1,5,4,400,600,250.0,5,E11MW,29,train
79.34212684631348,1,2,0,3,5,4,E-,1,1,0,400,600,250.0,1,E11MW,30,train
159.51085090637207,1,2,0,3,5,4,E-,1,3,3,400,600,250.0,3,E11MW,31,train
591.2411212921143,1,2,0,3,5,4,E-,1,4,5,400,600,250.0,4,E11MW,32,train
303.33995819091797,1,2,0,3,5,4,E-,1,3,3,400,600,250.0,3,E11MW,33,train
63.33303451538086,1,2,0,3,5,4,E-,1,1,0,400,600,250.0,1,E11MW,34,train
127.4421215057373,1,2,0,3,5,4,E-,1,1,0,400,600,250.0,1,E11MW,35,train
127.23207473754883,1,2,0,3,5,4,E-,0,4,5,400,600,250.0,3,E11MW,36,train
223.36912155151367,1,2,0,3,5,4,E-,1,2,1,400,600,250.0,2,E11MW,37,train
111.2828254699707,1,2,0,3,5,4,E-,1,4,5,400,600,250.0,4,E11MW,38,train
143.20802688598633,1,2,0,3,5,4,E-,1,5,4,400,600,250.0,5,E11MW,39,train
127.26092338562012,1,2,0,3,5,4,E-,1,0,2,400,600,250.0,0,E11MW,40,train
479.2780876159668,1,2,0,3,5,4,E-,1,3,3,400,600,250.0,3,E11MW,41,train
111.29403114318848,1,2,0,3,5,4,E-,1,5,4,400,600,250.0,5,E11MW,42,train
127.22396850585938,1,2,0,3,5,4,E-,1,5,4,400,600,250.0,5,E11MW,43,train
159.37399864196777,1,2,0,3,5,4,E-,0,1,0,400,600,250.0,0,E11MW,44,train
31.43596649169922,1,2,0,3,5,4,E-,1,1,0,400,600,250.0,1,E11MW,45,train
159.5299243927002,1,2,0,3,5,4,E-,1,2,1,400,600,250.0,2,E11MW,46,train
111.34982109069824,1,2,0,3,5,4,E-,1,0,2,400,600,250.0,0,E11MW,47,train
159.2710018157959,1,2,0,3,5,4,E-,0,4,5,400,600,250.0,5,E11MW,48,train
127.38919258117676,1,2,0,3,5,4,E-,0,1,0,400,600,250.0,0,E11MW,49,train
159.38591957092285,1,2,0,3,5,4,E-,1,2,1,400,600,250.0,2,E11MW,50,train
223.25396537780762,1,2,0,3,5,4,E-,1,3,3,400,600,250.0,3,E11MW,51,train
159.29198265075684,1,2,0,3,5,4,E-,1,1,0,400,600,250.0,1,E11MW,52,train
175.2629280090332,1,2,0,3,5,4,E-,1,3,3,400,600,250.0,3,E11MW,53,train
223.20890426635742,1,2,0,3,5,4,E-,1,2,1,400,600,250.0,2,E11MW,54,train
79.33712005615234,1,2,0,3,5,4,E-,0,3,3,400,600,250.0,4,E11MW,55,train
175.34399032592773,1,2,0,3,5,4,E-,1,5,4,400,600,250.0,5,E11MW,56,train
111.26995086669922,1,2,0,3,5,4,E-,1,1,0,400,600,250.0,1,E11MW,57,train
110.86583137512207,1,2,0,3,5,4,E-,1,0,2,400,600,250.0,0,E11MW,58,train
255.2659511566162,1,2,0,3,5,4,E-,1,4,5,400,600,250.0,4,E11MW,59,train
159.32893753051758,1,2,0,3,5,4,E-,1,1,0,400,600,250.0,1,E11MW,60,train
175.26912689208984,1,2,0,3,5,4,E-,1,5,4,400,600,250.0,5,E11MW,61,train
15.447139739990234,1,2,0,3,5,4,E-,1,0,2,400,600,250.0,0,E11MW,62,train
287.46509552001953,1,2,0,3,5,4,E-,1,2,1,400,600,250.0,2,E11MW,63,train
143.2650089263916,1,2,0,3,5,4,E-,1,5,4,400,600,250.0,5,E11MW,64,train
31.31890296936035,1,2,0,3,5,4,E-,1,0,2,400,600,250.0,0,E11MW,65,train
95.54600715637207,1,2,0,3,5,4,E-,1,0,2,400,600,250.0,0,E11MW,66,train
207.2010040283203,1,2,0,3,5,4,E-,0,3,3,400,600,250.0,2,E11MW,67,train
95.43800354003906,1,2,0,3,5,4,E-,1,5,4,400,600,250.0,5,E11MW,68,train
159.2700481414795,1,2,0,3,5,4,E-,1,1,0,400,600,250.0,1,E11MW,69,train
79.57005500793457,1,2,0,3,5,4,E-,1,2,1,400,600,250.0,2,E11MW,70,train
207.31306076049805,1,2,0,3,5,4,E-,1,5,4,400,600,250.0,5,E11MW,71,train
95.65520286560059,1,2,0,3,5,4,E-,1,3,3,400,600,250.0,3,E11MW,72,train
143.36204528808594,1,2,0,3,5,4,E-,1,1,0,400,600,250.0,1,E11MW,73,train
127.52413749694824,1,2,0,3,5,4,E-,1,0,2,400,600,250.0,0,E11MW,74,train
127.1519660949707,1,2,0,3,5,4,E-,1,5,4,400,600,250.0,5,E11MW,75,train
79.33807373046875,1,2,0,3,5,4,E-,1,0,2,400,600,250.0,0,E11MW,76,train
271.33893966674805,1,2,0,3,5,4,E-,1,4,5,400,600,250.0,4,E11MW,77,train
127.43592262268066,1,2,0,3,5,4,E-,1,4,5,400,600,250.0,4,E11MW,78,train
0.053882598876953125,1,2,0,3,5,4,E-,0,1,0,400,600,250.0,0,E11MW,79,train
63.26794624328613,1,2,0,3,5,4,E-,1,0,2,400,600,250.0,0,E11MW,80,train
239.2711639404297,1,2,0,3,5,4,E-,1,3,3,400,600,250.0,3,E11MW,81,train
143.27406883239746,1,2,0,3,5,4,E-,1,4,5,400,600,250.0,4,E11MW,82,train
495.38707733154297,1,2,0,3,5,4,E-,1,2,1,400,600,250.0,2,E11MW,83,train
127.27594375610352,1,2,0,3,5,4,E-,1,0,2,400,600,250.0,0,E11MW,84,train
239.32385444641113,1,2,0,3,5,4,E-,1,4,5,400,600,250.0,4,E11MW,85,train
127.33817100524902,1,2,0,3,5,4,E-,1,5,4,400,600,250.0,5,E11MW,86,train
175.3559112548828,1,2,0,3,5,4,E-,1,0,2,400,600,250.0,0,E11MW,87,train
175.51398277282715,1,2,0,3,5,4,E-,1,5,4,400,600,250.0,5,E11MW,88,train
367.31696128845215,1,2,0,3,5,4,E-,1,5,4,400,600,250.0,5,E11MW,89,train
111.35506629943848,1,2,0,3,5,4,E-,1,5,4,400,600,250.0,5,E11MW,90,train
127.23994255065918,1,2,0,3,5,4,E-,1,4,5,400,600,250.0,4,E11MW,91,train
191.36309623718262,1,2,0,3,5,4,E-,0,3,3,400,600,250.0,4,E11MW,92,train
95.39914131164551,1,2,0,3,5,4,E-,1,5,4,400,600,250.0,5,E11MW,93,train
335.2351188659668,1,2,0,3,5,4,E-,1,2,1,400,600,250.0,2,E11MW,94,train
191.61415100097656,1,2,0,3,5,4,E-,1,1,0,400,600,250.0,1,E11MW,95,train
143.35203170776367,1,2,0,3,5,4,E-,1,4,5,400,600,250.0,4,E11MW,96,train
127.7461051940918,1,2,0,3,5,4,E-,1,1,0,400,600,250.0,1,E11MW,97,train
47.91116714477539,1,2,0,3,5,4,E-,1,1,0,400,600,250.0,1,E11MW,98,train
111.02890968322754,1,2,0,3,5,4,E-,1,3,3,400,600,250.0,3,E11MW,99,train
287.322998046875,1,2,0,3,5,4,E-,0,2,1,400,600,250.0,1,E11MW,100,train
191.4999485015869,1,2,0,3,5,4,E-,1,3,3,400,600,250.0,3,E11MW,101,train
223.79088401794434,1,2,0,3,5,4,E-,1,2,1,400,600,250.0,2,E11MW,102,train
111.77778244018555,1,2,0,3,5,4,E-,1,2,1,400,600,250.0,2,E11MW,103,train
255.80096244812012,1,2,0,3,5,4,E-,1,1,0,400,600,250.0,1,E11MW,104,train
271.7568874359131,1,2,0,3,5,4,E-,1,2,1,400,600,250.0,2,E11MW,105,train
207.8380584716797,1,2,0,3,5,4,E-,1,5,4,400,600,250.0,5,E11MW,106,train
143.7849998474121,1,2,0,3,5,4,E-,1,5,4,400,600,250.0,5,E11MW,107,train
191.8010711669922,1,2,0,3,5,4,E-,1,4,5,400,600,250.0,4,E11MW,108,train
303.41196060180664,1,2,0,3,5,4,E-,1,0,2,400,600,250.0,0,E11MW,109,train
127.74205207824707,1,2,0,3,5,4,E-,1,1,0,400,600,250.0,1,E11MW,110,train
383.79979133605957,1,2,0,3,5,4,E-,1,4,5,400,600,250.0,4,E11MW,111,train
159.78002548217773,1,2,0,3,5,4,E-,1,2,1,400,600,250.0,2,E11MW,112,train
191.34187698364258,1,2,0,3,5,4,E-,1,5,4,400,600,250.0,5,E11MW,113,train
95.8259105682373,1,2,0,3,5,4,E-,1,4,5,400,600,250.0,4,E11MW,114,train
239.6409511566162,1,2,0,3,5,4,E-,1,2,1,400,600,250.0,2,E11MW,115,train
671.7500686645508,1,2,0,3,5,4,E-,1,0,2,400,600,250.0,0,E11MW,116,train
191.7550563812256,1,2,0,3,5,4,E-,1,5,4,400,600,250.0,5,E11MW,117,train
95.88789939880371,1,2,0,3,5,4,E-,0,2,1,400,600,250.0,4,E11MW,118,train
239.7768497467041,1,2,0,3,5,4,E-,1,2,1,400,600,250.0,2,E11MW,119,train
207.76700973510742,1,2,0,3,5,4,E-,1,5,4,400,600,250.0,5,E11MW,120,train
559.7259998321533,1,2,0,3,5,4,E-,1,4,5,400,600,250.0,4,E11MW,121,train
88.20796012878418,1,2,0,3,5,4,E-,1,2,1,400,600,250.0,2,E11MW,122,train
95.82901000976562,1,2,0,3,5,4,E-,0,3,3,400,600,250.0,4,E11MW,123,train
0.030994415283203125,1,2,0,3,5,4,E-,1,4,5,400,600,250.0,4,E11MW,124,train
111.63997650146484,1,2,0,3,5,4,E-,0,1,0,400,600,250.0,2,E11MW,125,train
127.71081924438477,1,2,0,3,5,4,E-,1,5,4,400,600,250.0,5,E11MW,126,train
95.75319290161133,1,2,0,3,5,4,E-,1,4,5,400,600,250.0,4,E11MW,127,train
159.81316566467285,1,2,0,3,5,4,E-,1,3,3,400,600,250.0,3,E11MW,128,train
223.77991676330566,1,2,0,3,5,4,E-,1,4,5,400,600,250.0,4,E11MW,129,train
95.82185745239258,1,2,0,3,5,4,E-,1,0,2,400,600,250.0,0,E11MW,130,train
79.86903190612793,1,2,0,3,5,4,E-,0,1,0,400,600,250.0,0,E11MW,131,train
111.49907112121582,1,2,0,3,5,4,E-,1,0,2,400,600,250.0,0,E11MW,132,train
223.78087043762207,1,2,0,3,5,4,E-,1,5,4,400,600,250.0,5,E11MW,133,train
143.92495155334473,1,2,0,3,5,4,E-,0,3,3,400,600,250.0,4,E11MW,134,train
64.0101432800293,1,2,0,3,5,4,E-,1,0,2,400,600,250.0,0,E11MW,135,train
111.81998252868652,1,2,0,3,5,4,E-,1,0,2,400,600,250.0,0,E11MW,136,train
143.90993118286133,1,2,0,3,5,4,E-,1,5,4,400,600,250.0,5,E11MW,137,train
255.6929588317871,1,2,0,3,5,4,E-,1,1,0,400,600,250.0,1,E11MW,138,train
95.88384628295898,1,2,0,3,5,4,E-,1,0,2,400,600,250.0,0,E11MW,139,train
47.85609245300293,1,2,0,3,5,4,E-,1,0,2,400,600,250.0,0,E11MW,140,train
143.3250904083252,1,2,0,3,5,4,E-,1,5,4,400,600,250.0,5,E11MW,141,train
127.36701965332031,1,2,0,3,5,4,E-,1,4,5,400,600,250.0,4,E11MW,142,train
191.48802757263184,1,2,0,3,5,4,E-,1,1,0,400,600,250.0,1,E11MW,143,train
95.4430103302002,1,2,0,3,5,4,E-,1,1,0,400,600,250.0,1,E11MW,144,train
255.2947998046875,1,2,0,3,5,4,E-,1,5,4,400,600,250.0,5,E11MW,145,train
79.33616638183594,1,2,0,3,5,4,E-,1,5,4,400,600,250.0,5,E11MW,146,train
79.09488677978516,1,2,0,3,5,4,E-,1,1,0,400,600,250.0,1,E11MW,147,train
47.33014106750488,1,2,0,3,5,4,E-,1,5,4,400,600,250.0,5,E11MW,148,train
463.37294578552246,1,2,0,3,5,4,E-,0,3,3,400,600,250.0,2,E11MW,149,train
127.09903717041016,1,2,0,3,5,4,E-,1,4,5,400,600,250.0,4,E11MW,150,train
95.2911376953125,1,2,0,3,5,4,E-,1,5,4,400,600,250.0,5,E11MW,151,train
63.414812088012695,1,2,0,3,5,4,E-,1,3,3,400,600,250.0,3,E11MW,152,train
111.29593849182129,1,2,0,3,5,4,E-,1,5,4,400,600,250.0,5,E11MW,153,train
63.25984001159668,1,2,0,3,5,4,E-,1,5,4,400,600,250.0,5,E11MW,154,train
31.24213218688965,1,2,0,3,5,4,E-,1,4,5,400,600,250.0,4,E11MW,155,train
207.19194412231445,1,2,0,3,5,4,E-,0,2,1,400,600,250.0,1,E11MW,156,train
751.5981197357178,1,2,0,3,5,4,E-,1,1,0,400,600,250.0,1,E11MW,157,train
95.23892402648926,1,2,0,3,5,4,E-,1,0,2,400,600,250.0,0,E11MW,158,train
255.22899627685547,1,2,0,3,5,4,E-,1,3,3,400,600,250.0,3,E11MW,159,train
111.16695404052734,1,2,0,3,5,4,E-,1,4,5,400,600,250.0,4,E11MW,160,train
303.2519817352295,1,2,0,3,5,4,E-,1,2,1,400,600,250.0,2,E11MW,161,train
207.5519561767578,1,2,0,3,5,4,E-,1,1,0,400,600,250.0,1,E11MW,162,train
127.44021415710449,1,2,0,3,5,4,E-,1,3,3,400,600,250.0,3,E11MW,163,train
63.39716911315918,1,2,0,3,5,4,E-,0,5,4,400,600,250.0,4,E11MW,164,train
271.2969779968262,1,2,0,3,5,4,E-,1,3,3,400,600,250.0,3,E11MW,165,train
31.373023986816406,1,2,0,3,5,4,E-,1,5,4,400,600,250.0,5,E11MW,166,train
95.3829288482666,1,2,0,3,5,4,E-,0,3,3,400,600,250.0,4,E11MW,167,train
191.35308265686035,1,2,0,3,5,4,E-,1,4,5,400,600,250.0,4,E11MW,168,train
175.51016807556152,1,2,0,3,5,4,E-,1,5,4,400,600,250.0,5,E11MW,169,train
111.24205589294434,1,2,0,3,5,4,E-,1,4,5,400,600,250.0,4,E11MW,170,train
207.7779769897461,1,2,0,3,5,4,E-,0,2,1,400,600,250.0,3,E11MW,171,train
47.9581356048584,1,2,0,3,5,4,E-,1,2,1,400,600,250.0,2,E11MW,172,train
207.18002319335938,1,2,0,3,5,4,E-,1,5,4,400,600,250.0,5,E11MW,173,train
143.2328224182129,1,2,0,3,5,4,E-,1,5,4,400,600,250.0,5,E11MW,174,train
223.26397895812988,1,2,0,3,5,4,E-,0,3,3,400,600,250.0,2,E11MW,175,train
127.43592262268066,1,2,0,3,5,4,E-,1,3,3,400,600,250.0,3,E11MW,176,train
319.2589282989502,1,2,0,3,5,4,E-,1,4,5,400,600,250.0,4,E11MW,177,train
239.30597305297852,1,2,0,3,5,4,E-,1,0,2,400,600,250.0,0,E11MW,178,train
15.35797119140625,1,2,0,3,5,4,E-,1,0,2,400,600,250.0,0,E11MW,179,train
127.4418830871582,1,2,0,3,5,4,E-,1,5,4,400,600,250.0,5,E11MW,180,train
143.61286163330078,1,2,0,3,5,4,E-,1,0,2,400,600,250.0,0,E11MW,181,train
47.33991622924805,1,2,0,3,5,4,E-,1,0,2,400,600,250.0,0,E11MW,182,train
95.01099586486816,1,2,0,3,5,4,E-,1,1,0,400,600,250.0,1,E11MW,183,train
159.2710018157959,1,2,0,3,5,4,E-,1,5,4,400,600,250.0,5,E11MW,184,train
143.30601692199707,1,2,0,3,5,4,E-,0,1,0,400,600,250.0,4,E11MW,185,train
127.43210792541504,1,2,0,3,5,4,E-,1,5,4,400,600,250.0,5,E11MW,186,train
175.28820037841797,1,2,0,3,5,4,E-,1,3,3,400,600,250.0,3,E11MW,187,train
175.22501945495605,1,2,0,3,5,4,E-,1,3,3,400,600,250.0,3,E11MW,188,train
287.37401962280273,1,2,0,3,5,4,E-,1,5,4,400,600,250.0,5,E11MW,189,train
303.3559322357178,1,2,0,3,5,4,E-,1,3,3,400,600,250.0,3,E11MW,190,train
79.87809181213379,1,2,0,3,5,4,E-,1,5,4,400,600,250.0,5,E11MW,191,train
95.7939624786377,1,2,0,3,5,4,E-,1,5,4,400,600,250.0,5,E11MW,192,train
239.73894119262695,1,2,0,3,5,4,E-,1,4,5,400,600,250.0,4,E11MW,193,train
48.01297187805176,1,2,0,3,5,4,E-,0,0,2,400,600,250.0,3,E11MW,194,train
80.01708984375,1,2,0,3,5,4,E-,1,5,4,400,600,250.0,5,E11MW,195,train
31.764984130859375,1,2,0,3,5,4,E-,1,1,0,400,600,250.0,1,E11MW,196,train
271.6231346130371,1,2,0,3,5,4,E-,1,4,5,400,600,250.0,4,E11MW,197,train
31.798839569091797,1,2,0,3,5,4,E-,1,5,4,400,600,250.0,5,E11MW,198,train
111.48810386657715,1,2,0,3,5,4,E-,1,4,5,400,600,250.0,4,E11MW,199,train
79.45394515991211,1,2,0,3,5,4,E-,1,0,2,400,600,250.0,0,E11MW,200,train
111.31501197814941,1,2,0,3,5,4,E-,0,2,1,400,600,250.0,1,E11MW,201,train
143.29099655151367,1,2,0,3,5,4,E-,1,1,0,400,600,250.0,1,E11MW,202,train
63.298940658569336,1,2,0,3,5,4,E-,1,1,0,400,600,250.0,1,E11MW,203,train
31.100034713745117,1,2,0,3,5,4,E-,1,1,0,400,600,250.0,1,E11MW,204,train
175.27294158935547,1,2,0,3,5,4,E-,0,4,5,400,600,250.0,3,E11MW,205,train
159.72208976745605,1,2,0,3,5,4,E-,0,1,0,400,600,250.0,3,E11MW,206,train
223.5708236694336,1,2,0,3,5,4,E-,1,3,3,400,600,250.0,3,E11MW,207,train
127.33101844787598,1,2,0,3,5,4,E-,1,4,5,400,600,250.0,4,E11MW,208,train
143.39303970336914,1,2,0,3,5,4,E-,1,0,2,400,600,250.0,0,E11MW,209,train
175.38118362426758,1,2,0,3,5,4,E-,0,4,5,400,600,250.0,3,E11MW,210,train
127.44688987731934,1,2,0,3,5,4,E-,1,0,2,400,600,250.0,0,E11MW,211,train
191.27297401428223,1,2,0,3,5,4,E-,1,2,1,400,600,250.0,2,E11MW,212,train
127.38585472106934,1,2,0,3,5,4,E-,1,4,5,400,600,250.0,4,E11MW,213,train
223.7548828125,1,2,0,3,5,4,E-,1,2,1,400,600,250.0,2,E11MW,214,train
415.91811180114746,1,2,0,3,5,4,E-,1,3,3,400,600,250.0,3,E11MW,215,train
79.76484298706055,1,2,0,3,5,4,E-,1,3,3,400,600,250.0,3,E11MW,216,train
31.94904327392578,1,2,0,3,5,4,E-,1,3,3,400,600,250.0,3,E11MW,217,train
95.56007385253906,1,2,0,3,5,4,E-,1,5,4,400,600,250.0,5,E11MW,218,train
47.33705520629883,1,2,0,3,5,4,E-,1,4,5,400,600,250.0,4,E11MW,219,train
79.32114601135254,1,2,0,3,5,4,E-,1,0,2,400,600,250.0,0,E11MW,220,train
191.35403633117676,1,2,0,3,5,4,E-,1,3,3,400,600,250.0,3,E11MW,221,train
111.8159294128418,1,2,0,3,5,4,E-,1,5,4,400,600,250.0,5,E11MW,222,train
111.7708683013916,1,2,0,3,5,4,E-,0,0,2,400,600,250.0,3,E11MW,223,train
95.39318084716797,1,2,0,3,5,4,E-,1,1,0,400,600,250.0,1,E11MW,224,train
111.7408275604248,1,2,0,3,5,4,E-,1,1,0,400,600,250.0,1,E11MW,225,train
111.25707626342773,1,2,0,3,5,4,E-,1,2,1,400,600,250.0,2,E11MW,226,train
127.54511833190918,1,2,0,3,5,4,E-,1,3,3,400,600,250.0,3,E11MW,227,train
143.39900016784668,1,2,0,3,5,4,E-,1,4,5,400,600,250.0,4,E11MW,228,train
335.2489471435547,1,2,0,3,5,4,E-,1,2,1,400,600,250.0,2,E11MW,229,train
143.27192306518555,1,2,0,3,5,4,E-,1,3,3,400,600,250.0,3,E11MW,230,train
159.44504737854004,1,2,0,3,5,4,E-,1,5,4,400,600,250.0,5,E11MW,231,train
127.36082077026367,1,2,0,3,5,4,E-,0,1,0,400,600,250.0,0,E11MW,232,train
95.42393684387207,1,2,0,3,5,4,E-,1,4,5,400,600,250.0,4,E11MW,233,train
79.30183410644531,1,2,0,3,5,4,E-,1,0,2,400,600,250.0,0,E11MW,234,train
479.26807403564453,1,2,0,3,5,4,E-,1,2,1,400,600,250.0,2,E11MW,235,train
111.37819290161133,1,2,0,3,5,4,E-,1,1,0,400,600,250.0,1,E11MW,236,train
47.38187789916992,1,2,0,3,5,4,E-,1,0,2,400,600,250.0,0,E11MW,237,train
159.20495986938477,1,2,0,3,5,4,E-,0,2,1,400,600,250.0,1,E11MW,238,train
238.77692222595215,1,2,0,3,5,4,E-,1,1,0,400,600,250.0,1,E11MW,239,train
175.3220558166504,1,2,0,3,5,4,E-,1,3,3,400,600,250.0,3,E11MW,240,train
127.5479793548584,1,2,0,3,5,4,E-,1,4,5,400,600,250.0,4,E11MW,241,train
143.33796501159668,1,2,0,3,5,4,E-,1,1,0,400,600,250.0,1,E11MW,242,train
94.99597549438477,1,2,0,3,5,4,E-,0,4,5,400,600,250.0,3,E11MW,243,train
110.8849048614502,1,2,0,3,5,4,E-,1,1,0,400,600,250.0,1,E11MW,244,train
79.37884330749512,1,2,0,3,5,4,E-,1,0,2,400,600,250.0,0,E11MW,245,train
495.26000022888184,1,2,0,3,5,4,E-,1,3,3,400,600,250.0,3,E11MW,246,train
159.33704376220703,1,2,0,3,5,4,E-,0,2,1,400,600,250.0,1,E11MW,247,train
127.66504287719727,1,2,0,3,5,4,E-,1,0,2,400,600,250.0,0,E11MW,248,train
126.99007987976074,1,2,0,3,5,4,E-,1,1,0,400,600,250.0,1,E11MW,249,train
3360.426902770996,5,3,0,2,1,4,E-,1,4,5,0,1000,250.0,4,E11MW,250,test
1632.4589252471924,5,3,0,2,1,4,E-,1,5,0,0,1000,250.0,5,E11MW,251,test
1440.4380321502686,5,3,0,2,1,4,E-,1,1,4,0,1000,250.0,1,E11MW,252,test
1088.6468887329102,5,3,0,2,1,4,E-,1,2,3,0,1000,250.0,2,E11MW,253,test
720.5100059509277,5,3,0,2,1,4,E-,1,2,3,0,1000,250.0,2,E11MW,254,test
1024.3160724639893,5,3,0,2,1,4,E-,1,5,0,0,1000,250.0,5,E11MW,255,test
1520.4708576202393,5,3,0,2,1,4,E-,1,1,4,0,1000,250.0,1,E11MW,256,test
1136.5940570831299,5,3,0,2,1,4,E-,1,4,5,0,1000,250.0,4,E11MW,257,test
1264.5018100738525,5,3,0,2,1,4,E-,0,2,3,0,1000,250.0,1,E11MW,258,test
1136.7030143737793,5,3,0,2,1,4,E-,1,2,3,0,1000,250.0,2,E11MW,259,test
976.5670299530029,5,3,0,2,1,4,E-,1,1,4,0,1000,250.0,1,E11MW,260,test
912.4789237976074,5,3,0,2,1,4,E-,1,3,1,0,1000,250.0,3,E11MW,261,test
800.7240295410156,5,3,0,2,1,4,E-,1,5,0,0,1000,250.0,5,E11MW,262,test
832.517147064209,5,3,0,2,1,4,E-,0,4,5,0,1000,250.0,3,E11MW,263,test
1168.39599609375,5,3,0,2,1,4,E-,1,3,1,0,1000,250.0,3,E11MW,264,test
896.5299129486084,5,3,0,2,1,4,E-,1,2,3,0,1000,250.0,2,E11MW,265,test
656.7628383636475,5,3,0,2,1,4,E-,1,4,5,0,1000,250.0,4,E11MW,266,test
528.5282135009766,5,3,0,2,1,4,E-,1,5,0,0,1000,250.0,5,E11MW,267,test
832.5638771057129,5,3,0,2,1,4,E-,1,5,0,0,1000,250.0,5,E11MW,268,test
928.5290241241455,5,3,0,2,1,4,E-,1,3,1,0,1000,250.0,3,E11MW,269,test
448.2438564300537,5,3,0,2,1,4,E-,1,5,0,0,1000,250.0,5,E11MW,270,test
512.4669075012207,5,3,0,2,1,4,E-,1,4,5,0,1000,250.0,4,E11MW,271,test
960.8399868011475,5,3,0,2,1,4,E-,1,1,4,0,1000,250.0,1,E11MW,272,test
1088.5341167449951,5,3,0,2,1,4,E-,1,5,0,0,1000,250.0,5,E11MW,273,test
704.6129703521729,5,3,0,2,1,4,E-,1,5,0,0,1000,250.0,5,E11MW,274,test
368.5870170593262,5,3,0,2,1,4,E-,1,4,5,0,1000,250.0,4,E11MW,275,test
592.4551486968994,5,3,0,2,1,4,E-,1,5,0,0,1000,250.0,5,E11MW,276,test
640.56396484375,5,3,0,2,1,4,E-,1,4,5,0,1000,250.0,4,E11MW,277,test
560.5258941650391,5,3,0,2,1,4,E-,1,1,4,0,1000,250.0,1,E11MW,278,test
448.2581615447998,5,3,0,2,1,4,E-,1,0,2,0,1000,250.0,0,E11MW,279,test
528.6240577697754,5,3,0,2,1,4,E-,1,0,2,0,1000,250.0,0,E11MW,280,test
640.5200958251953,5,3,0,2,1,4,E-,1,5,0,0,1000,250.0,5,E11MW,281,test
639.5978927612305,5,3,0,2,1,4,E-,1,0,2,0,1000,250.0,0,E11MW,282,test
480.43084144592285,5,3,0,2,1,4,E-,0,4,5,0,1000,250.0,5,E11MW,283,test
432.7738285064697,5,3,0,2,1,4,E-,1,4,5,0,1000,250.0,4,E11MW,284,test
592.4971103668213,5,3,0,2,1,4,E-,1,5,0,0,1000,250.0,5,E11MW,285,test
2064.495086669922,5,3,0,2,1,4,E-,1,3,1,0,1000,250.0,3,E11MW,286,test
464.749813079834,5,3,0,2,1,4,E-,1,3,1,0,1000,250.0,3,E11MW,287,test
672.5199222564697,5,3,0,2,1,4,E-,1,0,2,0,1000,250.0,0,E11MW,288,test
624.5338916778564,5,3,0,2,1,4,E-,1,5,0,0,1000,250.0,5,E11MW,289,test
704.5719623565674,5,3,0,2,1,4,E-,1,3,1,0,1000,250.0,3,E11MW,290,test
560.509204864502,5,3,0,2,1,4,E-,0,2,3,0,1000,250.0,4,E11MW,291,test
448.52709770202637,5,3,0,2,1,4,E-,1,4,5,0,1000,250.0,4,E11MW,292,test
400.4249572753906,5,3,0,2,1,4,E-,1,4,5,0,1000,250.0,4,E11MW,293,test
624.6252059936523,5,3,0,2,1,4,E-,1,3,1,0,1000,250.0,3,E11MW,294,test
576.483964920044,5,3,0,2,1,4,E-,1,4,5,0,1000,250.0,4,E11MW,295,test
928.5569190979004,5,3,0,2,1,4,E-,1,2,3,0,1000,250.0,2,E11MW,296,test
544.5489883422852,5,3,0,2,1,4,E-,1,4,5,0,1000,250.0,4,E11MW,297,test
688.5309219360352,5,3,0,2,1,4,E-,1,2,3,0,1000,250.0,2,E11MW,298,test
656.8329334259033,5,3,0,2,1,4,E-,1,2,3,0,1000,250.0,2,E11MW,299,test
1056.5178394317627,5,3,0,2,1,4,E-,0,3,1,0,1000,250.0,0,E11MW,300,test
544.7750091552734,5,3,0,2,1,4,E-,1,0,2,0,1000,250.0,0,E11MW,301,test
656.6190719604492,5,3,0,2,1,4,E-,1,0,2,0,1000,250.0,0,E11MW,302,test
1120.5451488494873,5,3,0,2,1,4,E-,1,3,1,0,1000,250.0,3,E11MW,303,test
816.5550231933594,5,3,0,2,1,4,E-,1,1,4,0,1000,250.0,1,E11MW,304,test
608.7179183959961,5,3,0,2,1,4,E-,1,1,4,0,1000,250.0,1,E11MW,305,test
480.5140495300293,5,3,0,2,1,4,E-,1,1,4,0,1000,250.0,1,E11MW,306,test
640.4209136962891,5,3,0,2,1,4,E-,1,0,2,0,1000,250.0,0,E11MW,307,test
368.46184730529785,5,3,0,2,1,4,E-,1,5,0,0,1000,250.0,5,E11MW,308,test
944.5979595184326,5,3,0,2,1,4,E-,1,2,3,0,1000,250.0,2,E11MW,309,test
592.2369956970215,5,3,0,2,1,4,E-,1,4,5,0,1000,250.0,4,E11MW,310,test
720.6251621246338,5,3,0,2,1,4,E-,1,2,3,0,1000,250.0,2,E11MW,311,test
688.5478496551514,5,3,0,2,1,4,E-,1,5,0,0,1000,250.0,5,E11MW,312,test
576.5409469604492,5,3,0,2,1,4,E-,0,4,5,0,1000,250.0,3,E11MW,313,test
672.6338863372803,5,3,0,2,1,4,E-,1,2,3,0,1000,250.0,2,E11MW,314,test
528.4440517425537,5,3,0,2,1,4,E-,1,5,0,0,1000,250.0,5,E11MW,315,test
576.5531063079834,5,3,0,2,1,4,E-,1,0,2,0,1000,250.0,0,E11MW,316,test
816.6689872741699,5,3,0,2,1,4,E-,0,3,1,0,1000,250.0,1,E11MW,317,test
1520.5519199371338,5,3,0,2,1,4,E-,1,1,4,0,1000,250.0,1,E11MW,318,test
784.5110893249512,5,3,0,2,1,4,E-,1,5,0,0,1000,250.0,5,E11MW,319,test
672.8019714355469,5,3,0,2,1,4,E-,1,3,1,0,1000,250.0,3,E11MW,320,test
608.4849834442139,5,3,0,2,1,4,E-,1,4,5,0,1000,250.0,4,E11MW,321,test
624.492883682251,5,3,0,2,1,4,E-,1,0,2,0,1000,250.0,0,E11MW,322,test
880.6350231170654,5,3,0,2,1,4,E-,1,2,3,0,1000,250.0,2,E11MW,323,test
768.5451507568359,5,3,0,2,1,4,E-,1,5,0,0,1000,250.0,5,E11MW,324,test
560.4908466339111,5,3,0,2,1,4,E-,1,0,2,0,1000,250.0,0,E11MW,325,test
480.50808906555176,5,3,0,2,1,4,E-,1,0,2,0,1000,250.0,0,E11MW,326,test
944.828987121582,5,3,0,2,1,4,E-,1,2,3,0,1000,250.0,2,E11MW,327,test
528.4318923950195,5,3,0,2,1,4,E-,1,2,3,0,1000,250.0,2,E11MW,328,test
592.5741195678711,5,3,0,2,1,4,E-,1,0,2,0,1000,250.0,0,E11MW,329,test
752.5529861450195,5,3,0,2,1,4,E-,1,3,1,0,1000,250.0,3,E11MW,330,test
800.5540370941162,5,3,0,2,1,4,E-,0,1,4,0,1000,250.0,0,E11MW,331,test
720.4577922821045,5,3,0,2,1,4,E-,1,5,0,0,1000,250.0,5,E11MW,332,test
688.4489059448242,5,3,0,2,1,4,E-,0,1,4,0,1000,250.0,0,E11MW,333,test
592.6132202148438,5,3,0,2,1,4,E-,1,4,5,0,1000,250.0,4,E11MW,334,test
656.5449237823486,5,3,0,2,1,4,E-,1,0,2,0,1000,250.0,0,E11MW,335,test
1040.5230522155762,5,3,0,2,1,4,E-,1,2,3,0,1000,250.0,2,E11MW,336,test
640.4709815979004,5,3,0,2,1,4,E-,1,4,5,0,1000,250.0,4,E11MW,337,test
528.872013092041,5,3,0,2,1,4,E-,1,4,5,0,1000,250.0,4,E11MW,338,test
576.923131942749,5,3,0,2,1,4,E-,1,0,2,0,1000,250.0,0,E11MW,339,test
784.3921184539795,5,3,0,2,1,4,E-,1,5,0,0,1000,250.0,5,E11MW,340,test
736.9389533996582,5,3,0,2,1,4,E-,0,1,4,0,1000,250.0,0,E11MW,341,test
945.0588226318359,5,3,0,2,1,4,E-,1,2,3,0,1000,250.0,2,E11MW,342,test
1713.0870819091797,5,3,0,2,1,4,E-,1,0,2,0,1000,250.0,0,E11MW,343,test
625.0050067901611,5,3,0,2,1,4,E-,1,5,0,0,1000,250.0,5,E11MW,344,test
800.908088684082,5,3,0,2,1,4,E-,0,3,1,0,1000,250.0,2,E11MW,345,test
576.9271850585938,5,3,0,2,1,4,E-,1,0,2,0,1000,250.0,0,E11MW,346,test
753.1180381774902,5,3,0,2,1,4,E-,1,5,0,0,1000,250.0,5,E11MW,347,test
689.0208721160889,5,3,0,2,1,4,E-,1,5,0,0,1000,250.0,5,E11MW,348,test
609.126091003418,5,3,0,2,1,4,E-,1,4,5,0,1000,250.0,4,E11MW,349,test
937.1399879455566,5,3,0,2,1,4,E-,1,2,3,0,1000,250.0,2,E11MW,350,test
576.5488147735596,5,3,0,2,1,4,E-,1,4,5,0,1000,250.0,4,E11MW,351,test
768.9700126647949,5,3,0,2,1,4,E-,1,3,1,0,1000,250.0,3,E11MW,352,test
480.9541702270508,5,3,0,2,1,4,E-,1,0,2,0,1000,250.0,0,E11MW,353,test
672.9640960693359,5,3,0,2,1,4,E-,1,4,5,0,1000,250.0,4,E11MW,354,test
752.9981136322021,5,3,0,2,1,4,E-,1,5,0,0,1000,250.0,5,E11MW,355,test
592.9200649261475,5,3,0,2,1,4,E-,1,0,2,0,1000,250.0,0,E11MW,356,test
1185.0221157073975,5,3,0,2,1,4,E-,1,2,3,0,1000,250.0,2,E11MW,357,test
784.9221229553223,5,3,0,2,1,4,E-,1,4,5,0,1000,250.0,4,E11MW,358,test
624.9270439147949,5,3,0,2,1,4,E-,1,4,5,0,1000,250.0,4,E11MW,359,test
592.7631855010986,5,3,0,2,1,4,E-,0,1,4,0,1000,250.0,0,E11MW,360,test
401.01099014282227,5,3,0,2,1,4,E-,1,1,4,0,1000,250.0,1,E11MW,361,test
576.8392086029053,5,3,0,2,1,4,E-,1,0,2,0,1000,250.0,0,E11MW,362,test
736.3710403442383,5,3,0,2,1,4,E-,1,3,1,0,1000,250.0,3,E11MW,363,test
640.9239768981934,5,3,0,2,1,4,E-,1,0,2,0,1000,250.0,0,E11MW,364,test
560.9748363494873,5,3,0,2,1,4,E-,1,5,0,0,1000,250.0,5,E11MW,365,test
592.9450988769531,5,3,0,2,1,4,E-,1,0,2,0,1000,250.0,0,E11MW,366,test
608.9107990264893,5,3,0,2,1,4,E-,1,3,1,0,1000,250.0,3,E11MW,367,test
592.9529666900635,5,3,0,2,1,4,E-,1,0,2,0,1000,250.0,0,E11MW,368,test
704.9770355224609,5,3,0,2,1,4,E-,1,1,4,0,1000,250.0,1,E11MW,369,test
608.3569526672363,5,3,0,2,1,4,E-,1,5,0,0,1000,250.0,5,E11MW,370,test
912.9769802093506,5,3,0,2,1,4,E-,1,1,4,0,1000,250.0,1,E11MW,371,test
640.6638622283936,5,3,0,2,1,4,E-,1,2,3,0,1000,250.0,2,E11MW,372,test
464.9059772491455,5,3,0,2,1,4,E-,1,4,5,0,1000,250.0,4,E11MW,373,test
672.9910373687744,5,3,0,2,1,4,E-,1,2,3,0,1000,250.0,2,E11MW,374,test
593.1141376495361,5,3,0,2,1,4,E-,1,0,2,0,1000,250.0,0,E11MW,375,test
576.8768787384033,5,3,0,2,1,4,E-,1,5,0,0,1000,250.0,5,E11MW,376,test
784.7869396209717,5,3,0,2,1,4,E-,1,3,1,0,1000,250.0,3,E11MW,377,test
721.0118770599365,5,3,0,2,1,4,E-,1,5,0,0,1000,250.0,5,E11MW,378,test
704.6098709106445,5,3,0,2,1,4,E-,1,5,0,0,1000,250.0,5,E11MW,379,test
640.9919261932373,5,3,0,2,1,4,E-,1,4,5,0,1000,250.0,4,E11MW,380,test
577.0189762115479,5,3,0,2,1,4,E-,0,1,4,0,1000,250.0,5,E11MW,381,test
545.0441837310791,5,3,0,2,1,4,E-,1,5,0,0,1000,250.0,5,E11MW,382,test
32.52291679382324,5,3,0,2,1,4,E-,0,1,4,0,1000,250.0,5,E11MW,383,test
768.5558795928955,5,3,0,2,1,4,E-,1,2,3,0,1000,250.0,2,E11MW,384,test
592.5800800323486,5,3,0,2,1,4,E-,1,4,5,0,1000,250.0,4,E11MW,385,test
672.4238395690918,5,3,0,2,1,4,E-,1,0,2,0,1000,250.0,0,E11MW,386,test
640.388011932373,5,3,0,2,1,4,E-,1,4,5,0,1000,250.0,4,E11MW,387,test
608.5259914398193,5,3,0,2,1,4,E-,0,3,1,0,1000,250.0,5,E11MW,388,test
608.9940071105957,5,3,0,2,1,4,E-,1,4,5,0,1000,250.0,4,E11MW,389,test
512.9890441894531,5,3,0,2,1,4,E-,1,4,5,0,1000,250.0,4,E11MW,390,test
576.4801502227783,5,3,0,2,1,4,E-,1,5,0,0,1000,250.0,5,E11MW,391,test
784.8629951477051,5,3,0,2,1,4,E-,1,2,3,0,1000,250.0,2,E11MW,392,test
544.9879169464111,5,3,0,2,1,4,E-,0,1,4,0,1000,250.0,4,E11MW,393,test
624.9780654907227,5,3,0,2,1,4,E-,1,0,2,0,1000,250.0,0,E11MW,394,test
592.5219058990479,5,3,0,2,1,4,E-,0,2,3,0,1000,250.0,4,E11MW,395,test
752.29811668396,5,3,0,2,1,4,E-,1,5,0,0,1000,250.0,5,E11MW,396,test
801.0008335113525,5,3,0,2,1,4,E-,1,1,4,0,1000,250.0,1,E11MW,397,test
432.5089454650879,5,3,0,2,1,4,E-,1,1,4,0,1000,250.0,1,E11MW,398,test
560.992956161499,5,3,0,2,1,4,E-,1,4,5,0,1000,250.0,4,E11MW,399,test
592.944860458374,5,3,0,2,1,4,E-,1,1,4,0,1000,250.0,1,E11MW,400,test
640.7830715179443,5,3,0,2,1,4,E-,1,3,1,0,1000,250.0,3,E11MW,401,test
768.9821720123291,5,3,0,2,1,4,E-,1,2,3,0,1000,250.0,2,E11MW,402,test
640.5549049377441,5,3,0,2,1,4,E-,0,1,4,0,1000,250.0,0,E11MW,403,test
688.939094543457,5,3,0,2,1,4,E-,1,4,5,0,1000,250.0,4,E11MW,404,test
672.9519367218018,5,3,0,2,1,4,E-,1,4,5,0,1000,250.0,4,E11MW,405,test
720.8950519561768,5,3,0,2,1,4,E-,1,5,0,0,1000,250.0,5,E11MW,406,test
560.9710216522217,5,3,0,2,1,4,E-,1,0,2,0,1000,250.0,0,E11MW,407,test
656.4698219299316,5,3,0,2,1,4,E-,1,4,5,0,1000,250.0,4,E11MW,408,test
768.8319683074951,5,3,0,2,1,4,E-,1,2,3,0,1000,250.0,2,E11MW,409,test
544.8899269104004,5,3,0,2,1,4,E-,1,5,0,0,1000,250.0,5,E11MW,410,test
592.4839973449707,5,3,0,2,1,4,E-,1,5,0,0,1000,250.0,5,E11MW,411,test
720.9348678588867,5,3,0,2,1,4,E-,1,3,1,0,1000,250.0,3,E11MW,412,test
624.9120235443115,5,3,0,2,1,4,E-,1,5,0,0,1000,250.0,5,E11MW,413,test
878.2439231872559,5,3,0,2,1,4,E-,1,3,1,0,1000,250.0,3,E11MW,414,test
1184.906005859375,5,3,0,2,1,4,E-,1,1,4,0,1000,250.0,1,E11MW,415,test
720.8709716796875,5,3,0,2,1,4,E-,1,2,3,0,1000,250.0,2,E11MW,416,test
657.0091247558594,5,3,0,2,1,4,E-,1,3,1,0,1000,250.0,3,E11MW,417,test
672.9171276092529,5,3,0,2,1,4,E-,1,2,3,0,1000,250.0,2,E11MW,418,test
256.9260597229004,5,3,0,2,1,4,E-,0,4,5,0,1000,250.0,3,E11MW,419,test
688.9941692352295,5,3,0,2,1,4,E-,1,1,4,0,1000,250.0,1,E11MW,420,test
448.7800598144531,5,3,0,2,1,4,E-,1,1,4,0,1000,250.0,1,E11MW,421,test
561.0849857330322,5,3,0,2,1,4,E-,1,5,0,0,1000,250.0,5,E11MW,422,test
848.4179973602295,5,3,0,2,1,4,E-,1,3,1,0,1000,250.0,3,E11MW,423,test
416.823148727417,5,3,0,2,1,4,E-,1,3,1,0,1000,250.0,3,E11MW,424,test
480.97801208496094,5,3,0,2,1,4,E-,1,3,1,0,1000,250.0,3,E11MW,425,test
592.9200649261475,5,3,0,2,1,4,E-,1,5,0,0,1000,250.0,5,E11MW,426,test
672.6560592651367,5,3,0,2,1,4,E-,1,3,1,0,1000,250.0,3,E11MW,427,test
769.0520286560059,5,3,0,2,1,4,E-,1,2,3,0,1000,250.0,2,E11MW,428,test
608.922004699707,5,3,0,2,1,4,E-,0,3,1,0,1000,250.0,2,E11MW,429,test
560.6558322906494,5,3,0,2,1,4,E-,1,5,0,0,1000,250.0,5,E11MW,430,test
720.9198474884033,5,3,0,2,1,4,E-,1,1,4,0,1000,250.0,1,E11MW,431,test
593.0018424987793,5,3,0,2,1,4,E-,1,1,4,0,1000,250.0,1,E11MW,432,test
640.9080028533936,5,3,0,2,1,4,E-,1,2,3,0,1000,250.0,2,E11MW,433,test
809.3380928039551,5,3,0,2,1,4,E-,1,3,1,0,1000,250.0,3,E11MW,434,test
592.8819179534912,5,3,0,2,1,4,E-,1,3,1,0,1000,250.0,3,E11MW,435,test
560.9040260314941,5,3,0,2,1,4,E-,1,2,3,0,1000,250.0,2,E11MW,436,test
752.7291774749756,5,3,0,2,1,4,E-,1,5,0,0,1000,250.0,5,E11MW,437,test
544.813871383667,5,3,0,2,1,4,E-,1,5,0,0,1000,250.0,5,E11MW,438,test
609.0281009674072,5,3,0,2,1,4,E-,1,2,3,0,1000,250.0,2,E11MW,439,test
736.9098663330078,5,3,0,2,1,4,E-,1,1,4,0,1000,250.0,1,E11MW,440,test
704.9560546875,5,3,0,2,1,4,E-,1,3,1,0,1000,250.0,3,E11MW,441,test
848.764181137085,5,3,0,2,1,4,E-,1,1,4,0,1000,250.0,1,E11MW,442,test
609.0519428253174,5,3,0,2,1,4,E-,1,0,2,0,1000,250.0,0,E11MW,443,test
672.9259490966797,5,3,0,2,1,4,E-,1,4,5,0,1000,250.0,4,E11MW,444,test
544.9481010437012,5,3,0,2,1,4,E-,0,2,3,0,1000,250.0,1,E11MW,445,test
673.0070114135742,5,3,0,2,1,4,E-,1,3,1,0,1000,250.0,3,E11MW,446,test
752.9730796813965,5,3,0,2,1,4,E-,1,5,0,0,1000,250.0,5,E11MW,447,test
560.6729984283447,5,3,0,2,1,4,E-,1,0,2,0,1000,250.0,0,E11MW,448,test
144.93107795715332,5,3,0,2,1,4,E-,0,4,5,0,1000,250.0,3,E11MW,449,test
544.929027557373,5,3,0,2,1,4,E-,1,0,2,0,1000,250.0,0,E11MW,450,test
608.8569164276123,5,3,0,2,1,4,E-,1,0,2,0,1000,250.0,0,E11MW,451,test
1009.181022644043,5,3,0,2,1,4,E-,1,2,3,0,1000,250.0,2,E11MW,452,test
528.9840698242188,5,3,0,2,1,4,E-,1,4,5,0,1000,250.0,4,E11MW,453,test
544.917106628418,5,3,0,2,1,4,E-,1,0,2,0,1000,250.0,0,E11MW,454,test
561.0620975494385,5,3,0,2,1,4,E-,1,0,2,0,1000,250.0,0,E11MW,455,test
688.910961151123,5,3,0,2,1,4,E-,1,3,1,0,1000,250.0,3,E11MW,456,test
801.0179996490479,5,3,0,2,1,4,E-,1,1,4,0,1000,250.0,1,E11MW,457,test
640.8710479736328,5,3,0,2,1,4,E-,1,4,5,0,1000,250.0,4,E11MW,458,test
784.818172454834,5,3,0,2,1,4,E-,1,5,0,0,1000,250.0,5,E11MW,459,test
752.9141902923584,5,3,0,2,1,4,E-,1,2,3,0,1000,250.0,2,E11MW,460,test
624.6659755706787,5,3,0,2,1,4,E-,1,3,1,0,1000,250.0,3,E11MW,461,test
737.1358871459961,5,3,0,2,1,4,E-,1,5,0,0,1000,250.0,5,E11MW,462,test
576.9021511077881,5,3,0,2,1,4,E-,1,3,1,0,1000,250.0,3,E11MW,463,test
704.8649787902832,5,3,0,2,1,4,E-,1,4,5,0,1000,250.0,4,E11MW,464,test
624.9129772186279,5,3,0,2,1,4,E-,1,0,2,0,1000,250.0,0,E11MW,465,test
800.6980419158936,5,3,0,2,1,4,E-,1,1,4,0,1000,250.0,1,E11MW,466,test
560.8468055725098,5,3,0,2,1,4,E-,1,3,1,0,1000,250.0,3,E11MW,467,test
576.5461921691895,5,3,0,2,1,4,E-,1,0,2,0,1000,250.0,0,E11MW,468,test
545.151948928833,5,3,0,2,1,4,E-,1,4,5,0,1000,250.0,4,E11MW,469,test
592.944860458374,5,3,0,2,1,4,E-,1,4,5,0,1000,250.0,4,E11MW,470,test
656.8739414215088,5,3,0,2,1,4,E-,1,5,0,0,1000,250.0,5,E11MW,471,test
512.9251480102539,5,3,0,2,1,4,E-,1,0,2,0,1000,250.0,0,E11MW,472,test
641.09206199646,5,3,0,2,1,4,E-,1,5,0,0,1000,250.0,5,E11MW,473,test
528.9480686187744,5,3,0,2,1,4,E-,0,2,3,0,1000,250.0,4,E11MW,474,test
657.0990085601807,5,3,0,2,1,4,E-,1,1,4,0,1000,250.0,1,E11MW,475,test
585.2599143981934,5,3,0,2,1,4,E-,1,3,1,0,1000,250.0,3,E11MW,476,test
640.9659385681152,5,3,0,2,1,4,E-,1,1,4,0,1000,250.0,1,E11MW,477,test
832.9591751098633,5,3,0,2,1,4,E-,1,0,2,0,1000,250.0,0,E11MW,478,test
208.62293243408203,5,3,0,2,1,4,E-,0,0,2,0,1000,250.0,4,E11MW,479,test
577.1150588989258,5,3,0,2,1,4,E-,1,3,1,0,1000,250.0,3,E11MW,480,test
560.9169006347656,5,3,0,2,1,4,E-,1,0,2,0,1000,250.0,0,E11MW,481,test
640.7999992370605,5,3,0,2,1,4,E-,1,4,5,0,1000,250.0,4,E11MW,482,test
481.0299873352051,5,3,0,2,1,4,E-,1,4,5,0,1000,250.0,4,E11MW,483,test
720.890998840332,5,3,0,2,1,4,E-,0,2,3,0,1000,250.0,1,E11MW,484,test
704.6267986297607,5,3,0,2,1,4,E-,1,0,2,0,1000,250.0,0,E11MW,485,test
704.9939632415771,5,3,0,2,1,4,E-,1,2,3,0,1000,250.0,2,E11MW,486,test
576.9000053405762,5,3,0,2,1,4,E-,1,0,2,0,1000,250.0,0,E11MW,487,test
832.9839706420898,5,3,0,2,1,4,E-,1,1,4,0,1000,250.0,1,E11MW,488,test
673.0871200561523,5,3,0,2,1,4,E-,1,2,3,0,1000,250.0,2,E11MW,489,test
1888.9892101287842,5,3,0,2,1,4,E-,1,5,0,0,1000,250.0,5,E11MW,490,test
480.95703125,5,3,0,2,1,4,E-,1,4,5,0,1000,250.0,4,E11MW,491,test
640.9871578216553,5,3,0,2,1,4,E-,1,3,1,0,1000,250.0,3,E11MW,492,test
640.6459808349609,5,3,0,2,1,4,E-,1,3,1,0,1000,250.0,3,E11MW,493,test
576.4920711517334,5,3,0,2,1,4,E-,0,4,5,0,1000,250.0,5,E11MW,494,test
608.6390018463135,5,3,0,2,1,4,E-,1,0,2,0,1000,250.0,0,E11MW,495,test
752.485990524292,5,3,0,2,1,4,E-,1,1,4,0,1000,250.0,1,E11MW,496,test
544.4791316986084,5,3,0,2,1,4,E-,1,1,4,0,1000,250.0,1,E11MW,497,test
576.4410495758057,5,3,0,2,1,4,E-,1,4,5,0,1000,250.0,4,E11MW,498,test
496.45495414733887,5,3,0,2,1,4,E-,1,4,5,0,1000,250.0,4,E11MW,499,test
