RT,SRmap_0,SRmap_1,SRmap_2,SRmap_3,SRmap_4,SRmap_5,condition,correct,correct_response,curstim,ms-precue,ms-prestimblank,ntrials,response,subject,trial,type
3887.8049850463867,0,4,5,3,1,2,H-,0,2,5,0,1000,250.0,3, D08AS,0,train
2272.610902786255,0,4,5,3,1,2,H-,1,3,3,0,1000,250.0,3, D08AS,1,train
1280.768871307373,0,4,5,3,1,2,H-,1,2,5,0,1000,250.0,2, D08AS,2,train
1312.6602172851562,0,4,5,3,1,2,H-,1,2,5,0,1000,250.0,2, D08AS,3,train
2320.316791534424,0,4,5,3,1,2,H-,1,1,4,0,1000,250.0,1, D08AS,4,train
1360.3591918945312,0,4,5,3,1,2,H-,1,3,3,0,1000,250.0,3, D08AS,5,train
1184.3640804290771,0,4,5,3,1,2,H-,1,1,4,0,1000,250.0,1, D08AS,6,train
1216.365098953247,0,4,5,3,1,2,H-,0,3,3,0,1000,250.0,4, D08AS,7,train
2128.476142883301,0,4,5,3,1,2,H-,1,0,0,0,1000,250.0,0, D08AS,8,train
1488.4400367736816,0,4,5,3,1,2,H-,1,3,3,0,1000,250.0,3, D08AS,9,train
1344.5219993591309,0,4,5,3,1,2,H-,1,2,5,0,1000,250.0,2, D08AS,10,train
2208.598852157593,0,4,5,3,1,2,H-,1,1,4,0,1000,250.0,1, D08AS,11,train
1584.9249362945557,0,4,5,3,1,2,H-,1,1,4,0,1000,250.0,1, D08AS,12,train
1665.0021076202393,0,4,5,3,1,2,H-,0,0,0,0,1000,250.0,1, D08AS,13,train
1968.9040184020996,0,4,5,3,1,2,H-,1,2,5,0,1000,250.0,2, D08AS,14,train
2640.9881114959717,0,4,5,3,1,2,H-,1,5,2,0,1000,250.0,5, D08AS,15,train
2816.938877105713,0,4,5,3,1,2,H-,1,5,2,0,1000,250.0,5, D08AS,16,train
1408.9162349700928,0,4,5,3,1,2,H-,1,3,3,0,1000,250.0,3, D08AS,17,train
1441.0381317138672,0,4,5,3,1,2,H-,1,0,0,0,1000,250.0,0, D08AS,18,train
2592.9040908813477,0,4,5,3,1,2,H-,1,3,3,0,1000,250.0,3, D08AS,19,train
897.022008895874,0,4,5,3,1,2,H-,1,3,3,0,1000,250.0,3, D08AS,20,train
832.9789638519287,0,4,5,3,1,2,H-,1,3,3,0,1000,250.0,3, D08AS,21,train
624.8881816864014,0,4,5,3,1,2,H-,1,3,3,0,1000,250.0,3, D08AS,22,train
1856.9118976593018,0,4,5,3,1,2,H-,1,4,1,0,1000,250.0,4, D08AS,23,train
1312.9258155822754,0,4,5,3,1,2,H-,0,2,5,0,1000,250.0,3, D08AS,24,train
1328.9070129394531,0,4,5,3,1,2,H-,1,5,2,0,1000,250.0,5, D08AS,25,train
1200.998067855835,0,4,5,3,1,2,H-,1,3,3,0,1000,250.0,3, D08AS,26,train
1633.09907913208,0,4,5,3,1,2,H-,1,0,0,0,1000,250.0,0, D08AS,27,train
1248.960018157959,0,4,5,3,1,2,H-,1,1,4,0,1000,250.0,1, D08AS,28,train
1680.988073348999,0,4,5,3,1,2,H-,1,4,1,0,1000,250.0,4, D08AS,29,train
1569.0009593963623,0,4,5,3,1,2,H-,1,0,0,0,1000,250.0,0, D08AS,30,train
672.9881763458252,0,4,5,3,1,2,H-,0,2,5,0,1000,250.0,1, D08AS,31,train
1840.9759998321533,0,4,5,3,1,2,H-,1,4,1,0,1000,250.0,4, D08AS,32,train
1184.9708557128906,0,4,5,3,1,2,H-,1,0,0,0,1000,250.0,0, D08AS,33,train
816.9620037078857,0,4,5,3,1,2,H-,1,2,5,0,1000,250.0,2, D08AS,34,train
1568.976879119873,0,4,5,3,1,2,H-,1,3,3,0,1000,250.0,3, D08AS,35,train
1360.9521389007568,0,4,5,3,1,2,H-,1,5,2,0,1000,250.0,5, D08AS,36,train
961.1270427703857,0,4,5,3,1,2,H-,1,4,1,0,1000,250.0,4, D08AS,37,train
1569.0250396728516,0,4,5,3,1,2,H-,1,2,5,0,1000,250.0,2, D08AS,38,train
1089.0758037567139,0,4,5,3,1,2,H-,1,2,5,0,1000,250.0,2, D08AS,39,train
721.1341857910156,0,4,5,3,1,2,H-,1,2,5,0,1000,250.0,2, D08AS,40,train
1552.8151988983154,0,4,5,3,1,2,H-,1,5,2,0,1000,250.0,5, D08AS,41,train
1265.110969543457,0,4,5,3,1,2,H-,1,2,5,0,1000,250.0,2, D08AS,42,train
1312.9539489746094,0,4,5,3,1,2,H-,0,3,3,0,1000,250.0,4, D08AS,43,train
1440.6330585479736,0,4,5,3,1,2,H-,1,0,0,0,1000,250.0,0, D08AS,44,train
1040.585994720459,0,4,5,3,1,2,H-,1,4,1,0,1000,250.0,4, D08AS,45,train
992.4781322479248,0,4,5,3,1,2,H-,1,4,1,0,1000,250.0,4, D08AS,46,train
2848.5519886016846,0,4,5,3,1,2,H-,1,1,4,0,1000,250.0,1, D08AS,47,train
864.5470142364502,0,4,5,3,1,2,H-,1,3,3,0,1000,250.0,3, D08AS,48,train
1552.5221824645996,0,4,5,3,1,2,H-,1,2,5,0,1000,250.0,2, D08AS,49,train
1440.5651092529297,0,4,5,3,1,2,H-,1,0,0,0,1000,250.0,0, D08AS,50,train
1136.6918087005615,0,4,5,3,1,2,H-,1,5,2,0,1000,250.0,5, D08AS,51,train
1264.3709182739258,0,4,5,3,1,2,H-,1,2,5,0,1000,250.0,2, D08AS,52,train
656.4040184020996,0,4,5,3,1,2,H-,1,2,5,0,1000,250.0,2, D08AS,53,train
1264.4410133361816,0,4,5,3,1,2,H-,1,5,2,0,1000,250.0,5, D08AS,54,train
1312.4439716339111,0,4,5,3,1,2,H-,1,3,3,0,1000,250.0,3, D08AS,55,train
1600.4490852355957,0,4,5,3,1,2,H-,1,1,4,0,1000,250.0,1, D08AS,56,train
1008.6069107055664,0,4,5,3,1,2,H-,1,3,3,0,1000,250.0,3, D08AS,57,train
1312.4678134918213,0,4,5,3,1,2,H-,1,1,4,0,1000,250.0,1, D08AS,58,train
1248.6279010772705,0,4,5,3,1,2,H-,1,0,0,0,1000,250.0,0, D08AS,59,train
1072.484016418457,0,4,5,3,1,2,H-,1,1,4,0,1000,250.0,1, D08AS,60,train
944.5769786834717,0,4,5,3,1,2,H-,1,2,5,0,1000,250.0,2, D08AS,61,train
512.4058723449707,0,4,5,3,1,2,H-,1,2,5,0,1000,250.0,2, D08AS,62,train
768.3188915252686,0,4,5,3,1,2,H-,1,2,5,0,1000,250.0,2, D08AS,63,train
1760.5931758880615,0,4,5,3,1,2,H-,1,1,4,0,1000,250.0,1, D08AS,64,train
1680.4041862487793,0,4,5,3,1,2,H-,1,5,2,0,1000,250.0,5, D08AS,65,train
944.4880485534668,0,4,5,3,1,2,H-,1,3,3,0,1000,250.0,3, D08AS,66,train
2080.415964126587,0,4,5,3,1,2,H-,1,0,0,0,1000,250.0,0, D08AS,67,train
1024.4290828704834,0,4,5,3,1,2,H-,1,2,5,0,1000,250.0,2, D08AS,68,train
2288.329839706421,0,4,5,3,1,2,H-,0,5,2,0,1000,250.0,0, D08AS,69,train
688.4169578552246,0,4,5,3,1,2,H-,1,2,5,0,1000,250.0,2, D08AS,70,train
1743.8628673553467,0,4,5,3,1,2,H-,1,4,1,0,1000,250.0,4, D08AS,71,train
544.4700717926025,0,4,5,3,1,2,H-,1,2,5,0,1000,250.0,2, D08AS,72,train
1888.4100914001465,0,4,5,3,1,2,H-,0,5,2,0,1000,250.0,4, D08AS,73,train
608.4270477294922,0,4,5,3,1,2,H-,1,2,5,0,1000,250.0,2, D08AS,74,train
864.4421100616455,0,4,5,3,1,2,H-,1,5,2,0,1000,250.0,5, D08AS,75,train
832.4370384216309,0,4,5,3,1,2,H-,1,1,4,0,1000,250.0,1, D08AS,76,train
976.4449596405029,0,4,5,3,1,2,H-,1,0,0,0,1000,250.0,0, D08AS,77,train
848.4721183776855,0,4,5,3,1,2,H-,1,1,4,0,1000,250.0,1, D08AS,78,train
1600.5561351776123,0,4,5,3,1,2,H-,1,3,3,0,1000,250.0,3, D08AS,79,train
1424.4630336761475,0,4,5,3,1,2,H-,1,5,2,0,1000,250.0,5, D08AS,80,train
752.3849010467529,0,4,5,3,1,2,H-,1,1,4,0,1000,250.0,1, D08AS,81,train
672.6810932159424,0,4,5,3,1,2,H-,1,3,3,0,1000,250.0,3, D08AS,82,train
448.50897789001465,0,4,5,3,1,2,H-,1,5,2,0,1000,250.0,5, D08AS,83,train
592.4808979034424,0,4,5,3,1,2,H-,1,3,3,0,1000,250.0,3, D08AS,84,train
752.4168491363525,0,4,5,3,1,2,H-,0,0,0,0,1000,250.0,1, D08AS,85,train
1248.3339309692383,0,4,5,3,1,2,H-,1,1,4,0,1000,250.0,1, D08AS,86,train
560.4429244995117,0,4,5,3,1,2,H-,1,1,4,0,1000,250.0,1, D08AS,87,train
1408.4110260009766,0,4,5,3,1,2,H-,1,4,1,0,1000,250.0,4, D08AS,88,train
2064.47696685791,0,4,5,3,1,2,H-,1,5,2,0,1000,250.0,5, D08AS,89,train
720.4718589782715,0,4,5,3,1,2,H-,1,0,0,0,1000,250.0,0, D08AS,90,train
720.3841209411621,0,4,5,3,1,2,H-,1,3,3,0,1000,250.0,3, D08AS,91,train
1616.5480613708496,0,4,5,3,1,2,H-,1,4,1,0,1000,250.0,4, D08AS,92,train
768.4891223907471,0,4,5,3,1,2,H-,1,0,0,0,1000,250.0,0, D08AS,93,train
816.4820671081543,0,4,5,3,1,2,H-,1,3,3,0,1000,250.0,3, D08AS,94,train
576.4510631561279,0,4,5,3,1,2,H-,1,0,0,0,1000,250.0,0, D08AS,95,train
848.4470844268799,0,4,5,3,1,2,H-,1,2,5,0,1000,250.0,2, D08AS,96,train
768.470048904419,0,4,5,3,1,2,H-,1,1,4,0,1000,250.0,1, D08AS,97,train
1056.5330982208252,0,4,5,3,1,2,H-,1,5,2,0,1000,250.0,5, D08AS,98,train
1504.4329166412354,0,4,5,3,1,2,H-,1,5,2,0,1000,250.0,5, D08AS,99,train
528.3589363098145,0,4,5,3,1,2,H-,1,5,2,0,1000,250.0,5, D08AS,100,train
1312.3440742492676,0,4,5,3,1,2,H-,1,2,5,0,1000,250.0,2, D08AS,101,train
528.8050174713135,0,4,5,3,1,2,H-,1,3,3,0,1000,250.0,3, D08AS,102,train
736.4490032196045,0,4,5,3,1,2,H-,1,3,3,0,1000,250.0,3, D08AS,103,train
608.4492206573486,0,4,5,3,1,2,H-,1,1,4,0,1000,250.0,1, D08AS,104,train
480.4239273071289,0,4,5,3,1,2,H-,0,2,5,0,1000,250.0,3, D08AS,105,train
688.5778903961182,0,4,5,3,1,2,H-,0,0,0,0,1000,250.0,1, D08AS,106,train
768.4760093688965,0,4,5,3,1,2,H-,1,1,4,0,1000,250.0,1, D08AS,107,train
880.2189826965332,0,4,5,3,1,2,H-,1,2,5,0,1000,250.0,2, D08AS,108,train
1008.5129737854004,0,4,5,3,1,2,H-,1,5,2,0,1000,250.0,5, D08AS,109,train
1024.3849754333496,0,4,5,3,1,2,H-,1,0,0,0,1000,250.0,0, D08AS,110,train
704.509973526001,0,4,5,3,1,2,H-,1,2,5,0,1000,250.0,2, D08AS,111,train
704.4601440429688,0,4,5,3,1,2,H-,1,0,0,0,1000,250.0,0, D08AS,112,train
944.4398880004883,0,4,5,3,1,2,H-,0,1,4,0,1000,250.0,0, D08AS,113,train
640.4800415039062,0,4,5,3,1,2,H-,1,0,0,0,1000,250.0,0, D08AS,114,train
1440.8469200134277,0,4,5,3,1,2,H-,1,2,5,0,1000,250.0,2, D08AS,115,train
512.4571323394775,0,4,5,3,1,2,H-,1,3,3,0,1000,250.0,3, D08AS,116,train
528.527021408081,0,4,5,3,1,2,H-,1,2,5,0,1000,250.0,2, D08AS,117,train
992.5580024719238,0,4,5,3,1,2,H-,1,5,2,0,1000,250.0,5, D08AS,118,train
800.4739284515381,0,4,5,3,1,2,H-,1,1,4,0,1000,250.0,1, D08AS,119,train
544.4200038909912,0,4,5,3,1,2,H-,1,1,4,0,1000,250.0,1, D08AS,120,train
528.5139083862305,0,4,5,3,1,2,H-,1,2,5,0,1000,250.0,2, D08AS,121,train
848.3660221099854,0,4,5,3,1,2,H-,1,4,1,0,1000,250.0,4, D08AS,122,train
672.4739074707031,0,4,5,3,1,2,H-,1,0,0,0,1000,250.0,0, D08AS,123,train
720.703125,0,4,5,3,1,2,H-,1,4,1,0,1000,250.0,4, D08AS,124,train
865.0100231170654,0,4,5,3,1,2,H-,1,3,3,0,1000,250.0,3, D08AS,125,train
833.0569267272949,0,4,5,3,1,2,H-,1,5,2,0,1000,250.0,5, D08AS,126,train
929.0709495544434,0,4,5,3,1,2,H-,1,3,3,0,1000,250.0,3, D08AS,127,train
689.0919208526611,0,4,5,3,1,2,H-,1,3,3,0,1000,250.0,3, D08AS,128,train
721.0137844085693,0,4,5,3,1,2,H-,1,1,4,0,1000,250.0,1, D08AS,129,train
593.0330753326416,0,4,5,3,1,2,H-,1,0,0,0,1000,250.0,0, D08AS,130,train
689.0389919281006,0,4,5,3,1,2,H-,1,3,3,0,1000,250.0,3, D08AS,131,train
560.8811378479004,0,4,5,3,1,2,H-,1,2,5,0,1000,250.0,2, D08AS,132,train
736.9520664215088,0,4,5,3,1,2,H-,1,5,2,0,1000,250.0,5, D08AS,133,train
848.8481044769287,0,4,5,3,1,2,H-,1,4,1,0,1000,250.0,4, D08AS,134,train
832.5059413909912,0,4,5,3,1,2,H-,1,3,3,0,1000,250.0,3, D08AS,135,train
752.4359226226807,0,4,5,3,1,2,H-,1,0,0,0,1000,250.0,0, D08AS,136,train
992.3510551452637,0,4,5,3,1,2,H-,1,1,4,0,1000,250.0,1, D08AS,137,train
1856.1289310455322,0,4,5,3,1,2,H-,1,2,5,0,1000,250.0,2, D08AS,138,train
1040.2159690856934,0,4,5,3,1,2,H-,1,0,0,0,1000,250.0,0, D08AS,139,train
2176.1839389801025,0,4,5,3,1,2,H-,1,1,4,0,1000,250.0,1, D08AS,140,train
1152.4999141693115,0,4,5,3,1,2,H-,1,3,3,0,1000,250.0,3, D08AS,141,train
656.4981937408447,0,4,5,3,1,2,H-,1,1,4,0,1000,250.0,1, D08AS,142,train
720.4890251159668,0,4,5,3,1,2,H-,1,4,1,0,1000,250.0,4, D08AS,143,train
768.5890197753906,0,4,5,3,1,2,H-,1,2,5,0,1000,250.0,2, D08AS,144,train
656.5160751342773,0,4,5,3,1,2,H-,1,4,1,0,1000,250.0,4, D08AS,145,train
832.4220180511475,0,4,5,3,1,2,H-,1,3,3,0,1000,250.0,3, D08AS,146,train
512.3920440673828,0,4,5,3,1,2,H-,1,3,3,0,1000,250.0,3, D08AS,147,train
624.4251728057861,0,4,5,3,1,2,H-,1,4,1,0,1000,250.0,4, D08AS,148,train
672.4400520324707,0,4,5,3,1,2,H-,1,2,5,0,1000,250.0,2, D08AS,149,train
656.404972076416,0,4,5,3,1,2,H-,1,2,5,0,1000,250.0,2, D08AS,150,train
1056.1389923095703,0,4,5,3,1,2,H-,1,5,2,0,1000,250.0,5, D08AS,151,train
592.4072265625,0,4,5,3,1,2,H-,1,3,3,0,1000,250.0,3, D08AS,152,train
928.473949432373,0,4,5,3,1,2,H-,1,0,0,0,1000,250.0,0, D08AS,153,train
640.3591632843018,0,4,5,3,1,2,H-,1,1,4,0,1000,250.0,1, D08AS,154,train
880.469799041748,0,4,5,3,1,2,H-,1,1,4,0,1000,250.0,1, D08AS,155,train
1088.3839130401611,0,4,5,3,1,2,H-,1,3,3,0,1000,250.0,3, D08AS,156,train
576.092004776001,0,4,5,3,1,2,H-,1,3,3,0,1000,250.0,3, D08AS,157,train
592.5660133361816,0,4,5,3,1,2,H-,1,3,3,0,1000,250.0,3, D08AS,158,train
512.3701095581055,0,4,5,3,1,2,H-,1,3,3,0,1000,250.0,3, D08AS,159,train
752.4309158325195,0,4,5,3,1,2,H-,1,1,4,0,1000,250.0,1, D08AS,160,train
1072.5140571594238,0,4,5,3,1,2,H-,1,5,2,0,1000,250.0,5, D08AS,161,train
672.6429462432861,0,4,5,3,1,2,H-,1,3,3,0,1000,250.0,3, D08AS,162,train
496.39892578125,0,4,5,3,1,2,H-,1,3,3,0,1000,250.0,3, D08AS,163,train
736.4239692687988,0,4,5,3,1,2,H-,1,4,1,0,1000,250.0,4, D08AS,164,train
640.4769420623779,0,4,5,3,1,2,H-,1,3,3,0,1000,250.0,3, D08AS,165,train
640.4628753662109,0,4,5,3,1,2,H-,1,2,5,0,1000,250.0,2, D08AS,166,train
608.3590984344482,0,4,5,3,1,2,H-,1,4,1,0,1000,250.0,4, D08AS,167,train
992.4860000610352,0,4,5,3,1,2,H-,1,1,4,0,1000,250.0,1, D08AS,168,train
1136.4259719848633,0,4,5,3,1,2,H-,1,3,3,0,1000,250.0,3, D08AS,169,train
480.4849624633789,0,4,5,3,1,2,H-,1,3,3,0,1000,250.0,3, D08AS,170,train
736.4680767059326,0,4,5,3,1,2,H-,1,0,0,0,1000,250.0,0, D08AS,171,train
656.4500331878662,0,4,5,3,1,2,H-,1,4,1,0,1000,250.0,4, D08AS,172,train
944.3769454956055,0,4,5,3,1,2,H-,1,3,3,0,1000,250.0,3, D08AS,173,train
608.4530353546143,0,4,5,3,1,2,H-,1,3,3,0,1000,250.0,3, D08AS,174,train
608.4718704223633,0,4,5,3,1,2,H-,1,4,1,0,1000,250.0,4, D08AS,175,train
688.4150505065918,0,4,5,3,1,2,H-,1,2,5,0,1000,250.0,2, D08AS,176,train
576.4141082763672,0,4,5,3,1,2,H-,1,3,3,0,1000,250.0,3, D08AS,177,train
688.4469985961914,0,4,5,3,1,2,H-,0,0,0,0,1000,250.0,1, D08AS,178,train
800.9350299835205,0,4,5,3,1,2,H-,1,4,1,0,1000,250.0,4, D08AS,179,train
592.9150581359863,0,4,5,3,1,2,H-,1,4,1,0,1000,250.0,4, D08AS,180,train
593.0640697479248,0,4,5,3,1,2,H-,1,2,5,0,1000,250.0,2, D08AS,181,train
929.063081741333,0,4,5,3,1,2,H-,1,5,2,0,1000,250.0,5, D08AS,182,train
1057.0509433746338,0,4,5,3,1,2,H-,1,0,0,0,1000,250.0,0, D08AS,183,train
801.0900020599365,0,4,5,3,1,2,H-,1,1,4,0,1000,250.0,1, D08AS,184,train
497.0049858093262,0,4,5,3,1,2,H-,1,1,4,0,1000,250.0,1, D08AS,185,train
544.0380573272705,0,4,5,3,1,2,H-,1,1,4,0,1000,250.0,1, D08AS,186,train
448.3988285064697,0,4,5,3,1,2,H-,1,1,4,0,1000,250.0,1, D08AS,187,train
576.2760639190674,0,4,5,3,1,2,H-,1,2,5,0,1000,250.0,2, D08AS,188,train
416.47887229919434,0,4,5,3,1,2,H-,1,1,4,0,1000,250.0,1, D08AS,189,train
720.5009460449219,0,4,5,3,1,2,H-,1,0,0,0,1000,250.0,0, D08AS,190,train
688.4288787841797,0,4,5,3,1,2,H-,1,0,0,0,1000,250.0,0, D08AS,191,train
464.540958404541,0,4,5,3,1,2,H-,1,2,5,0,1000,250.0,2, D08AS,192,train
784.5358848571777,0,4,5,3,1,2,H-,1,5,2,0,1000,250.0,5, D08AS,193,train
464.5378589630127,0,4,5,3,1,2,H-,1,5,2,0,1000,250.0,5, D08AS,194,train
576.5259265899658,0,4,5,3,1,2,H-,1,2,5,0,1000,250.0,2, D08AS,195,train
496.4900016784668,0,4,5,3,1,2,H-,1,2,5,0,1000,250.0,2, D08AS,196,train
576.5151977539062,0,4,5,3,1,2,H-,1,0,0,0,1000,250.0,0, D08AS,197,train
672.5540161132812,0,4,5,3,1,2,H-,1,1,4,0,1000,250.0,1, D08AS,198,train
768.5520648956299,0,4,5,3,1,2,H-,1,4,1,0,1000,250.0,4, D08AS,199,train
736.4790439605713,0,4,5,3,1,2,H-,1,0,0,0,1000,250.0,0, D08AS,200,train
576.5271186828613,0,4,5,3,1,2,H-,1,2,5,0,1000,250.0,2, D08AS,201,train
832.4790000915527,0,4,5,3,1,2,H-,1,1,4,0,1000,250.0,1, D08AS,202,train
608.4070205688477,0,4,5,3,1,2,H-,1,1,4,0,1000,250.0,1, D08AS,203,train
688.55881690979,0,4,5,3,1,2,H-,0,3,3,0,1000,250.0,2, D08AS,204,train
912.4882221221924,0,4,5,3,1,2,H-,1,5,2,0,1000,250.0,5, D08AS,205,train
1024.4739055633545,0,4,5,3,1,2,H-,1,2,5,0,1000,250.0,2, D08AS,206,train
848.4539985656738,0,4,5,3,1,2,H-,1,4,1,0,1000,250.0,4, D08AS,207,train
656.4459800720215,0,4,5,3,1,2,H-,1,1,4,0,1000,250.0,1, D08AS,208,train
1024.9521732330322,0,4,5,3,1,2,H-,1,3,3,0,1000,250.0,3, D08AS,209,train
465.0568962097168,0,4,5,3,1,2,H-,1,2,5,0,1000,250.0,2, D08AS,210,train
545.0119972229004,0,4,5,3,1,2,H-,1,3,3,0,1000,250.0,3, D08AS,211,train
577.111005783081,0,4,5,3,1,2,H-,1,5,2,0,1000,250.0,5, D08AS,212,train
497.175931930542,0,4,5,3,1,2,H-,1,2,5,0,1000,250.0,2, D08AS,213,train
673.1400489807129,0,4,5,3,1,2,H-,1,0,0,0,1000,250.0,0, D08AS,214,train
656.9781303405762,0,4,5,3,1,2,H-,1,0,0,0,1000,250.0,0, D08AS,215,train
688.9548301696777,0,4,5,3,1,2,H-,1,5,2,0,1000,250.0,5, D08AS,216,train
641.1099433898926,0,4,5,3,1,2,H-,1,2,5,0,1000,250.0,2, D08AS,217,train
609.1499328613281,0,4,5,3,1,2,H-,1,1,4,0,1000,250.0,1, D08AS,218,train
736.5269660949707,0,4,5,3,1,2,H-,1,4,1,0,1000,250.0,4, D08AS,219,train
464.5090103149414,0,4,5,3,1,2,H-,1,4,1,0,1000,250.0,4, D08AS,220,train
927.7949333190918,0,4,5,3,1,2,H-,1,3,3,0,1000,250.0,3, D08AS,221,train
480.3609848022461,0,4,5,3,1,2,H-,1,4,1,0,1000,250.0,4, D08AS,222,train
720.5319404602051,0,4,5,3,1,2,H-,1,5,2,0,1000,250.0,5, D08AS,223,train
464.43796157836914,0,4,5,3,1,2,H-,1,5,2,0,1000,250.0,5, D08AS,224,train
432.4359893798828,0,4,5,3,1,2,H-,1,5,2,0,1000,250.0,5, D08AS,225,train
592.4158096313477,0,4,5,3,1,2,H-,1,4,1,0,1000,250.0,4, D08AS,226,train
560.4770183563232,0,4,5,3,1,2,H-,1,4,1,0,1000,250.0,4, D08AS,227,train
656.4919948577881,0,4,5,3,1,2,H-,1,2,5,0,1000,250.0,2, D08AS,228,train
672.5709438323975,0,4,5,3,1,2,H-,1,5,2,0,1000,250.0,5, D08AS,229,train
704.5919895172119,0,4,5,3,1,2,H-,1,1,4,0,1000,250.0,1, D08AS,230,train
576.9519805908203,0,4,5,3,1,2,H-,1,2,5,0,1000,250.0,2, D08AS,231,train
977.1649837493896,0,4,5,3,1,2,H-,1,5,2,0,1000,250.0,5, D08AS,232,train
593.0728912353516,0,4,5,3,1,2,H-,1,4,1,0,1000,250.0,4, D08AS,233,train
864.4659519195557,0,4,5,3,1,2,H-,1,3,3,0,1000,250.0,3, D08AS,234,train
608.5290908813477,0,4,5,3,1,2,H-,1,5,2,0,1000,250.0,5, D08AS,235,train
864.434003829956,0,4,5,3,1,2,H-,1,1,4,0,1000,250.0,1, D08AS,236,train
512.476921081543,0,4,5,3,1,2,H-,1,1,4,0,1000,250.0,1, D08AS,237,train
576.5049457550049,0,4,5,3,1,2,H-,1,5,2,0,1000,250.0,5, D08AS,238,train
592.5278663635254,0,4,5,3,1,2,H-,1,4,1,0,1000,250.0,4, D08AS,239,train
784.4710350036621,0,4,5,3,1,2,H-,1,0,0,0,1000,250.0,0, D08AS,240,train
560.5652332305908,0,4,5,3,1,2,H-,1,0,0,0,1000,250.0,0, D08AS,241,train
864.5389080047607,0,4,5,3,1,2,H-,1,3,3,0,1000,250.0,3, D08AS,242,train
464.54811096191406,0,4,5,3,1,2,H-,1,3,3,0,1000,250.0,3, D08AS,243,train
640.4891014099121,0,4,5,3,1,2,H-,0,1,4,0,1000,250.0,0, D08AS,244,train
800.4770278930664,0,4,5,3,1,2,H-,1,2,5,0,1000,250.0,2, D08AS,245,train
592.5309658050537,0,4,5,3,1,2,H-,1,1,4,0,1000,250.0,1, D08AS,246,train
624.4769096374512,0,4,5,3,1,2,H-,1,4,1,0,1000,250.0,4, D08AS,247,train
800.5101680755615,0,4,5,3,1,2,H-,1,3,3,0,1000,250.0,3, D08AS,248,train
592.5540924072266,0,4,5,3,1,2,H-,1,1,4,0,1000,250.0,1, D08AS,249,train
1200.6540298461914,5,2,4,3,1,0,H-,0,5,0,0,1000,250.0,0, D08AS,250,test
1696.969985961914,5,2,4,3,1,0,H-,1,0,5,0,1000,250.0,0, D08AS,251,test
1073.0488300323486,5,2,4,3,1,0,H-,0,3,3,0,1000,250.0,4, D08AS,252,test
1617.041826248169,5,2,4,3,1,0,H-,0,0,5,0,1000,250.0,5, D08AS,253,test
1713.0370140075684,5,2,4,3,1,0,H-,1,4,2,0,1000,250.0,4, D08AS,254,test
1089.0209674835205,5,2,4,3,1,0,H-,1,2,1,0,1000,250.0,2, D08AS,255,test
1857.032060623169,5,2,4,3,1,0,H-,1,0,5,0,1000,250.0,0, D08AS,256,test
1424.8321056365967,5,2,4,3,1,0,H-,1,4,2,0,1000,250.0,4, D08AS,257,test
2449.083089828491,5,2,4,3,1,0,H-,1,2,1,0,1000,250.0,2, D08AS,258,test
1265.0659084320068,5,2,4,3,1,0,H-,1,3,3,0,1000,250.0,3, D08AS,259,test
481.0020923614502,5,2,4,3,1,0,H-,1,3,3,0,1000,250.0,3, D08AS,260,test
721.2049961090088,5,2,4,3,1,0,H-,1,0,5,0,1000,250.0,0, D08AS,261,test
1281.116008758545,5,2,4,3,1,0,H-,1,2,1,0,1000,250.0,2, D08AS,262,test
1777.0769596099854,5,2,4,3,1,0,H-,1,5,0,0,1000,250.0,5, D08AS,263,test
1232.9630851745605,5,2,4,3,1,0,H-,1,2,1,0,1000,250.0,2, D08AS,264,test
1584.6219062805176,5,2,4,3,1,0,H-,1,3,3,0,1000,250.0,3, D08AS,265,test
1392.4589157104492,5,2,4,3,1,0,H-,1,3,3,0,1000,250.0,3, D08AS,266,test
641.1731243133545,5,2,4,3,1,0,H-,1,1,4,0,1000,250.0,1, D08AS,267,test
529.008150100708,5,2,4,3,1,0,H-,1,1,4,0,1000,250.0,1, D08AS,268,test
1296.8740463256836,5,2,4,3,1,0,H-,1,2,1,0,1000,250.0,2, D08AS,269,test
1089.1470909118652,5,2,4,3,1,0,H-,1,3,3,0,1000,250.0,3, D08AS,270,test
593.1179523468018,5,2,4,3,1,0,H-,1,1,4,0,1000,250.0,1, D08AS,271,test
688.4551048278809,5,2,4,3,1,0,H-,1,4,2,0,1000,250.0,4, D08AS,272,test
944.4699287414551,5,2,4,3,1,0,H-,1,3,3,0,1000,250.0,3, D08AS,273,test
752.4969577789307,5,2,4,3,1,0,H-,1,0,5,0,1000,250.0,0, D08AS,274,test
752.5238990783691,5,2,4,3,1,0,H-,1,2,1,0,1000,250.0,2, D08AS,275,test
2400.4809856414795,5,2,4,3,1,0,H-,1,3,3,0,1000,250.0,3, D08AS,276,test
624.5079040527344,5,2,4,3,1,0,H-,1,4,2,0,1000,250.0,4, D08AS,277,test
656.4218997955322,5,2,4,3,1,0,H-,0,5,0,0,1000,250.0,0, D08AS,278,test
864.4230365753174,5,2,4,3,1,0,H-,0,2,1,0,1000,250.0,3, D08AS,279,test
1088.374137878418,5,2,4,3,1,0,H-,1,3,3,0,1000,250.0,3, D08AS,280,test
688.4739398956299,5,2,4,3,1,0,H-,1,3,3,0,1000,250.0,3, D08AS,281,test
400.4979133605957,5,2,4,3,1,0,H-,1,3,3,0,1000,250.0,3, D08AS,282,test
352.5099754333496,5,2,4,3,1,0,H-,1,3,3,0,1000,250.0,3, D08AS,283,test
368.4248924255371,5,2,4,3,1,0,H-,1,3,3,0,1000,250.0,3, D08AS,284,test
336.4219665527344,5,2,4,3,1,0,H-,1,3,3,0,1000,250.0,3, D08AS,285,test
1072.5619792938232,5,2,4,3,1,0,H-,1,4,2,0,1000,250.0,4, D08AS,286,test
576.5030384063721,5,2,4,3,1,0,H-,1,1,4,0,1000,250.0,1, D08AS,287,test
2208.4898948669434,5,2,4,3,1,0,H-,1,2,1,0,1000,250.0,2, D08AS,288,test
2432.5509071350098,5,2,4,3,1,0,H-,1,5,0,0,1000,250.0,5, D08AS,289,test
592.4761295318604,5,2,4,3,1,0,H-,1,1,4,0,1000,250.0,1, D08AS,290,test
1472.416877746582,5,2,4,3,1,0,H-,1,3,3,0,1000,250.0,3, D08AS,291,test
576.5480995178223,5,2,4,3,1,0,H-,1,1,4,0,1000,250.0,1, D08AS,292,test
560.5080127716064,5,2,4,3,1,0,H-,1,3,3,0,1000,250.0,3, D08AS,293,test
576.4479637145996,5,2,4,3,1,0,H-,1,3,3,0,1000,250.0,3, D08AS,294,test
416.54181480407715,5,2,4,3,1,0,H-,1,1,4,0,1000,250.0,1, D08AS,295,test
352.4889945983887,5,2,4,3,1,0,H-,1,3,3,0,1000,250.0,3, D08AS,296,test
816.525936126709,5,2,4,3,1,0,H-,1,4,2,0,1000,250.0,4, D08AS,297,test
672.5151538848877,5,2,4,3,1,0,H-,1,3,3,0,1000,250.0,3, D08AS,298,test
1072.4990367889404,5,2,4,3,1,0,H-,1,4,2,0,1000,250.0,4, D08AS,299,test
815.4869079589844,5,2,4,3,1,0,H-,1,5,0,0,1000,250.0,5, D08AS,300,test
496.53100967407227,5,2,4,3,1,0,H-,1,1,4,0,1000,250.0,1, D08AS,301,test
688.4748935699463,5,2,4,3,1,0,H-,1,3,3,0,1000,250.0,3, D08AS,302,test
368.4389591217041,5,2,4,3,1,0,H-,1,0,5,0,1000,250.0,0, D08AS,303,test
576.5359401702881,5,2,4,3,1,0,H-,1,4,2,0,1000,250.0,4, D08AS,304,test
448.64487648010254,5,2,4,3,1,0,H-,0,0,5,0,1000,250.0,2, D08AS,305,test
1104.4120788574219,5,2,4,3,1,0,H-,1,5,0,0,1000,250.0,5, D08AS,306,test
1776.9148349761963,5,2,4,3,1,0,H-,1,2,1,0,1000,250.0,2, D08AS,307,test
641.0319805145264,5,2,4,3,1,0,H-,1,1,4,0,1000,250.0,1, D08AS,308,test
624.9690055847168,5,2,4,3,1,0,H-,1,5,0,0,1000,250.0,5, D08AS,309,test
801.2220859527588,5,2,4,3,1,0,H-,1,4,2,0,1000,250.0,4, D08AS,310,test
705.132007598877,5,2,4,3,1,0,H-,1,0,5,0,1000,250.0,0, D08AS,311,test
689.1059875488281,5,2,4,3,1,0,H-,1,4,2,0,1000,250.0,4, D08AS,312,test
481.1680316925049,5,2,4,3,1,0,H-,1,4,2,0,1000,250.0,4, D08AS,313,test
593.177080154419,5,2,4,3,1,0,H-,1,1,4,0,1000,250.0,1, D08AS,314,test
577.0461559295654,5,2,4,3,1,0,H-,1,0,5,0,1000,250.0,0, D08AS,315,test
736.5231513977051,5,2,4,3,1,0,H-,1,5,0,0,1000,250.0,5, D08AS,316,test
576.4329433441162,5,2,4,3,1,0,H-,1,1,4,0,1000,250.0,1, D08AS,317,test
784.7011089324951,5,2,4,3,1,0,H-,1,5,0,0,1000,250.0,5, D08AS,318,test
608.5338592529297,5,2,4,3,1,0,H-,1,4,2,0,1000,250.0,4, D08AS,319,test
608.4518432617188,5,2,4,3,1,0,H-,1,1,4,0,1000,250.0,1, D08AS,320,test
1136.5399360656738,5,2,4,3,1,0,H-,0,3,3,0,1000,250.0,2, D08AS,321,test
1792.4389839172363,5,2,4,3,1,0,H-,1,2,1,0,1000,250.0,2, D08AS,322,test
656.47292137146,5,2,4,3,1,0,H-,1,0,5,0,1000,250.0,0, D08AS,323,test
672.4951267242432,5,2,4,3,1,0,H-,1,1,4,0,1000,250.0,1, D08AS,324,test
672.3358631134033,5,2,4,3,1,0,H-,1,5,0,0,1000,250.0,5, D08AS,325,test
848.5400676727295,5,2,4,3,1,0,H-,1,5,0,0,1000,250.0,5, D08AS,326,test
688.4050369262695,5,2,4,3,1,0,H-,1,5,0,0,1000,250.0,5, D08AS,327,test
736.5491390228271,5,2,4,3,1,0,H-,1,4,2,0,1000,250.0,4, D08AS,328,test
656.5170288085938,5,2,4,3,1,0,H-,1,1,4,0,1000,250.0,1, D08AS,329,test
784.4889163970947,5,2,4,3,1,0,H-,1,4,2,0,1000,250.0,4, D08AS,330,test
592.3900604248047,5,2,4,3,1,0,H-,1,4,2,0,1000,250.0,4, D08AS,331,test
656.5029621124268,5,2,4,3,1,0,H-,1,0,5,0,1000,250.0,0, D08AS,332,test
432.35087394714355,5,2,4,3,1,0,H-,1,0,5,0,1000,250.0,0, D08AS,333,test
832.5541019439697,5,2,4,3,1,0,H-,1,5,0,0,1000,250.0,5, D08AS,334,test
784.592866897583,5,2,4,3,1,0,H-,0,2,1,0,1000,250.0,1, D08AS,335,test
688.493013381958,5,2,4,3,1,0,H-,1,4,2,0,1000,250.0,4, D08AS,336,test
1104.5281887054443,5,2,4,3,1,0,H-,1,5,0,0,1000,250.0,5, D08AS,337,test
625.1609325408936,5,2,4,3,1,0,H-,1,5,0,0,1000,250.0,5, D08AS,338,test
656.9981575012207,5,2,4,3,1,0,H-,1,4,2,0,1000,250.0,4, D08AS,339,test
1009.2110633850098,5,2,4,3,1,0,H-,1,2,1,0,1000,250.0,2, D08AS,340,test
576.9610404968262,5,2,4,3,1,0,H-,1,1,4,0,1000,250.0,1, D08AS,341,test
512.9208564758301,5,2,4,3,1,0,H-,1,0,5,0,1000,250.0,0, D08AS,342,test
529.1459560394287,5,2,4,3,1,0,H-,1,4,2,0,1000,250.0,4, D08AS,343,test
1073.0409622192383,5,2,4,3,1,0,H-,1,3,3,0,1000,250.0,3, D08AS,344,test
529.088020324707,5,2,4,3,1,0,H-,1,4,2,0,1000,250.0,4, D08AS,345,test
513.1511688232422,5,2,4,3,1,0,H-,1,4,2,0,1000,250.0,4, D08AS,346,test
416.92399978637695,5,2,4,3,1,0,H-,1,3,3,0,1000,250.0,3, D08AS,347,test
400.9590148925781,5,2,4,3,1,0,H-,1,3,3,0,1000,250.0,3, D08AS,348,test
529.088020324707,5,2,4,3,1,0,H-,0,2,1,0,1000,250.0,4, D08AS,349,test
369.1098690032959,5,2,4,3,1,0,H-,1,2,1,0,1000,250.0,2, D08AS,350,test
641.0939693450928,5,2,4,3,1,0,H-,1,3,3,0,1000,250.0,3, D08AS,351,test
561.0370635986328,5,2,4,3,1,0,H-,1,1,4,0,1000,250.0,1, D08AS,352,test
641.1600112915039,5,2,4,3,1,0,H-,1,5,0,0,1000,250.0,5, D08AS,353,test
641.0949230194092,5,2,4,3,1,0,H-,1,0,5,0,1000,250.0,0, D08AS,354,test
737.2000217437744,5,2,4,3,1,0,H-,1,2,1,0,1000,250.0,2, D08AS,355,test
656.9859981536865,5,2,4,3,1,0,H-,1,5,0,0,1000,250.0,5, D08AS,356,test
433.04991722106934,5,2,4,3,1,0,H-,1,2,1,0,1000,250.0,2, D08AS,357,test
385.13994216918945,5,2,4,3,1,0,H-,1,2,1,0,1000,250.0,2, D08AS,358,test
1184.8950386047363,5,2,4,3,1,0,H-,1,0,5,0,1000,250.0,0, D08AS,359,test
497.01499938964844,5,2,4,3,1,0,H-,1,5,0,0,1000,250.0,5, D08AS,360,test
721.1799621582031,5,2,4,3,1,0,H-,1,3,3,0,1000,250.0,3, D08AS,361,test
561.0630512237549,5,2,4,3,1,0,H-,1,4,2,0,1000,250.0,4, D08AS,362,test
561.1288547515869,5,2,4,3,1,0,H-,1,0,5,0,1000,250.0,0, D08AS,363,test
561.0899925231934,5,2,4,3,1,0,H-,1,4,2,0,1000,250.0,4, D08AS,364,test
609.1330051422119,5,2,4,3,1,0,H-,1,5,0,0,1000,250.0,5, D08AS,365,test
560.2381229400635,5,2,4,3,1,0,H-,0,1,4,0,1000,250.0,0, D08AS,366,test
448.4539031982422,5,2,4,3,1,0,H-,1,1,4,0,1000,250.0,1, D08AS,367,test
560.528039932251,5,2,4,3,1,0,H-,1,2,1,0,1000,250.0,2, D08AS,368,test
528.602123260498,5,2,4,3,1,0,H-,1,1,4,0,1000,250.0,1, D08AS,369,test
528.555154800415,5,2,4,3,1,0,H-,1,3,3,0,1000,250.0,3, D08AS,370,test
544.471025466919,5,2,4,3,1,0,H-,1,1,4,0,1000,250.0,1, D08AS,371,test
544.5518493652344,5,2,4,3,1,0,H-,1,3,3,0,1000,250.0,3, D08AS,372,test
976.586103439331,5,2,4,3,1,0,H-,1,4,2,0,1000,250.0,4, D08AS,373,test
480.47494888305664,5,2,4,3,1,0,H-,1,4,2,0,1000,250.0,4, D08AS,374,test
576.448917388916,5,2,4,3,1,0,H-,0,0,5,0,1000,250.0,3, D08AS,375,test
592.4170017242432,5,2,4,3,1,0,H-,1,5,0,0,1000,250.0,5, D08AS,376,test
720.5929756164551,5,2,4,3,1,0,H-,1,4,2,0,1000,250.0,4, D08AS,377,test
1136.470079421997,5,2,4,3,1,0,H-,0,0,5,0,1000,250.0,5, D08AS,378,test
1104.3918132781982,5,2,4,3,1,0,H-,1,0,5,0,1000,250.0,0, D08AS,379,test
592.7178859710693,5,2,4,3,1,0,H-,1,1,4,0,1000,250.0,1, D08AS,380,test
881.3080787658691,5,2,4,3,1,0,H-,1,2,1,0,1000,250.0,2, D08AS,381,test
880.9881210327148,5,2,4,3,1,0,H-,1,2,1,0,1000,250.0,2, D08AS,382,test
704.460859298706,5,2,4,3,1,0,H-,1,1,4,0,1000,250.0,1, D08AS,383,test
576.4989852905273,5,2,4,3,1,0,H-,1,1,4,0,1000,250.0,1, D08AS,384,test
864.5641803741455,5,2,4,3,1,0,H-,1,3,3,0,1000,250.0,3, D08AS,385,test
1088.5679721832275,5,2,4,3,1,0,H-,0,5,0,0,1000,250.0,1, D08AS,386,test
656.5120220184326,5,2,4,3,1,0,H-,1,4,2,0,1000,250.0,4, D08AS,387,test
672.1279621124268,5,2,4,3,1,0,H-,1,2,1,0,1000,250.0,2, D08AS,388,test
752.439022064209,5,2,4,3,1,0,H-,1,4,2,0,1000,250.0,4, D08AS,389,test
624.5181560516357,5,2,4,3,1,0,H-,1,2,1,0,1000,250.0,2, D08AS,390,test
576.462984085083,5,2,4,3,1,0,H-,1,2,1,0,1000,250.0,2, D08AS,391,test
1344.482183456421,5,2,4,3,1,0,H-,1,3,3,0,1000,250.0,3, D08AS,392,test
560.5318546295166,5,2,4,3,1,0,H-,1,4,2,0,1000,250.0,4, D08AS,393,test
1616.5320873260498,5,2,4,3,1,0,H-,1,5,0,0,1000,250.0,5, D08AS,394,test
672.4710464477539,5,2,4,3,1,0,H-,1,0,5,0,1000,250.0,0, D08AS,395,test
528.4628868103027,5,2,4,3,1,0,H-,1,1,4,0,1000,250.0,1, D08AS,396,test
544.5690155029297,5,2,4,3,1,0,H-,1,4,2,0,1000,250.0,4, D08AS,397,test
560.4641437530518,5,2,4,3,1,0,H-,1,1,4,0,1000,250.0,1, D08AS,398,test
688.4560585021973,5,2,4,3,1,0,H-,1,3,3,0,1000,250.0,3, D08AS,399,test
688.5840892791748,5,2,4,3,1,0,H-,1,1,4,0,1000,250.0,1, D08AS,400,test
656.5861701965332,5,2,4,3,1,0,H-,1,4,2,0,1000,250.0,4, D08AS,401,test
560.4689121246338,5,2,4,3,1,0,H-,1,1,4,0,1000,250.0,1, D08AS,402,test
576.5879154205322,5,2,4,3,1,0,H-,1,1,4,0,1000,250.0,1, D08AS,403,test
464.52903747558594,5,2,4,3,1,0,H-,1,1,4,0,1000,250.0,1, D08AS,404,test
608.4458827972412,5,2,4,3,1,0,H-,1,4,2,0,1000,250.0,4, D08AS,405,test
448.47607612609863,5,2,4,3,1,0,H-,1,4,2,0,1000,250.0,4, D08AS,406,test
512.5501155853271,5,2,4,3,1,0,H-,1,4,2,0,1000,250.0,4, D08AS,407,test
656.6221714019775,5,2,4,3,1,0,H-,1,3,3,0,1000,250.0,3, D08AS,408,test
544.5311069488525,5,2,4,3,1,0,H-,1,4,2,0,1000,250.0,4, D08AS,409,test
416.5060520172119,5,2,4,3,1,0,H-,1,4,2,0,1000,250.0,4, D08AS,410,test
560.4169368743896,5,2,4,3,1,0,H-,1,3,3,0,1000,250.0,3, D08AS,411,test
592.4551486968994,5,2,4,3,1,0,H-,1,3,3,0,1000,250.0,3, D08AS,412,test
576.4210224151611,5,2,4,3,1,0,H-,1,1,4,0,1000,250.0,1, D08AS,413,test
528.4740924835205,5,2,4,3,1,0,H-,1,0,5,0,1000,250.0,0, D08AS,414,test
592.3948287963867,5,2,4,3,1,0,H-,1,0,5,0,1000,250.0,0, D08AS,415,test
496.54197692871094,5,2,4,3,1,0,H-,1,0,5,0,1000,250.0,0, D08AS,416,test
496.3521957397461,5,2,4,3,1,0,H-,1,0,5,0,1000,250.0,0, D08AS,417,test
800.5518913269043,5,2,4,3,1,0,H-,1,5,0,0,1000,250.0,5, D08AS,418,test
752.4259090423584,5,2,4,3,1,0,H-,1,3,3,0,1000,250.0,3, D08AS,419,test
416.40686988830566,5,2,4,3,1,0,H-,1,3,3,0,1000,250.0,3, D08AS,420,test
640.5129432678223,5,2,4,3,1,0,H-,1,2,1,0,1000,250.0,2, D08AS,421,test
448.46391677856445,5,2,4,3,1,0,H-,1,2,1,0,1000,250.0,2, D08AS,422,test
496.39010429382324,5,2,4,3,1,0,H-,1,2,1,0,1000,250.0,2, D08AS,423,test
911.9770526885986,5,2,4,3,1,0,H-,1,3,3,0,1000,250.0,3, D08AS,424,test
656.5310955047607,5,2,4,3,1,0,H-,1,4,2,0,1000,250.0,4, D08AS,425,test
480.5028438568115,5,2,4,3,1,0,H-,1,2,1,0,1000,250.0,2, D08AS,426,test
576.51686668396,5,2,4,3,1,0,H-,1,3,3,0,1000,250.0,3, D08AS,427,test
1312.4749660491943,5,2,4,3,1,0,H-,1,5,0,0,1000,250.0,5, D08AS,428,test
528.393030166626,5,2,4,3,1,0,H-,1,1,4,0,1000,250.0,1, D08AS,429,test
640.394926071167,5,2,4,3,1,0,H-,1,1,4,0,1000,250.0,1, D08AS,430,test
672.4300384521484,5,2,4,3,1,0,H-,1,3,3,0,1000,250.0,3, D08AS,431,test
688.5080337524414,5,2,4,3,1,0,H-,1,5,0,0,1000,250.0,5, D08AS,432,test
624.4089603424072,5,2,4,3,1,0,H-,1,3,3,0,1000,250.0,3, D08AS,433,test
1488.5129928588867,5,2,4,3,1,0,H-,1,2,1,0,1000,250.0,2, D08AS,434,test
880.565881729126,5,2,4,3,1,0,H-,1,0,5,0,1000,250.0,0, D08AS,435,test
608.5319519042969,5,2,4,3,1,0,H-,1,4,2,0,1000,250.0,4, D08AS,436,test
704.4289112091064,5,2,4,3,1,0,H-,1,2,1,0,1000,250.0,2, D08AS,437,test
1200.5901336669922,5,2,4,3,1,0,H-,1,3,3,0,1000,250.0,3, D08AS,438,test
1136.4428997039795,5,2,4,3,1,0,H-,1,5,0,0,1000,250.0,5, D08AS,439,test
496.55699729919434,5,2,4,3,1,0,H-,1,5,0,0,1000,250.0,5, D08AS,440,test
608.3822250366211,5,2,4,3,1,0,H-,1,0,5,0,1000,250.0,0, D08AS,441,test
640.484094619751,5,2,4,3,1,0,H-,1,5,0,0,1000,250.0,5, D08AS,442,test
448.4999179840088,5,2,4,3,1,0,H-,1,5,0,0,1000,250.0,5, D08AS,443,test
512.4480724334717,5,2,4,3,1,0,H-,1,0,5,0,1000,250.0,0, D08AS,444,test
592.5281047821045,5,2,4,3,1,0,H-,1,5,0,0,1000,250.0,5, D08AS,445,test
432.42788314819336,5,2,4,3,1,0,H-,1,0,5,0,1000,250.0,0, D08AS,446,test
672.3921298980713,5,2,4,3,1,0,H-,1,0,5,0,1000,250.0,0, D08AS,447,test
496.5670108795166,5,2,4,3,1,0,H-,1,0,5,0,1000,250.0,0, D08AS,448,test
2016.4539813995361,5,2,4,3,1,0,H-,1,4,2,0,1000,250.0,4, D08AS,449,test
544.4309711456299,5,2,4,3,1,0,H-,1,4,2,0,1000,250.0,4, D08AS,450,test
592.7779674530029,5,2,4,3,1,0,H-,1,5,0,0,1000,250.0,5, D08AS,451,test
464.4298553466797,5,2,4,3,1,0,H-,1,4,2,0,1000,250.0,4, D08AS,452,test
609.1339588165283,5,2,4,3,1,0,H-,1,3,3,0,1000,250.0,3, D08AS,453,test
657.0570468902588,5,2,4,3,1,0,H-,1,2,1,0,1000,250.0,2, D08AS,454,test
609.0080738067627,5,2,4,3,1,0,H-,1,1,4,0,1000,250.0,1, D08AS,455,test
560.9419345855713,5,2,4,3,1,0,H-,1,4,2,0,1000,250.0,4, D08AS,456,test
593.019962310791,5,2,4,3,1,0,H-,1,0,5,0,1000,250.0,0, D08AS,457,test
1248.8420009613037,5,2,4,3,1,0,H-,1,5,0,0,1000,250.0,5, D08AS,458,test
561.0339641571045,5,2,4,3,1,0,H-,1,4,2,0,1000,250.0,4, D08AS,459,test
721.0071086883545,5,2,4,3,1,0,H-,1,3,3,0,1000,250.0,3, D08AS,460,test
801.0890483856201,5,2,4,3,1,0,H-,1,2,1,0,1000,250.0,2, D08AS,461,test
544.8310375213623,5,2,4,3,1,0,H-,1,0,5,0,1000,250.0,0, D08AS,462,test
656.5229892730713,5,2,4,3,1,0,H-,1,2,1,0,1000,250.0,2, D08AS,463,test
720.5967903137207,5,2,4,3,1,0,H-,1,0,5,0,1000,250.0,0, D08AS,464,test
576.5881538391113,5,2,4,3,1,0,H-,1,1,4,0,1000,250.0,1, D08AS,465,test
848.5031127929688,5,2,4,3,1,0,H-,1,3,3,0,1000,250.0,3, D08AS,466,test
960.5770111083984,5,2,4,3,1,0,H-,1,2,1,0,1000,250.0,2, D08AS,467,test
576.530933380127,5,2,4,3,1,0,H-,1,1,4,0,1000,250.0,1, D08AS,468,test
736.591100692749,5,2,4,3,1,0,H-,1,2,1,0,1000,250.0,2, D08AS,469,test
656.5289497375488,5,2,4,3,1,0,H-,1,3,3,0,1000,250.0,3, D08AS,470,test
656.5301418304443,5,2,4,3,1,0,H-,1,2,1,0,1000,250.0,2, D08AS,471,test
672.5130081176758,5,2,4,3,1,0,H-,1,1,4,0,1000,250.0,1, D08AS,472,test
944.5250034332275,5,2,4,3,1,0,H-,1,0,5,0,1000,250.0,0, D08AS,473,test
592.5660133361816,5,2,4,3,1,0,H-,1,1,4,0,1000,250.0,1, D08AS,474,test
624.370813369751,5,2,4,3,1,0,H-,1,4,2,0,1000,250.0,4, D08AS,475,test
912.4929904937744,5,2,4,3,1,0,H-,1,5,0,0,1000,250.0,5, D08AS,476,test
864.4859790802002,5,2,4,3,1,0,H-,1,5,0,0,1000,250.0,5, D08AS,477,test
656.4640998840332,5,2,4,3,1,0,H-,1,1,4,0,1000,250.0,1, D08AS,478,test
688.3940696716309,5,2,4,3,1,0,H-,1,3,3,0,1000,250.0,3, D08AS,479,test
544.4581508636475,5,2,4,3,1,0,H-,1,1,4,0,1000,250.0,1, D08AS,480,test
784.559965133667,5,2,4,3,1,0,H-,1,0,5,0,1000,250.0,0, D08AS,481,test
528.5708904266357,5,2,4,3,1,0,H-,1,0,5,0,1000,250.0,0, D08AS,482,test
496.5229034423828,5,2,4,3,1,0,H-,1,1,4,0,1000,250.0,1, D08AS,483,test
656.505823135376,5,2,4,3,1,0,H-,1,2,1,0,1000,250.0,2, D08AS,484,test
575.7780075073242,5,2,4,3,1,0,H-,1,4,2,0,1000,250.0,4, D08AS,485,test
672.4610328674316,5,2,4,3,1,0,H-,1,4,2,0,1000,250.0,4, D08AS,486,test
688.55881690979,5,2,4,3,1,0,H-,1,5,0,0,1000,250.0,5, D08AS,487,test
576.5509605407715,5,2,4,3,1,0,H-,1,4,2,0,1000,250.0,4, D08AS,488,test
592.5807952880859,5,2,4,3,1,0,H-,1,5,0,0,1000,250.0,5, D08AS,489,test
592.4229621887207,5,2,4,3,1,0,H-,1,5,0,0,1000,250.0,5, D08AS,490,test
656.5530300140381,5,2,4,3,1,0,H-,1,0,5,0,1000,250.0,0, D08AS,491,test
752.4619102478027,5,2,4,3,1,0,H-,1,2,1,0,1000,250.0,2, D08AS,492,test
816.5559768676758,5,2,4,3,1,0,H-,1,3,3,0,1000,250.0,3, D08AS,493,test
576.5130519866943,5,2,4,3,1,0,H-,1,3,3,0,1000,250.0,3, D08AS,494,test
608.5550785064697,5,2,4,3,1,0,H-,1,0,5,0,1000,250.0,0, D08AS,495,test
496.5360164642334,5,2,4,3,1,0,H-,1,0,5,0,1000,250.0,0, D08AS,496,test
448.4841823577881,5,2,4,3,1,0,H-,1,0,5,0,1000,250.0,0, D08AS,497,test
688.633918762207,5,2,4,3,1,0,H-,1,2,1,0,1000,250.0,2, D08AS,498,test
432.2028160095215,5,2,4,3,1,0,H-,1,2,1,0,1000,250.0,2, D08AS,499,test
