RT,SRmap_0,SRmap_1,SRmap_2,SRmap_3,SRmap_4,SRmap_5,condition,correct,correct_response,curstim,ms-precue,ms-prestimblank,ntrials,response,subject,trial,type
5663.648843765259,0,4,1,3,2,5,H-,1,1,2,0,1000,250.0,1,D20LL,0,train
3744.9119091033936,0,4,1,3,2,5,H-,1,5,5,0,1000,250.0,5,D20LL,1,train
1985.1300716400146,0,4,1,3,2,5,H-,0,2,4,0,1000,250.0,1,D20LL,2,train
1825.1540660858154,0,4,1,3,2,5,H-,1,5,5,0,1000,250.0,5,D20LL,3,train
1120.9700107574463,0,4,1,3,2,5,H-,1,0,0,0,1000,250.0,0,D20LL,4,train
673.0680465698242,0,4,1,3,2,5,H-,1,0,0,0,1000,250.0,0,D20LL,5,train
2097.0840454101562,0,4,1,3,2,5,H-,1,4,1,0,1000,250.0,4,D20LL,6,train
1089.1120433807373,0,4,1,3,2,5,H-,1,1,2,0,1000,250.0,1,D20LL,7,train
2225.0850200653076,0,4,1,3,2,5,H-,0,2,4,0,1000,250.0,1,D20LL,8,train
1185.1379871368408,0,4,1,3,2,5,H-,1,1,2,0,1000,250.0,1,D20LL,9,train
1409.0330600738525,0,4,1,3,2,5,H-,1,2,4,0,1000,250.0,2,D20LL,10,train
1360.92209815979,0,4,1,3,2,5,H-,1,3,3,0,1000,250.0,3,D20LL,11,train
865.0500774383545,0,4,1,3,2,5,H-,1,2,4,0,1000,250.0,2,D20LL,12,train
881.2038898468018,0,4,1,3,2,5,H-,1,2,4,0,1000,250.0,2,D20LL,13,train
769.1478729248047,0,4,1,3,2,5,H-,1,1,2,0,1000,250.0,1,D20LL,14,train
1377.1018981933594,0,4,1,3,2,5,H-,1,4,1,0,1000,250.0,4,D20LL,15,train
913.2351875305176,0,4,1,3,2,5,H-,1,3,3,0,1000,250.0,3,D20LL,16,train
801.1798858642578,0,4,1,3,2,5,H-,1,2,4,0,1000,250.0,2,D20LL,17,train
737.1659278869629,0,4,1,3,2,5,H-,1,3,3,0,1000,250.0,3,D20LL,18,train
673.1529235839844,0,4,1,3,2,5,H-,1,4,1,0,1000,250.0,4,D20LL,19,train
993.1299686431885,0,4,1,3,2,5,H-,1,3,3,0,1000,250.0,3,D20LL,20,train
641.171932220459,0,4,1,3,2,5,H-,1,4,1,0,1000,250.0,4,D20LL,21,train
1121.2830543518066,0,4,1,3,2,5,H-,1,0,0,0,1000,250.0,0,D20LL,22,train
737.130880355835,0,4,1,3,2,5,H-,1,5,5,0,1000,250.0,5,D20LL,23,train
625.1800060272217,0,4,1,3,2,5,H-,1,1,2,0,1000,250.0,1,D20LL,24,train
608.922004699707,0,4,1,3,2,5,H-,1,5,5,0,1000,250.0,5,D20LL,25,train
577.1670341491699,0,4,1,3,2,5,H-,1,1,2,0,1000,250.0,1,D20LL,26,train
577.1729946136475,0,4,1,3,2,5,H-,1,2,4,0,1000,250.0,2,D20LL,27,train
593.1370258331299,0,4,1,3,2,5,H-,1,0,0,0,1000,250.0,0,D20LL,28,train
1009.105920791626,0,4,1,3,2,5,H-,0,3,3,0,1000,250.0,4,D20LL,29,train
561.0840320587158,0,4,1,3,2,5,H-,1,1,2,0,1000,250.0,1,D20LL,30,train
577.0249366760254,0,4,1,3,2,5,H-,1,0,0,0,1000,250.0,0,D20LL,31,train
481.1408519744873,0,4,1,3,2,5,H-,1,0,0,0,1000,250.0,0,D20LL,32,train
561.1991882324219,0,4,1,3,2,5,H-,1,2,4,0,1000,250.0,2,D20LL,33,train
529.1800498962402,0,4,1,3,2,5,H-,1,1,2,0,1000,250.0,1,D20LL,34,train
561.0029697418213,0,4,1,3,2,5,H-,1,1,2,0,1000,250.0,1,D20LL,35,train
689.0478134155273,0,4,1,3,2,5,H-,1,4,1,0,1000,250.0,4,D20LL,36,train
593.1370258331299,0,4,1,3,2,5,H-,1,1,2,0,1000,250.0,1,D20LL,37,train
912.9438400268555,0,4,1,3,2,5,H-,0,5,5,0,1000,250.0,0,D20LL,38,train
689.1100406646729,0,4,1,3,2,5,H-,1,4,1,0,1000,250.0,4,D20LL,39,train
641.2041187286377,0,4,1,3,2,5,H-,1,5,5,0,1000,250.0,5,D20LL,40,train
769.1681385040283,0,4,1,3,2,5,H-,0,3,3,0,1000,250.0,4,D20LL,41,train
1697.1619129180908,0,4,1,3,2,5,H-,1,4,1,0,1000,250.0,4,D20LL,42,train
577.1479606628418,0,4,1,3,2,5,H-,1,4,1,0,1000,250.0,4,D20LL,43,train
673.1820106506348,0,4,1,3,2,5,H-,1,3,3,0,1000,250.0,3,D20LL,44,train
545.0201034545898,0,4,1,3,2,5,H-,1,0,0,0,1000,250.0,0,D20LL,45,train
449.1839408874512,0,4,1,3,2,5,H-,1,0,0,0,1000,250.0,0,D20LL,46,train
496.71196937561035,0,4,1,3,2,5,H-,1,0,0,0,1000,250.0,0,D20LL,47,train
481.13298416137695,0,4,1,3,2,5,H-,1,1,2,0,1000,250.0,1,D20LL,48,train
465.02113342285156,0,4,1,3,2,5,H-,1,2,4,0,1000,250.0,2,D20LL,49,train
449.15199279785156,0,4,1,3,2,5,H-,1,2,4,0,1000,250.0,2,D20LL,50,train
529.1280746459961,0,4,1,3,2,5,H-,1,3,3,0,1000,250.0,3,D20LL,51,train
545.1409816741943,0,4,1,3,2,5,H-,0,5,5,0,1000,250.0,3,D20LL,52,train
609.266996383667,0,4,1,3,2,5,H-,1,1,2,0,1000,250.0,1,D20LL,53,train
513.159990310669,0,4,1,3,2,5,H-,1,2,4,0,1000,250.0,2,D20LL,54,train
465.19994735717773,0,4,1,3,2,5,H-,1,2,4,0,1000,250.0,2,D20LL,55,train
993.1390285491943,0,4,1,3,2,5,H-,1,0,0,0,1000,250.0,0,D20LL,56,train
641.1550045013428,0,4,1,3,2,5,H-,1,1,2,0,1000,250.0,1,D20LL,57,train
433.1700801849365,0,4,1,3,2,5,H-,1,2,4,0,1000,250.0,2,D20LL,58,train
464.9779796600342,0,4,1,3,2,5,H-,1,2,4,0,1000,250.0,2,D20LL,59,train
545.1450347900391,0,4,1,3,2,5,H-,1,2,4,0,1000,250.0,2,D20LL,60,train
433.2010746002197,0,4,1,3,2,5,H-,1,2,4,0,1000,250.0,2,D20LL,61,train
497.20096588134766,0,4,1,3,2,5,H-,1,5,5,0,1000,250.0,5,D20LL,62,train
561.1929893493652,0,4,1,3,2,5,H-,1,0,0,0,1000,250.0,0,D20LL,63,train
561.1701011657715,0,4,1,3,2,5,H-,1,5,5,0,1000,250.0,5,D20LL,64,train
561.1488819122314,0,4,1,3,2,5,H-,1,4,1,0,1000,250.0,4,D20LL,65,train
544.9221134185791,0,4,1,3,2,5,H-,1,0,0,0,1000,250.0,0,D20LL,66,train
513.1731033325195,0,4,1,3,2,5,H-,1,1,2,0,1000,250.0,1,D20LL,67,train
481.1408519744873,0,4,1,3,2,5,H-,1,4,1,0,1000,250.0,4,D20LL,68,train
497.18713760375977,0,4,1,3,2,5,H-,1,4,1,0,1000,250.0,4,D20LL,69,train
481.10198974609375,0,4,1,3,2,5,H-,1,1,2,0,1000,250.0,1,D20LL,70,train
529.2079448699951,0,4,1,3,2,5,H-,1,4,1,0,1000,250.0,4,D20LL,71,train
497.1590042114258,0,4,1,3,2,5,H-,1,4,1,0,1000,250.0,4,D20LL,72,train
513.1630897521973,0,4,1,3,2,5,H-,1,5,5,0,1000,250.0,5,D20LL,73,train
593.1370258331299,0,4,1,3,2,5,H-,1,5,5,0,1000,250.0,5,D20LL,74,train
529.1330814361572,0,4,1,3,2,5,H-,1,1,2,0,1000,250.0,1,D20LL,75,train
625.1270771026611,0,4,1,3,2,5,H-,1,5,5,0,1000,250.0,5,D20LL,76,train
577.1229267120361,0,4,1,3,2,5,H-,1,4,1,0,1000,250.0,4,D20LL,77,train
417.15502738952637,0,4,1,3,2,5,H-,1,4,1,0,1000,250.0,4,D20LL,78,train
513.2038593292236,0,4,1,3,2,5,H-,1,2,4,0,1000,250.0,2,D20LL,79,train
545.1741218566895,0,4,1,3,2,5,H-,0,3,3,0,1000,250.0,5,D20LL,80,train
513.120174407959,0,4,1,3,2,5,H-,1,0,0,0,1000,250.0,0,D20LL,81,train
513.1919384002686,0,4,1,3,2,5,H-,1,0,0,0,1000,250.0,0,D20LL,82,train
545.1750755310059,0,4,1,3,2,5,H-,1,3,3,0,1000,250.0,3,D20LL,83,train
529.217004776001,0,4,1,3,2,5,H-,1,0,0,0,1000,250.0,0,D20LL,84,train
497.2209930419922,0,4,1,3,2,5,H-,1,0,0,0,1000,250.0,0,D20LL,85,train
833.1551551818848,0,4,1,3,2,5,H-,1,1,2,0,1000,250.0,1,D20LL,86,train
513.0960941314697,0,4,1,3,2,5,H-,1,3,3,0,1000,250.0,3,D20LL,87,train
609.1358661651611,0,4,1,3,2,5,H-,1,5,5,0,1000,250.0,5,D20LL,88,train
529.0441513061523,0,4,1,3,2,5,H-,1,5,5,0,1000,250.0,5,D20LL,89,train
465.14105796813965,0,4,1,3,2,5,H-,1,1,2,0,1000,250.0,1,D20LL,90,train
465.16895294189453,0,4,1,3,2,5,H-,1,5,5,0,1000,250.0,5,D20LL,91,train
529.1638374328613,0,4,1,3,2,5,H-,1,3,3,0,1000,250.0,3,D20LL,92,train
481.0678958892822,0,4,1,3,2,5,H-,1,4,1,0,1000,250.0,4,D20LL,93,train
513.1139755249023,0,4,1,3,2,5,H-,1,4,1,0,1000,250.0,4,D20LL,94,train
561.2320899963379,0,4,1,3,2,5,H-,1,1,2,0,1000,250.0,1,D20LL,95,train
529.1540622711182,0,4,1,3,2,5,H-,1,0,0,0,1000,250.0,0,D20LL,96,train
545.0701713562012,0,4,1,3,2,5,H-,1,5,5,0,1000,250.0,5,D20LL,97,train
481.11414909362793,0,4,1,3,2,5,H-,1,5,5,0,1000,250.0,5,D20LL,98,train
544.9879169464111,0,4,1,3,2,5,H-,1,0,0,0,1000,250.0,0,D20LL,99,train
592.9980278015137,0,4,1,3,2,5,H-,1,5,5,0,1000,250.0,5,D20LL,100,train
688.9660358428955,0,4,1,3,2,5,H-,0,3,3,0,1000,250.0,4,D20LL,101,train
609.0948581695557,0,4,1,3,2,5,H-,1,5,5,0,1000,250.0,5,D20LL,102,train
561.1557960510254,0,4,1,3,2,5,H-,1,2,4,0,1000,250.0,2,D20LL,103,train
737.0390892028809,0,4,1,3,2,5,H-,0,0,0,0,1000,250.0,5,D20LL,104,train
961.1749649047852,0,4,1,3,2,5,H-,1,5,5,0,1000,250.0,5,D20LL,105,train
481.20999336242676,0,4,1,3,2,5,H-,1,5,5,0,1000,250.0,5,D20LL,106,train
497.0550537109375,0,4,1,3,2,5,H-,1,4,1,0,1000,250.0,4,D20LL,107,train
656.9819450378418,0,4,1,3,2,5,H-,1,0,0,0,1000,250.0,0,D20LL,108,train
481.1069965362549,0,4,1,3,2,5,H-,1,0,0,0,1000,250.0,0,D20LL,109,train
768.9468860626221,0,4,1,3,2,5,H-,1,3,3,0,1000,250.0,3,D20LL,110,train
496.96898460388184,0,4,1,3,2,5,H-,1,4,1,0,1000,250.0,4,D20LL,111,train
529.0789604187012,0,4,1,3,2,5,H-,1,3,3,0,1000,250.0,3,D20LL,112,train
561.0911846160889,0,4,1,3,2,5,H-,1,3,3,0,1000,250.0,3,D20LL,113,train
528.9640426635742,0,4,1,3,2,5,H-,1,4,1,0,1000,250.0,4,D20LL,114,train
448.93693923950195,0,4,1,3,2,5,H-,1,4,1,0,1000,250.0,4,D20LL,115,train
529.1099548339844,0,4,1,3,2,5,H-,1,2,4,0,1000,250.0,2,D20LL,116,train
753.1349658966064,0,4,1,3,2,5,H-,1,3,3,0,1000,250.0,3,D20LL,117,train
577.2430896759033,0,4,1,3,2,5,H-,1,1,2,0,1000,250.0,1,D20LL,118,train
657.0219993591309,0,4,1,3,2,5,H-,1,0,0,0,1000,250.0,0,D20LL,119,train
513.1089687347412,0,4,1,3,2,5,H-,1,1,2,0,1000,250.0,1,D20LL,120,train
449.0640163421631,0,4,1,3,2,5,H-,1,2,4,0,1000,250.0,2,D20LL,121,train
753.1509399414062,0,4,1,3,2,5,H-,1,0,0,0,1000,250.0,0,D20LL,122,train
465.18516540527344,0,4,1,3,2,5,H-,1,3,3,0,1000,250.0,3,D20LL,123,train
609.1470718383789,0,4,1,3,2,5,H-,1,1,2,0,1000,250.0,1,D20LL,124,train
769.1771984100342,0,4,1,3,2,5,H-,0,5,5,0,1000,250.0,0,D20LL,125,train
545.1259613037109,0,4,1,3,2,5,H-,1,4,1,0,1000,250.0,4,D20LL,126,train
497.04504013061523,0,4,1,3,2,5,H-,1,2,4,0,1000,250.0,2,D20LL,127,train
529.1731357574463,0,4,1,3,2,5,H-,1,1,2,0,1000,250.0,1,D20LL,128,train
465.1010036468506,0,4,1,3,2,5,H-,1,2,4,0,1000,250.0,2,D20LL,129,train
577.1529674530029,0,4,1,3,2,5,H-,1,4,1,0,1000,250.0,4,D20LL,130,train
513.1940841674805,0,4,1,3,2,5,H-,1,4,1,0,1000,250.0,4,D20LL,131,train
561.215877532959,0,4,1,3,2,5,H-,0,5,5,0,1000,250.0,0,D20LL,132,train
833.2040309906006,0,4,1,3,2,5,H-,1,5,5,0,1000,250.0,5,D20LL,133,train
1009.2501640319824,0,4,1,3,2,5,H-,1,0,0,0,1000,250.0,0,D20LL,134,train
545.1850891113281,0,4,1,3,2,5,H-,1,2,4,0,1000,250.0,2,D20LL,135,train
529.1759967803955,0,4,1,3,2,5,H-,1,4,1,0,1000,250.0,4,D20LL,136,train
545.2079772949219,0,4,1,3,2,5,H-,1,2,4,0,1000,250.0,2,D20LL,137,train
513.1800174713135,0,4,1,3,2,5,H-,1,2,4,0,1000,250.0,2,D20LL,138,train
465.101957321167,0,4,1,3,2,5,H-,1,2,4,0,1000,250.0,2,D20LL,139,train
657.1550369262695,0,4,1,3,2,5,H-,1,3,3,0,1000,250.0,3,D20LL,140,train
624.9990463256836,0,4,1,3,2,5,H-,1,5,5,0,1000,250.0,5,D20LL,141,train
593.1339263916016,0,4,1,3,2,5,H-,1,1,2,0,1000,250.0,1,D20LL,142,train
657.1588516235352,0,4,1,3,2,5,H-,1,4,1,0,1000,250.0,4,D20LL,143,train
481.20713233947754,0,4,1,3,2,5,H-,1,3,3,0,1000,250.0,3,D20LL,144,train
721.1520671844482,0,4,1,3,2,5,H-,1,1,2,0,1000,250.0,1,D20LL,145,train
1025.2158641815186,0,4,1,3,2,5,H-,0,5,5,0,1000,250.0,3,D20LL,146,train
657.1590900421143,0,4,1,3,2,5,H-,1,3,3,0,1000,250.0,3,D20LL,147,train
817.2240257263184,0,4,1,3,2,5,H-,1,3,3,0,1000,250.0,3,D20LL,148,train
705.0979137420654,0,4,1,3,2,5,H-,1,5,5,0,1000,250.0,5,D20LL,149,train
576.9929885864258,0,4,1,3,2,5,H-,1,4,1,0,1000,250.0,4,D20LL,150,train
673.0959415435791,0,4,1,3,2,5,H-,1,0,0,0,1000,250.0,0,D20LL,151,train
577.2490501403809,0,4,1,3,2,5,H-,1,5,5,0,1000,250.0,5,D20LL,152,train
481.19306564331055,0,4,1,3,2,5,H-,1,3,3,0,1000,250.0,3,D20LL,153,train
593.0938720703125,0,4,1,3,2,5,H-,1,1,2,0,1000,250.0,1,D20LL,154,train
513.1340026855469,0,4,1,3,2,5,H-,1,5,5,0,1000,250.0,5,D20LL,155,train
497.13802337646484,0,4,1,3,2,5,H-,0,2,4,0,1000,250.0,1,D20LL,156,train
480.7441234588623,0,4,1,3,2,5,H-,1,2,4,0,1000,250.0,2,D20LL,157,train
544.9981689453125,0,4,1,3,2,5,H-,1,3,3,0,1000,250.0,3,D20LL,158,train
529.1750431060791,0,4,1,3,2,5,H-,1,5,5,0,1000,250.0,5,D20LL,159,train
561.1331462860107,0,4,1,3,2,5,H-,1,3,3,0,1000,250.0,3,D20LL,160,train
529.13498878479,0,4,1,3,2,5,H-,1,1,2,0,1000,250.0,1,D20LL,161,train
529.1399955749512,0,4,1,3,2,5,H-,0,0,0,0,1000,250.0,2,D20LL,162,train
545.1529026031494,0,4,1,3,2,5,H-,1,5,5,0,1000,250.0,5,D20LL,163,train
529.2110443115234,0,4,1,3,2,5,H-,1,2,4,0,1000,250.0,2,D20LL,164,train
529.0911197662354,0,4,1,3,2,5,H-,1,1,2,0,1000,250.0,1,D20LL,165,train
609.1949939727783,0,4,1,3,2,5,H-,1,5,5,0,1000,250.0,5,D20LL,166,train
513.159990310669,0,4,1,3,2,5,H-,1,1,2,0,1000,250.0,1,D20LL,167,train
545.0389385223389,0,4,1,3,2,5,H-,1,5,5,0,1000,250.0,5,D20LL,168,train
481.1279773712158,0,4,1,3,2,5,H-,1,2,4,0,1000,250.0,2,D20LL,169,train
545.1490879058838,0,4,1,3,2,5,H-,1,0,0,0,1000,250.0,0,D20LL,170,train
496.9909191131592,0,4,1,3,2,5,H-,1,2,4,0,1000,250.0,2,D20LL,171,train
577.1200656890869,0,4,1,3,2,5,H-,1,4,1,0,1000,250.0,4,D20LL,172,train
513.1409168243408,0,4,1,3,2,5,H-,1,2,4,0,1000,250.0,2,D20LL,173,train
513.1590366363525,0,4,1,3,2,5,H-,1,0,0,0,1000,250.0,0,D20LL,174,train
593.1851863861084,0,4,1,3,2,5,H-,1,0,0,0,1000,250.0,0,D20LL,175,train
625.1850128173828,0,4,1,3,2,5,H-,0,3,3,0,1000,250.0,2,D20LL,176,train
497.1311092376709,0,4,1,3,2,5,H-,1,0,0,0,1000,250.0,0,D20LL,177,train
545.212984085083,0,4,1,3,2,5,H-,1,3,3,0,1000,250.0,3,D20LL,178,train
929.1369915008545,0,4,1,3,2,5,H-,0,5,5,0,1000,250.0,3,D20LL,179,train
609.1079711914062,0,4,1,3,2,5,H-,1,3,3,0,1000,250.0,3,D20LL,180,train
545.1128482818604,0,4,1,3,2,5,H-,1,0,0,0,1000,250.0,0,D20LL,181,train
529.1609764099121,0,4,1,3,2,5,H-,1,4,1,0,1000,250.0,4,D20LL,182,train
944.9870586395264,0,4,1,3,2,5,H-,1,0,0,0,1000,250.0,0,D20LL,183,train
609.1909408569336,0,4,1,3,2,5,H-,1,5,5,0,1000,250.0,5,D20LL,184,train
561.115026473999,0,4,1,3,2,5,H-,1,1,2,0,1000,250.0,1,D20LL,185,train
625.1640319824219,0,4,1,3,2,5,H-,1,0,0,0,1000,250.0,0,D20LL,186,train
497.1330165863037,0,4,1,3,2,5,H-,1,1,2,0,1000,250.0,1,D20LL,187,train
544.990062713623,0,4,1,3,2,5,H-,1,4,1,0,1000,250.0,4,D20LL,188,train
609.0590953826904,0,4,1,3,2,5,H-,1,5,5,0,1000,250.0,5,D20LL,189,train
480.9858798980713,0,4,1,3,2,5,H-,1,4,1,0,1000,250.0,4,D20LL,190,train
513.0391120910645,0,4,1,3,2,5,H-,1,2,4,0,1000,250.0,2,D20LL,191,train
577.1698951721191,0,4,1,3,2,5,H-,1,4,1,0,1000,250.0,4,D20LL,192,train
513.2739543914795,0,4,1,3,2,5,H-,1,4,1,0,1000,250.0,4,D20LL,193,train
513.2160186767578,0,4,1,3,2,5,H-,1,4,1,0,1000,250.0,4,D20LL,194,train
593.0979251861572,0,4,1,3,2,5,H-,1,5,5,0,1000,250.0,5,D20LL,195,train
481.1530113220215,0,4,1,3,2,5,H-,1,2,4,0,1000,250.0,2,D20LL,196,train
464.9481773376465,0,4,1,3,2,5,H-,1,3,3,0,1000,250.0,3,D20LL,197,train
529.0439128875732,0,4,1,3,2,5,H-,1,2,4,0,1000,250.0,2,D20LL,198,train
449.1579532623291,0,4,1,3,2,5,H-,1,1,2,0,1000,250.0,1,D20LL,199,train
545.159101486206,0,4,1,3,2,5,H-,1,0,0,0,1000,250.0,0,D20LL,200,train
449.1441249847412,0,4,1,3,2,5,H-,1,0,0,0,1000,250.0,0,D20LL,201,train
433.12597274780273,0,4,1,3,2,5,H-,1,3,3,0,1000,250.0,3,D20LL,202,train
449.0959644317627,0,4,1,3,2,5,H-,1,2,4,0,1000,250.0,2,D20LL,203,train
465.04902839660645,0,4,1,3,2,5,H-,1,2,4,0,1000,250.0,2,D20LL,204,train
481.1100959777832,0,4,1,3,2,5,H-,1,4,1,0,1000,250.0,4,D20LL,205,train
449.16605949401855,0,4,1,3,2,5,H-,0,5,5,0,1000,250.0,2,D20LL,206,train
481.1701774597168,0,4,1,3,2,5,H-,1,3,3,0,1000,250.0,3,D20LL,207,train
417.15097427368164,0,4,1,3,2,5,H-,0,0,0,0,1000,250.0,3,D20LL,208,train
1041.0749912261963,0,4,1,3,2,5,H-,1,0,0,0,1000,250.0,0,D20LL,209,train
465.0290012359619,0,4,1,3,2,5,H-,1,2,4,0,1000,250.0,2,D20LL,210,train
369.1220283508301,0,4,1,3,2,5,H-,0,5,5,0,1000,250.0,2,D20LL,211,train
513.171911239624,0,4,1,3,2,5,H-,1,2,4,0,1000,250.0,2,D20LL,212,train
528.9959907531738,0,4,1,3,2,5,H-,1,3,3,0,1000,250.0,3,D20LL,213,train
480.96299171447754,0,4,1,3,2,5,H-,1,3,3,0,1000,250.0,3,D20LL,214,train
496.8850612640381,0,4,1,3,2,5,H-,1,1,2,0,1000,250.0,1,D20LL,215,train
576.934814453125,0,4,1,3,2,5,H-,1,0,0,0,1000,250.0,0,D20LL,216,train
464.86377716064453,0,4,1,3,2,5,H-,1,5,5,0,1000,250.0,5,D20LL,217,train
528.9840698242188,0,4,1,3,2,5,H-,1,2,4,0,1000,250.0,2,D20LL,218,train
496.967077255249,0,4,1,3,2,5,H-,1,4,1,0,1000,250.0,4,D20LL,219,train
464.8730754852295,0,4,1,3,2,5,H-,1,3,3,0,1000,250.0,3,D20LL,220,train
400.9408950805664,0,4,1,3,2,5,H-,1,3,3,0,1000,250.0,3,D20LL,221,train
480.92103004455566,0,4,1,3,2,5,H-,1,2,4,0,1000,250.0,2,D20LL,222,train
497.0118999481201,0,4,1,3,2,5,H-,1,0,0,0,1000,250.0,0,D20LL,223,train
496.95587158203125,0,4,1,3,2,5,H-,1,4,1,0,1000,250.0,4,D20LL,224,train
561.0480308532715,0,4,1,3,2,5,H-,0,0,0,0,1000,250.0,2,D20LL,225,train
496.86193466186523,0,4,1,3,2,5,H-,1,2,4,0,1000,250.0,2,D20LL,226,train
545.0830459594727,0,4,1,3,2,5,H-,1,4,1,0,1000,250.0,4,D20LL,227,train
480.8928966522217,0,4,1,3,2,5,H-,1,3,3,0,1000,250.0,3,D20LL,228,train
496.8910217285156,0,4,1,3,2,5,H-,1,5,5,0,1000,250.0,5,D20LL,229,train
560.8930587768555,0,4,1,3,2,5,H-,1,1,2,0,1000,250.0,1,D20LL,230,train
528.9261341094971,0,4,1,3,2,5,H-,1,0,0,0,1000,250.0,0,D20LL,231,train
528.7678241729736,0,4,1,3,2,5,H-,1,2,4,0,1000,250.0,2,D20LL,232,train
464.8749828338623,0,4,1,3,2,5,H-,1,0,0,0,1000,250.0,0,D20LL,233,train
480.87501525878906,0,4,1,3,2,5,H-,1,4,1,0,1000,250.0,4,D20LL,234,train
480.9098243713379,0,4,1,3,2,5,H-,1,4,1,0,1000,250.0,4,D20LL,235,train
464.9360179901123,0,4,1,3,2,5,H-,0,5,5,0,1000,250.0,3,D20LL,236,train
512.8281116485596,0,4,1,3,2,5,H-,1,2,4,0,1000,250.0,2,D20LL,237,train
528.9149284362793,0,4,1,3,2,5,H-,1,3,3,0,1000,250.0,3,D20LL,238,train
544.8348522186279,0,4,1,3,2,5,H-,1,1,2,0,1000,250.0,1,D20LL,239,train
480.9081554412842,0,4,1,3,2,5,H-,1,3,3,0,1000,250.0,3,D20LL,240,train
449.0489959716797,0,4,1,3,2,5,H-,1,3,3,0,1000,250.0,3,D20LL,241,train
544.9051856994629,0,4,1,3,2,5,H-,1,0,0,0,1000,250.0,0,D20LL,242,train
512.9501819610596,0,4,1,3,2,5,H-,1,1,2,0,1000,250.0,1,D20LL,243,train
368.89100074768066,0,4,1,3,2,5,H-,1,2,4,0,1000,250.0,2,D20LL,244,train
464.9078845977783,0,4,1,3,2,5,H-,0,5,5,0,1000,250.0,3,D20LL,245,train
512.9499435424805,0,4,1,3,2,5,H-,1,1,2,0,1000,250.0,1,D20LL,246,train
337.06092834472656,0,4,1,3,2,5,H-,1,2,4,0,1000,250.0,2,D20LL,247,train
432.91711807250977,0,4,1,3,2,5,H-,1,2,4,0,1000,250.0,2,D20LL,248,train
576.9929885864258,0,4,1,3,2,5,H-,1,0,0,0,1000,250.0,0,D20LL,249,train
864.8271560668945,5,0,1,3,4,2,H-,0,4,4,0,1000,250.0,2,D20LL,250,test
561.0330104827881,5,0,1,3,4,2,H-,1,1,2,0,1000,250.0,1,D20LL,251,test
945.0170993804932,5,0,1,3,4,2,H-,0,5,0,0,1000,250.0,0,D20LL,252,test
1744.7750568389893,5,0,1,3,4,2,H-,1,2,5,0,1000,250.0,2,D20LL,253,test
2144.972085952759,5,0,1,3,4,2,H-,1,5,0,0,1000,250.0,5,D20LL,254,test
768.9270973205566,5,0,1,3,4,2,H-,0,1,2,0,1000,250.0,4,D20LL,255,test
769.00315284729,5,0,1,3,4,2,H-,1,1,2,0,1000,250.0,1,D20LL,256,test
752.9768943786621,5,0,1,3,4,2,H-,1,0,1,0,1000,250.0,0,D20LL,257,test
1136.8448734283447,5,0,1,3,4,2,H-,1,5,0,0,1000,250.0,5,D20LL,258,test
704.9460411071777,5,0,1,3,4,2,H-,1,0,1,0,1000,250.0,0,D20LL,259,test
640.9449577331543,5,0,1,3,4,2,H-,0,5,0,0,1000,250.0,2,D20LL,260,test
896.9159126281738,5,0,1,3,4,2,H-,1,5,0,0,1000,250.0,5,D20LL,261,test
1041.0449504852295,5,0,1,3,4,2,H-,1,3,3,0,1000,250.0,3,D20LL,262,test
976.8621921539307,5,0,1,3,4,2,H-,1,2,5,0,1000,250.0,2,D20LL,263,test
1248.946189880371,5,0,1,3,4,2,H-,1,4,4,0,1000,250.0,4,D20LL,264,test
448.9171504974365,5,0,1,3,4,2,H-,1,0,1,0,1000,250.0,0,D20LL,265,test
1040.9469604492188,5,0,1,3,4,2,H-,1,3,3,0,1000,250.0,3,D20LL,266,test
640.9249305725098,5,0,1,3,4,2,H-,1,0,1,0,1000,250.0,0,D20LL,267,test
624.9239444732666,5,0,1,3,4,2,H-,1,1,2,0,1000,250.0,1,D20LL,268,test
640.9049034118652,5,0,1,3,4,2,H-,1,0,1,0,1000,250.0,0,D20LL,269,test
704.9081325531006,5,0,1,3,4,2,H-,1,5,0,0,1000,250.0,5,D20LL,270,test
768.9719200134277,5,0,1,3,4,2,H-,1,4,4,0,1000,250.0,4,D20LL,271,test
544.5830821990967,5,0,1,3,4,2,H-,1,4,4,0,1000,250.0,4,D20LL,272,test
880.9158802032471,5,0,1,3,4,2,H-,1,5,0,0,1000,250.0,5,D20LL,273,test
592.9081439971924,5,0,1,3,4,2,H-,0,2,5,0,1000,250.0,0,D20LL,274,test
801.0649681091309,5,0,1,3,4,2,H-,1,3,3,0,1000,250.0,3,D20LL,275,test
896.9850540161133,5,0,1,3,4,2,H-,1,2,5,0,1000,250.0,2,D20LL,276,test
625.0560283660889,5,0,1,3,4,2,H-,1,1,2,0,1000,250.0,1,D20LL,277,test
960.9558582305908,5,0,1,3,4,2,H-,1,5,0,0,1000,250.0,5,D20LL,278,test
928.9190769195557,5,0,1,3,4,2,H-,1,5,0,0,1000,250.0,5,D20LL,279,test
1216.9249057769775,5,0,1,3,4,2,H-,1,4,4,0,1000,250.0,4,D20LL,280,test
944.9429512023926,5,0,1,3,4,2,H-,1,1,2,0,1000,250.0,1,D20LL,281,test
560.9631538391113,5,0,1,3,4,2,H-,1,1,2,0,1000,250.0,1,D20LL,282,test
1168.9860820770264,5,0,1,3,4,2,H-,1,4,4,0,1000,250.0,4,D20LL,283,test
608.9792251586914,5,0,1,3,4,2,H-,1,5,0,0,1000,250.0,5,D20LL,284,test
768.9039707183838,5,0,1,3,4,2,H-,1,2,5,0,1000,250.0,2,D20LL,285,test
576.8859386444092,5,0,1,3,4,2,H-,1,3,3,0,1000,250.0,3,D20LL,286,test
624.9980926513672,5,0,1,3,4,2,H-,0,2,5,0,1000,250.0,3,D20LL,287,test
2208.799123764038,5,0,1,3,4,2,H-,1,3,3,0,1000,250.0,3,D20LL,288,test
881.0908794403076,5,0,1,3,4,2,H-,1,4,4,0,1000,250.0,4,D20LL,289,test
784.9619388580322,5,0,1,3,4,2,H-,1,0,1,0,1000,250.0,0,D20LL,290,test
1057.0018291473389,5,0,1,3,4,2,H-,1,1,2,0,1000,250.0,1,D20LL,291,test
496.9899654388428,5,0,1,3,4,2,H-,1,1,2,0,1000,250.0,1,D20LL,292,test
496.945858001709,5,0,1,3,4,2,H-,1,4,4,0,1000,250.0,4,D20LL,293,test
592.9570198059082,5,0,1,3,4,2,H-,1,2,5,0,1000,250.0,2,D20LL,294,test
592.9679870605469,5,0,1,3,4,2,H-,1,0,1,0,1000,250.0,0,D20LL,295,test
448.9140510559082,5,0,1,3,4,2,H-,1,4,4,0,1000,250.0,4,D20LL,296,test
544.9059009552002,5,0,1,3,4,2,H-,1,1,2,0,1000,250.0,1,D20LL,297,test
480.9269905090332,5,0,1,3,4,2,H-,1,4,4,0,1000,250.0,4,D20LL,298,test
704.8208713531494,5,0,1,3,4,2,H-,0,2,5,0,1000,250.0,5,D20LL,299,test
512.9561424255371,5,0,1,3,4,2,H-,1,5,0,0,1000,250.0,5,D20LL,300,test
528.9280414581299,5,0,1,3,4,2,H-,1,1,2,0,1000,250.0,1,D20LL,301,test
544.9390411376953,5,0,1,3,4,2,H-,1,0,1,0,1000,250.0,0,D20LL,302,test
656.9209098815918,5,0,1,3,4,2,H-,0,2,5,0,1000,250.0,4,D20LL,303,test
512.8600597381592,5,0,1,3,4,2,H-,1,1,2,0,1000,250.0,1,D20LL,304,test
1009.0930461883545,5,0,1,3,4,2,H-,0,5,0,0,1000,250.0,2,D20LL,305,test
560.7259273529053,5,0,1,3,4,2,H-,1,2,5,0,1000,250.0,2,D20LL,306,test
352.8449535369873,5,0,1,3,4,2,H-,1,5,0,0,1000,250.0,5,D20LL,307,test
368.9999580383301,5,0,1,3,4,2,H-,1,4,4,0,1000,250.0,4,D20LL,308,test
496.8860149383545,5,0,1,3,4,2,H-,1,3,3,0,1000,250.0,3,D20LL,309,test
480.8931350708008,5,0,1,3,4,2,H-,1,0,1,0,1000,250.0,0,D20LL,310,test
480.99780082702637,5,0,1,3,4,2,H-,1,0,1,0,1000,250.0,0,D20LL,311,test
576.8940448760986,5,0,1,3,4,2,H-,1,0,1,0,1000,250.0,0,D20LL,312,test
384.8700523376465,5,0,1,3,4,2,H-,1,0,1,0,1000,250.0,0,D20LL,313,test
656.9340229034424,5,0,1,3,4,2,H-,1,2,5,0,1000,250.0,2,D20LL,314,test
544.9070930480957,5,0,1,3,4,2,H-,0,4,4,0,1000,250.0,2,D20LL,315,test
528.9108753204346,5,0,1,3,4,2,H-,1,0,1,0,1000,250.0,0,D20LL,316,test
992.9430484771729,5,0,1,3,4,2,H-,1,5,0,0,1000,250.0,5,D20LL,317,test
496.88220024108887,5,0,1,3,4,2,H-,1,4,4,0,1000,250.0,4,D20LL,318,test
560.960054397583,5,0,1,3,4,2,H-,1,2,5,0,1000,250.0,2,D20LL,319,test
512.937068939209,5,0,1,3,4,2,H-,1,3,3,0,1000,250.0,3,D20LL,320,test
624.9239444732666,5,0,1,3,4,2,H-,0,5,0,0,1000,250.0,2,D20LL,321,test
496.86598777770996,5,0,1,3,4,2,H-,1,0,1,0,1000,250.0,0,D20LL,322,test
433.02392959594727,5,0,1,3,4,2,H-,1,0,1,0,1000,250.0,0,D20LL,323,test
528.8729667663574,5,0,1,3,4,2,H-,1,1,2,0,1000,250.0,1,D20LL,324,test
528.9888381958008,5,0,1,3,4,2,H-,1,4,4,0,1000,250.0,4,D20LL,325,test
528.9669036865234,5,0,1,3,4,2,H-,1,1,2,0,1000,250.0,1,D20LL,326,test
481.0070991516113,5,0,1,3,4,2,H-,1,1,2,0,1000,250.0,1,D20LL,327,test
480.87406158447266,5,0,1,3,4,2,H-,1,0,1,0,1000,250.0,0,D20LL,328,test
528.7950038909912,5,0,1,3,4,2,H-,1,4,4,0,1000,250.0,4,D20LL,329,test
544.950008392334,5,0,1,3,4,2,H-,1,0,1,0,1000,250.0,0,D20LL,330,test
512.9010677337646,5,0,1,3,4,2,H-,1,3,3,0,1000,250.0,3,D20LL,331,test
720.9210395812988,5,0,1,3,4,2,H-,0,5,0,0,1000,250.0,2,D20LL,332,test
512.8538608551025,5,0,1,3,4,2,H-,1,3,3,0,1000,250.0,3,D20LL,333,test
496.9148635864258,5,0,1,3,4,2,H-,1,1,2,0,1000,250.0,1,D20LL,334,test
624.8610019683838,5,0,1,3,4,2,H-,1,3,3,0,1000,250.0,3,D20LL,335,test
753.0679702758789,5,0,1,3,4,2,H-,1,2,5,0,1000,250.0,2,D20LL,336,test
576.6489505767822,5,0,1,3,4,2,H-,1,4,4,0,1000,250.0,4,D20LL,337,test
576.8318176269531,5,0,1,3,4,2,H-,1,1,2,0,1000,250.0,1,D20LL,338,test
528.7308692932129,5,0,1,3,4,2,H-,1,1,2,0,1000,250.0,1,D20LL,339,test
576.8539905548096,5,0,1,3,4,2,H-,0,2,5,0,1000,250.0,3,D20LL,340,test
496.88196182250977,5,0,1,3,4,2,H-,1,3,3,0,1000,250.0,3,D20LL,341,test
496.89507484436035,5,0,1,3,4,2,H-,1,1,2,0,1000,250.0,1,D20LL,342,test
576.8468379974365,5,0,1,3,4,2,H-,1,4,4,0,1000,250.0,4,D20LL,343,test
464.13302421569824,5,0,1,3,4,2,H-,1,4,4,0,1000,250.0,4,D20LL,344,test
416.8701171875,5,0,1,3,4,2,H-,1,4,4,0,1000,250.0,4,D20LL,345,test
912.8329753875732,5,0,1,3,4,2,H-,1,5,0,0,1000,250.0,5,D20LL,346,test
368.95298957824707,5,0,1,3,4,2,H-,1,2,5,0,1000,250.0,2,D20LL,347,test
528.9430618286133,5,0,1,3,4,2,H-,0,4,4,0,1000,250.0,3,D20LL,348,test
608.9909076690674,5,0,1,3,4,2,H-,1,2,5,0,1000,250.0,2,D20LL,349,test
513.1158828735352,5,0,1,3,4,2,H-,1,2,5,0,1000,250.0,2,D20LL,350,test
464.86902236938477,5,0,1,3,4,2,H-,1,3,3,0,1000,250.0,3,D20LL,351,test
640.8810615539551,5,0,1,3,4,2,H-,0,5,0,0,1000,250.0,2,D20LL,352,test
608.9589595794678,5,0,1,3,4,2,H-,0,5,0,0,1000,250.0,2,D20LL,353,test
720.8900451660156,5,0,1,3,4,2,H-,1,2,5,0,1000,250.0,2,D20LL,354,test
512.7131938934326,5,0,1,3,4,2,H-,1,4,4,0,1000,250.0,4,D20LL,355,test
512.9830837249756,5,0,1,3,4,2,H-,1,3,3,0,1000,250.0,3,D20LL,356,test
512.8588676452637,5,0,1,3,4,2,H-,1,4,4,0,1000,250.0,4,D20LL,357,test
416.99790954589844,5,0,1,3,4,2,H-,1,4,4,0,1000,250.0,4,D20LL,358,test
576.7650604248047,5,0,1,3,4,2,H-,1,0,1,0,1000,250.0,0,D20LL,359,test
480.91602325439453,5,0,1,3,4,2,H-,1,2,5,0,1000,250.0,2,D20LL,360,test
464.95890617370605,5,0,1,3,4,2,H-,1,0,1,0,1000,250.0,0,D20LL,361,test
400.9549617767334,5,0,1,3,4,2,H-,0,0,1,0,1000,250.0,2,D20LL,362,test
608.9580059051514,5,0,1,3,4,2,H-,1,1,2,0,1000,250.0,1,D20LL,363,test
800.9641170501709,5,0,1,3,4,2,H-,0,2,5,0,1000,250.0,3,D20LL,364,test
544.8818206787109,5,0,1,3,4,2,H-,1,0,1,0,1000,250.0,0,D20LL,365,test
512.923002243042,5,0,1,3,4,2,H-,1,0,1,0,1000,250.0,0,D20LL,366,test
592.9698944091797,5,0,1,3,4,2,H-,1,2,5,0,1000,250.0,2,D20LL,367,test
720.9389209747314,5,0,1,3,4,2,H-,1,5,0,0,1000,250.0,5,D20LL,368,test
512.8970146179199,5,0,1,3,4,2,H-,1,3,3,0,1000,250.0,3,D20LL,369,test
576.82204246521,5,0,1,3,4,2,H-,0,5,0,0,1000,250.0,2,D20LL,370,test
496.94180488586426,5,0,1,3,4,2,H-,1,4,4,0,1000,250.0,4,D20LL,371,test
688.9200210571289,5,0,1,3,4,2,H-,1,2,5,0,1000,250.0,2,D20LL,372,test
512.8669738769531,5,0,1,3,4,2,H-,1,2,5,0,1000,250.0,2,D20LL,373,test
560.9250068664551,5,0,1,3,4,2,H-,1,1,2,0,1000,250.0,1,D20LL,374,test
512.923002243042,5,0,1,3,4,2,H-,1,1,2,0,1000,250.0,1,D20LL,375,test
944.9410438537598,5,0,1,3,4,2,H-,1,5,0,0,1000,250.0,5,D20LL,376,test
545.0239181518555,5,0,1,3,4,2,H-,1,1,2,0,1000,250.0,1,D20LL,377,test
497.14112281799316,5,0,1,3,4,2,H-,1,1,2,0,1000,250.0,1,D20LL,378,test
465.1927947998047,5,0,1,3,4,2,H-,1,1,2,0,1000,250.0,1,D20LL,379,test
497.1628189086914,5,0,1,3,4,2,H-,1,3,3,0,1000,250.0,3,D20LL,380,test
625.1020431518555,5,0,1,3,4,2,H-,1,2,5,0,1000,250.0,2,D20LL,381,test
513.1411552429199,5,0,1,3,4,2,H-,1,3,3,0,1000,250.0,3,D20LL,382,test
544.5771217346191,5,0,1,3,4,2,H-,1,3,3,0,1000,250.0,3,D20LL,383,test
561.053991317749,5,0,1,3,4,2,H-,1,2,5,0,1000,250.0,2,D20LL,384,test
977.1559238433838,5,0,1,3,4,2,H-,1,5,0,0,1000,250.0,5,D20LL,385,test
577.0230293273926,5,0,1,3,4,2,H-,1,0,1,0,1000,250.0,0,D20LL,386,test
465.1329517364502,5,0,1,3,4,2,H-,1,0,1,0,1000,250.0,0,D20LL,387,test
529.1540622711182,5,0,1,3,4,2,H-,1,0,1,0,1000,250.0,0,D20LL,388,test
657.0208072662354,5,0,1,3,4,2,H-,1,4,4,0,1000,250.0,4,D20LL,389,test
577.1641731262207,5,0,1,3,4,2,H-,1,1,2,0,1000,250.0,1,D20LL,390,test
465.1038646697998,5,0,1,3,4,2,H-,1,1,2,0,1000,250.0,1,D20LL,391,test
657.196044921875,5,0,1,3,4,2,H-,1,0,1,0,1000,250.0,0,D20LL,392,test
433.1800937652588,5,0,1,3,4,2,H-,0,1,2,0,1000,250.0,0,D20LL,393,test
465.1827812194824,5,0,1,3,4,2,H-,1,1,2,0,1000,250.0,1,D20LL,394,test
737.1490001678467,5,0,1,3,4,2,H-,1,5,0,0,1000,250.0,5,D20LL,395,test
545.198917388916,5,0,1,3,4,2,H-,1,0,1,0,1000,250.0,0,D20LL,396,test
465.1319980621338,5,0,1,3,4,2,H-,1,0,1,0,1000,250.0,0,D20LL,397,test
577.1541595458984,5,0,1,3,4,2,H-,1,1,2,0,1000,250.0,1,D20LL,398,test
609.1668605804443,5,0,1,3,4,2,H-,1,3,3,0,1000,250.0,3,D20LL,399,test
609.2040538787842,5,0,1,3,4,2,H-,1,3,3,0,1000,250.0,3,D20LL,400,test
545.233964920044,5,0,1,3,4,2,H-,1,1,2,0,1000,250.0,1,D20LL,401,test
545.2249050140381,5,0,1,3,4,2,H-,1,0,1,0,1000,250.0,0,D20LL,402,test
496.90794944763184,5,0,1,3,4,2,H-,1,3,3,0,1000,250.0,3,D20LL,403,test
385.19906997680664,5,0,1,3,4,2,H-,1,3,3,0,1000,250.0,3,D20LL,404,test
528.9719104766846,5,0,1,3,4,2,H-,1,0,1,0,1000,250.0,0,D20LL,405,test
497.12610244750977,5,0,1,3,4,2,H-,1,0,1,0,1000,250.0,0,D20LL,406,test
497.1637725830078,5,0,1,3,4,2,H-,1,3,3,0,1000,250.0,3,D20LL,407,test
705.0390243530273,5,0,1,3,4,2,H-,1,5,0,0,1000,250.0,5,D20LL,408,test
433.150053024292,5,0,1,3,4,2,H-,1,3,3,0,1000,250.0,3,D20LL,409,test
545.1681613922119,5,0,1,3,4,2,H-,1,4,4,0,1000,250.0,4,D20LL,410,test
641.1631107330322,5,0,1,3,4,2,H-,1,2,5,0,1000,250.0,2,D20LL,411,test
561.1410140991211,5,0,1,3,4,2,H-,1,1,2,0,1000,250.0,1,D20LL,412,test
465.11101722717285,5,0,1,3,4,2,H-,1,3,3,0,1000,250.0,3,D20LL,413,test
561.2001419067383,5,0,1,3,4,2,H-,1,2,5,0,1000,250.0,2,D20LL,414,test
513.1669044494629,5,0,1,3,4,2,H-,1,1,2,0,1000,250.0,1,D20LL,415,test
561.1250400543213,5,0,1,3,4,2,H-,1,4,4,0,1000,250.0,4,D20LL,416,test
593.0700302124023,5,0,1,3,4,2,H-,1,0,1,0,1000,250.0,0,D20LL,417,test
625.1389980316162,5,0,1,3,4,2,H-,1,5,0,0,1000,250.0,5,D20LL,418,test
929.1360378265381,5,0,1,3,4,2,H-,1,2,5,0,1000,250.0,2,D20LL,419,test
529.0489196777344,5,0,1,3,4,2,H-,1,0,1,0,1000,250.0,0,D20LL,420,test
529.0868282318115,5,0,1,3,4,2,H-,1,4,4,0,1000,250.0,4,D20LL,421,test
561.0971450805664,5,0,1,3,4,2,H-,1,2,5,0,1000,250.0,2,D20LL,422,test
801.1729717254639,5,0,1,3,4,2,H-,1,5,0,0,1000,250.0,5,D20LL,423,test
593.181848526001,5,0,1,3,4,2,H-,1,5,0,0,1000,250.0,5,D20LL,424,test
481.1389446258545,5,0,1,3,4,2,H-,1,3,3,0,1000,250.0,3,D20LL,425,test
513.1649971008301,5,0,1,3,4,2,H-,1,1,2,0,1000,250.0,1,D20LL,426,test
609.1930866241455,5,0,1,3,4,2,H-,1,3,3,0,1000,250.0,3,D20LL,427,test
529.149055480957,5,0,1,3,4,2,H-,1,0,1,0,1000,250.0,0,D20LL,428,test
513.1900310516357,5,0,1,3,4,2,H-,1,4,4,0,1000,250.0,4,D20LL,429,test
609.1749668121338,5,0,1,3,4,2,H-,0,5,0,0,1000,250.0,2,D20LL,430,test
609.1539859771729,5,0,1,3,4,2,H-,1,3,3,0,1000,250.0,3,D20LL,431,test
545.1920032501221,5,0,1,3,4,2,H-,1,3,3,0,1000,250.0,3,D20LL,432,test
465.15798568725586,5,0,1,3,4,2,H-,1,3,3,0,1000,250.0,3,D20LL,433,test
737.159013748169,5,0,1,3,4,2,H-,1,5,0,0,1000,250.0,5,D20LL,434,test
545.1910495758057,5,0,1,3,4,2,H-,1,4,4,0,1000,250.0,4,D20LL,435,test
593.1320190429688,5,0,1,3,4,2,H-,1,0,1,0,1000,250.0,0,D20LL,436,test
801.0799884796143,5,0,1,3,4,2,H-,1,5,0,0,1000,250.0,5,D20LL,437,test
641.1828994750977,5,0,1,3,4,2,H-,1,5,0,0,1000,250.0,5,D20LL,438,test
481.16612434387207,5,0,1,3,4,2,H-,1,5,0,0,1000,250.0,5,D20LL,439,test
881.1790943145752,5,0,1,3,4,2,H-,1,2,5,0,1000,250.0,2,D20LL,440,test
657.1898460388184,5,0,1,3,4,2,H-,1,3,3,0,1000,250.0,3,D20LL,441,test
577.2089958190918,5,0,1,3,4,2,H-,1,4,4,0,1000,250.0,4,D20LL,442,test
801.2001514434814,5,0,1,3,4,2,H-,1,4,4,0,1000,250.0,4,D20LL,443,test
673.1669902801514,5,0,1,3,4,2,H-,1,5,0,0,1000,250.0,5,D20LL,444,test
641.1881446838379,5,0,1,3,4,2,H-,1,1,2,0,1000,250.0,1,D20LL,445,test
849.2240905761719,5,0,1,3,4,2,H-,1,5,0,0,1000,250.0,5,D20LL,446,test
561.1798763275146,5,0,1,3,4,2,H-,1,0,1,0,1000,250.0,0,D20LL,447,test
545.1979637145996,5,0,1,3,4,2,H-,1,4,4,0,1000,250.0,4,D20LL,448,test
481.0919761657715,5,0,1,3,4,2,H-,1,0,1,0,1000,250.0,0,D20LL,449,test
529.1779041290283,5,0,1,3,4,2,H-,1,0,1,0,1000,250.0,0,D20LL,450,test
417.186975479126,5,0,1,3,4,2,H-,1,0,1,0,1000,250.0,0,D20LL,451,test
529.1459560394287,5,0,1,3,4,2,H-,1,1,2,0,1000,250.0,1,D20LL,452,test
785.2470874786377,5,0,1,3,4,2,H-,1,0,1,0,1000,250.0,0,D20LL,453,test
481.1899662017822,5,0,1,3,4,2,H-,1,1,2,0,1000,250.0,1,D20LL,454,test
624.6960163116455,5,0,1,3,4,2,H-,1,3,3,0,1000,250.0,3,D20LL,455,test
753.1459331512451,5,0,1,3,4,2,H-,1,5,0,0,1000,250.0,5,D20LL,456,test
481.1820983886719,5,0,1,3,4,2,H-,1,3,3,0,1000,250.0,3,D20LL,457,test
529.1531085968018,5,0,1,3,4,2,H-,1,1,2,0,1000,250.0,1,D20LL,458,test
753.1440258026123,5,0,1,3,4,2,H-,1,2,5,0,1000,250.0,2,D20LL,459,test
513.1070613861084,5,0,1,3,4,2,H-,1,1,2,0,1000,250.0,1,D20LL,460,test
593.2321548461914,5,0,1,3,4,2,H-,1,2,5,0,1000,250.0,2,D20LL,461,test
545.1841354370117,5,0,1,3,4,2,H-,1,0,1,0,1000,250.0,0,D20LL,462,test
497.21312522888184,5,0,1,3,4,2,H-,1,0,1,0,1000,250.0,0,D20LL,463,test
385.1621150970459,5,0,1,3,4,2,H-,1,0,1,0,1000,250.0,0,D20LL,464,test
433.1960678100586,5,0,1,3,4,2,H-,1,0,1,0,1000,250.0,0,D20LL,465,test
577.2049427032471,5,0,1,3,4,2,H-,1,4,4,0,1000,250.0,4,D20LL,466,test
577.1219730377197,5,0,1,3,4,2,H-,0,2,5,0,1000,250.0,3,D20LL,467,test
801.2211322784424,5,0,1,3,4,2,H-,1,5,0,0,1000,250.0,5,D20LL,468,test
513.1700038909912,5,0,1,3,4,2,H-,1,3,3,0,1000,250.0,3,D20LL,469,test
545.1569557189941,5,0,1,3,4,2,H-,1,1,2,0,1000,250.0,1,D20LL,470,test
513.1988525390625,5,0,1,3,4,2,H-,1,4,4,0,1000,250.0,4,D20LL,471,test
641.0760879516602,5,0,1,3,4,2,H-,1,3,3,0,1000,250.0,3,D20LL,472,test
577.1031379699707,5,0,1,3,4,2,H-,1,0,1,0,1000,250.0,0,D20LL,473,test
545.2461242675781,5,0,1,3,4,2,H-,1,3,3,0,1000,250.0,3,D20LL,474,test
529.1481018066406,5,0,1,3,4,2,H-,1,3,3,0,1000,250.0,3,D20LL,475,test
513.1030082702637,5,0,1,3,4,2,H-,1,1,2,0,1000,250.0,1,D20LL,476,test
561.223030090332,5,0,1,3,4,2,H-,1,4,4,0,1000,250.0,4,D20LL,477,test
609.1229915618896,5,0,1,3,4,2,H-,1,5,0,0,1000,250.0,5,D20LL,478,test
1377.1109580993652,5,0,1,3,4,2,H-,0,5,0,0,1000,250.0,3,D20LL,479,test
561.0091686248779,5,0,1,3,4,2,H-,1,2,5,0,1000,250.0,2,D20LL,480,test
497.1768856048584,5,0,1,3,4,2,H-,1,0,1,0,1000,250.0,0,D20LL,481,test
609.1549396514893,5,0,1,3,4,2,H-,1,4,4,0,1000,250.0,4,D20LL,482,test
481.2510013580322,5,0,1,3,4,2,H-,1,3,3,0,1000,250.0,3,D20LL,483,test
625.1640319824219,5,0,1,3,4,2,H-,1,3,3,0,1000,250.0,3,D20LL,484,test
545.1428890228271,5,0,1,3,4,2,H-,1,0,1,0,1000,250.0,0,D20LL,485,test
497.1301555633545,5,0,1,3,4,2,H-,1,2,5,0,1000,250.0,2,D20LL,486,test
577.1760940551758,5,0,1,3,4,2,H-,1,0,1,0,1000,250.0,0,D20LL,487,test
497.175931930542,5,0,1,3,4,2,H-,0,2,5,0,1000,250.0,5,D20LL,488,test
705.1501274108887,5,0,1,3,4,2,H-,1,2,5,0,1000,250.0,2,D20LL,489,test
497.143030166626,5,0,1,3,4,2,H-,1,4,4,0,1000,250.0,4,D20LL,490,test
737.2250556945801,5,0,1,3,4,2,H-,1,5,0,0,1000,250.0,5,D20LL,491,test
753.1430721282959,5,0,1,3,4,2,H-,1,2,5,0,1000,250.0,2,D20LL,492,test
561.0988140106201,5,0,1,3,4,2,H-,1,1,2,0,1000,250.0,1,D20LL,493,test
528.9700031280518,5,0,1,3,4,2,H-,1,1,2,0,1000,250.0,1,D20LL,494,test
641.1612033843994,5,0,1,3,4,2,H-,0,5,0,0,1000,250.0,3,D20LL,495,test
417.0348644256592,5,0,1,3,4,2,H-,1,5,0,0,1000,250.0,5,D20LL,496,test
513.1020545959473,5,0,1,3,4,2,H-,1,0,1,0,1000,250.0,0,D20LL,497,test
689.2209053039551,5,0,1,3,4,2,H-,1,2,5,0,1000,250.0,2,D20LL,498,test
481.08696937561035,5,0,1,3,4,2,H-,1,3,3,0,1000,250.0,3,D20LL,499,test
