RT,SRmap_0,SRmap_1,SRmap_2,SRmap_3,SRmap_4,SRmap_5,condition,correct,correct_response,curstim,ms-precue,ms-prestimblank,ntrials,response,subject,trial,type
9230.262994766235,0,3,5,2,4,1,E+,1,5,2,400,600,250.0,5,E15AZ,0,train
447.0689296722412,0,3,5,2,4,1,E+,1,5,2,400,600,250.0,5,E15AZ,1,train
527.1670818328857,0,3,5,2,4,1,E+,0,1,5,400,600,250.0,0,E15AZ,2,train
1135.4970932006836,0,3,5,2,4,1,E+,1,2,3,400,600,250.0,2,E15AZ,3,train
559.4661235809326,0,3,5,2,4,1,E+,1,0,0,400,600,250.0,0,E15AZ,4,train
751.1930465698242,0,3,5,2,4,1,E+,1,5,2,400,600,250.0,5,E15AZ,5,train
511.2459659576416,0,3,5,2,4,1,E+,1,5,2,400,600,250.0,5,E15AZ,6,train
623.2430934906006,0,3,5,2,4,1,E+,1,5,2,400,600,250.0,5,E15AZ,7,train
527.184009552002,0,3,5,2,4,1,E+,1,5,2,400,600,250.0,5,E15AZ,8,train
1151.280164718628,0,3,5,2,4,1,E+,1,0,0,400,600,250.0,0,E15AZ,9,train
943.2821273803711,0,3,5,2,4,1,E+,1,1,5,400,600,250.0,1,E15AZ,10,train
527.1999835968018,0,3,5,2,4,1,E+,1,0,0,400,600,250.0,0,E15AZ,11,train
751.2149810791016,0,3,5,2,4,1,E+,1,5,2,400,600,250.0,5,E15AZ,12,train
814.9280548095703,0,3,5,2,4,1,E+,1,3,1,400,600,250.0,3,E15AZ,13,train
239.20702934265137,0,3,5,2,4,1,E+,0,2,3,400,600,250.0,1,E15AZ,14,train
799.5970249176025,0,3,5,2,4,1,E+,1,1,5,400,600,250.0,1,E15AZ,15,train
623.162031173706,0,3,5,2,4,1,E+,1,5,2,400,600,250.0,5,E15AZ,16,train
303.455114364624,0,3,5,2,4,1,E+,1,0,0,400,600,250.0,0,E15AZ,17,train
1055.2339553833008,0,3,5,2,4,1,E+,1,0,0,400,600,250.0,0,E15AZ,18,train
447.24011421203613,0,3,5,2,4,1,E+,1,1,5,400,600,250.0,1,E15AZ,19,train
687.2861385345459,0,3,5,2,4,1,E+,1,3,1,400,600,250.0,3,E15AZ,20,train
670.8700656890869,0,3,5,2,4,1,E+,1,1,5,400,600,250.0,1,E15AZ,21,train
719.1901206970215,0,3,5,2,4,1,E+,0,4,4,400,600,250.0,5,E15AZ,22,train
1087.3620510101318,0,3,5,2,4,1,E+,1,2,3,400,600,250.0,2,E15AZ,23,train
799.0579605102539,0,3,5,2,4,1,E+,1,4,4,400,600,250.0,4,E15AZ,24,train
303.56311798095703,0,3,5,2,4,1,E+,1,3,1,400,600,250.0,3,E15AZ,25,train
479.2180061340332,0,3,5,2,4,1,E+,1,4,4,400,600,250.0,4,E15AZ,26,train
175.56095123291016,0,3,5,2,4,1,E+,1,3,1,400,600,250.0,3,E15AZ,27,train
207.319974899292,0,3,5,2,4,1,E+,1,5,2,400,600,250.0,5,E15AZ,28,train
687.2241497039795,0,3,5,2,4,1,E+,1,3,1,400,600,250.0,3,E15AZ,29,train
1215.3220176696777,0,3,5,2,4,1,E+,1,0,0,400,600,250.0,0,E15AZ,30,train
543.1761741638184,0,3,5,2,4,1,E+,1,3,1,400,600,250.0,3,E15AZ,31,train
1503.0159950256348,0,3,5,2,4,1,E+,1,0,0,400,600,250.0,0,E15AZ,32,train
1199.3460655212402,0,3,5,2,4,1,E+,1,3,1,400,600,250.0,3,E15AZ,33,train
975.351095199585,0,3,5,2,4,1,E+,0,2,3,400,600,250.0,1,E15AZ,34,train
527.0769596099854,0,3,5,2,4,1,E+,1,3,1,400,600,250.0,3,E15AZ,35,train
495.38207054138184,0,3,5,2,4,1,E+,1,2,3,400,600,250.0,2,E15AZ,36,train
479.9661636352539,0,3,5,2,4,1,E+,1,5,2,400,600,250.0,5,E15AZ,37,train
591.702938079834,0,3,5,2,4,1,E+,1,1,5,400,600,250.0,1,E15AZ,38,train
415.7388210296631,0,3,5,2,4,1,E+,0,4,4,400,600,250.0,3,E15AZ,39,train
831.8350315093994,0,3,5,2,4,1,E+,1,2,3,400,600,250.0,2,E15AZ,40,train
719.7220325469971,0,3,5,2,4,1,E+,1,2,3,400,600,250.0,2,E15AZ,41,train
1167.8941249847412,0,3,5,2,4,1,E+,1,5,2,400,600,250.0,5,E15AZ,42,train
431.6890239715576,0,3,5,2,4,1,E+,1,5,2,400,600,250.0,5,E15AZ,43,train
303.7428855895996,0,3,5,2,4,1,E+,1,5,2,400,600,250.0,5,E15AZ,44,train
655.7199954986572,0,3,5,2,4,1,E+,1,1,5,400,600,250.0,1,E15AZ,45,train
207.6709270477295,0,3,5,2,4,1,E+,1,0,0,400,600,250.0,0,E15AZ,46,train
671.7841625213623,0,3,5,2,4,1,E+,1,4,4,400,600,250.0,4,E15AZ,47,train
495.2559471130371,0,3,5,2,4,1,E+,1,3,1,400,600,250.0,3,E15AZ,48,train
255.81693649291992,0,3,5,2,4,1,E+,1,3,1,400,600,250.0,3,E15AZ,49,train
223.7091064453125,0,3,5,2,4,1,E+,1,0,0,400,600,250.0,0,E15AZ,50,train
351.7930507659912,0,3,5,2,4,1,E+,1,1,5,400,600,250.0,1,E15AZ,51,train
559.8568916320801,0,3,5,2,4,1,E+,1,5,2,400,600,250.0,5,E15AZ,52,train
335.82091331481934,0,3,5,2,4,1,E+,1,5,2,400,600,250.0,5,E15AZ,53,train
559.9029064178467,0,3,5,2,4,1,E+,1,4,4,400,600,250.0,4,E15AZ,54,train
303.85398864746094,0,3,5,2,4,1,E+,1,4,4,400,600,250.0,4,E15AZ,55,train
607.8200340270996,0,3,5,2,4,1,E+,1,0,0,400,600,250.0,0,E15AZ,56,train
191.89810752868652,0,3,5,2,4,1,E+,1,0,0,400,600,250.0,0,E15AZ,57,train
591.8757915496826,0,3,5,2,4,1,E+,1,4,4,400,600,250.0,4,E15AZ,58,train
415.4198169708252,0,3,5,2,4,1,E+,1,5,2,400,600,250.0,5,E15AZ,59,train
431.67686462402344,0,3,5,2,4,1,E+,1,3,1,400,600,250.0,3,E15AZ,60,train
255.8748722076416,0,3,5,2,4,1,E+,0,2,3,400,600,250.0,1,E15AZ,61,train
447.79014587402344,0,3,5,2,4,1,E+,1,0,0,400,600,250.0,0,E15AZ,62,train
431.9498538970947,0,3,5,2,4,1,E+,1,3,1,400,600,250.0,3,E15AZ,63,train
351.8521785736084,0,3,5,2,4,1,E+,1,0,0,400,600,250.0,0,E15AZ,64,train
143.82219314575195,0,3,5,2,4,1,E+,1,5,2,400,600,250.0,5,E15AZ,65,train
159.73997116088867,0,3,5,2,4,1,E+,0,2,3,400,600,250.0,1,E15AZ,66,train
527.3809432983398,0,3,5,2,4,1,E+,1,4,4,400,600,250.0,4,E15AZ,67,train
207.8077793121338,0,3,5,2,4,1,E+,1,0,0,400,600,250.0,0,E15AZ,68,train
543.0088043212891,0,3,5,2,4,1,E+,1,2,3,400,600,250.0,2,E15AZ,69,train
239.2120361328125,0,3,5,2,4,1,E+,1,3,1,400,600,250.0,3,E15AZ,70,train
223.27899932861328,0,3,5,2,4,1,E+,1,5,2,400,600,250.0,5,E15AZ,71,train
383.24499130249023,0,3,5,2,4,1,E+,1,3,1,400,600,250.0,3,E15AZ,72,train
1039.2119884490967,0,3,5,2,4,1,E+,1,4,4,400,600,250.0,4,E15AZ,73,train
399.20806884765625,0,3,5,2,4,1,E+,1,2,3,400,600,250.0,2,E15AZ,74,train
287.6579761505127,0,3,5,2,4,1,E+,1,5,2,400,600,250.0,5,E15AZ,75,train
143.4159278869629,0,3,5,2,4,1,E+,1,5,2,400,600,250.0,5,E15AZ,76,train
479.2361259460449,0,3,5,2,4,1,E+,1,2,3,400,600,250.0,2,E15AZ,77,train
510.9670162200928,0,3,5,2,4,1,E+,0,3,1,400,600,250.0,2,E15AZ,78,train
751.244068145752,0,3,5,2,4,1,E+,1,1,5,400,600,250.0,1,E15AZ,79,train
575.1190185546875,0,3,5,2,4,1,E+,1,4,4,400,600,250.0,4,E15AZ,80,train
239.15815353393555,0,3,5,2,4,1,E+,1,5,2,400,600,250.0,5,E15AZ,81,train
383.17203521728516,0,3,5,2,4,1,E+,1,0,0,400,600,250.0,0,E15AZ,82,train
447.1559524536133,0,3,5,2,4,1,E+,1,4,4,400,600,250.0,4,E15AZ,83,train
239.32194709777832,0,3,5,2,4,1,E+,1,5,2,400,600,250.0,5,E15AZ,84,train
175.41813850402832,0,3,5,2,4,1,E+,1,5,2,400,600,250.0,5,E15AZ,85,train
239.332914352417,0,3,5,2,4,1,E+,0,4,4,400,600,250.0,5,E15AZ,86,train
831.1741352081299,0,3,5,2,4,1,E+,1,1,5,400,600,250.0,1,E15AZ,87,train
207.2279453277588,0,3,5,2,4,1,E+,1,1,5,400,600,250.0,1,E15AZ,88,train
399.53112602233887,0,3,5,2,4,1,E+,1,0,0,400,600,250.0,0,E15AZ,89,train
799.5281219482422,0,3,5,2,4,1,E+,1,4,4,400,600,250.0,4,E15AZ,90,train
1455.1780223846436,0,3,5,2,4,1,E+,1,0,0,400,600,250.0,0,E15AZ,91,train
351.12619400024414,0,3,5,2,4,1,E+,0,3,1,400,600,250.0,2,E15AZ,92,train
399.2769718170166,0,3,5,2,4,1,E+,1,3,1,400,600,250.0,3,E15AZ,93,train
1055.2902221679688,0,3,5,2,4,1,E+,1,1,5,400,600,250.0,1,E15AZ,94,train
479.17699813842773,0,3,5,2,4,1,E+,1,3,1,400,600,250.0,3,E15AZ,95,train
159.3770980834961,0,3,5,2,4,1,E+,1,5,2,400,600,250.0,5,E15AZ,96,train
367.34509468078613,0,3,5,2,4,1,E+,0,2,3,400,600,250.0,1,E15AZ,97,train
2111.402988433838,0,3,5,2,4,1,E+,1,2,3,400,600,250.0,2,E15AZ,98,train
351.1838912963867,0,3,5,2,4,1,E+,1,1,5,400,600,250.0,1,E15AZ,99,train
143.40710639953613,0,3,5,2,4,1,E+,1,0,0,400,600,250.0,0,E15AZ,100,train
1599.3189811706543,0,3,5,2,4,1,E+,1,5,2,400,600,250.0,5,E15AZ,101,train
271.33893966674805,0,3,5,2,4,1,E+,1,0,0,400,600,250.0,0,E15AZ,102,train
398.95009994506836,0,3,5,2,4,1,E+,1,4,4,400,600,250.0,4,E15AZ,103,train
239.32409286499023,0,3,5,2,4,1,E+,1,0,0,400,600,250.0,0,E15AZ,104,train
399.277925491333,0,3,5,2,4,1,E+,1,2,3,400,600,250.0,2,E15AZ,105,train
303.3299446105957,0,3,5,2,4,1,E+,1,3,1,400,600,250.0,3,E15AZ,106,train
495.1667785644531,0,3,5,2,4,1,E+,1,3,1,400,600,250.0,3,E15AZ,107,train
719.2809581756592,0,3,5,2,4,1,E+,1,2,3,400,600,250.0,2,E15AZ,108,train
239.3169403076172,0,3,5,2,4,1,E+,1,2,3,400,600,250.0,2,E15AZ,109,train
111.61518096923828,0,3,5,2,4,1,E+,1,2,3,400,600,250.0,2,E15AZ,110,train
687.1800422668457,0,3,5,2,4,1,E+,1,4,4,400,600,250.0,4,E15AZ,111,train
671.3941097259521,0,3,5,2,4,1,E+,1,1,5,400,600,250.0,1,E15AZ,112,train
671.043872833252,0,3,5,2,4,1,E+,1,4,4,400,600,250.0,4,E15AZ,113,train
271.72398567199707,0,3,5,2,4,1,E+,1,0,0,400,600,250.0,0,E15AZ,114,train
511.72518730163574,0,3,5,2,4,1,E+,1,3,1,400,600,250.0,3,E15AZ,115,train
415.7388210296631,0,3,5,2,4,1,E+,1,4,4,400,600,250.0,4,E15AZ,116,train
255.41114807128906,0,3,5,2,4,1,E+,1,0,0,400,600,250.0,0,E15AZ,117,train
399.3680477142334,0,3,5,2,4,1,E+,1,4,4,400,600,250.0,4,E15AZ,118,train
367.75803565979004,0,3,5,2,4,1,E+,1,0,0,400,600,250.0,0,E15AZ,119,train
255.77282905578613,0,3,5,2,4,1,E+,1,3,1,400,600,250.0,3,E15AZ,120,train
351.6111373901367,0,3,5,2,4,1,E+,0,5,2,400,600,250.0,4,E15AZ,121,train
447.86906242370605,0,3,5,2,4,1,E+,1,4,4,400,600,250.0,4,E15AZ,122,train
207.84497261047363,0,3,5,2,4,1,E+,1,1,5,400,600,250.0,1,E15AZ,123,train
463.78016471862793,0,3,5,2,4,1,E+,1,3,1,400,600,250.0,3,E15AZ,124,train
207.74412155151367,0,3,5,2,4,1,E+,1,4,4,400,600,250.0,4,E15AZ,125,train
159.87706184387207,0,3,5,2,4,1,E+,1,4,4,400,600,250.0,4,E15AZ,126,train
160.04204750061035,0,3,5,2,4,1,E+,1,5,2,400,600,250.0,5,E15AZ,127,train
399.8150825500488,0,3,5,2,4,1,E+,1,1,5,400,600,250.0,1,E15AZ,128,train
175.92096328735352,0,3,5,2,4,1,E+,1,1,5,400,600,250.0,1,E15AZ,129,train
207.7500820159912,0,3,5,2,4,1,E+,1,0,0,400,600,250.0,0,E15AZ,130,train
399.9521732330322,0,3,5,2,4,1,E+,1,2,3,400,600,250.0,2,E15AZ,131,train
239.8529052734375,0,3,5,2,4,1,E+,1,5,2,400,600,250.0,5,E15AZ,132,train
111.88507080078125,0,3,5,2,4,1,E+,1,5,2,400,600,250.0,5,E15AZ,133,train
431.95104598999023,0,3,5,2,4,1,E+,1,0,0,400,600,250.0,0,E15AZ,134,train
271.9409465789795,0,3,5,2,4,1,E+,0,1,5,400,600,250.0,0,E15AZ,135,train
335.8922004699707,0,3,5,2,4,1,E+,1,1,5,400,600,250.0,1,E15AZ,136,train
1199.8310089111328,0,3,5,2,4,1,E+,0,4,4,400,600,250.0,3,E15AZ,137,train
495.87488174438477,0,3,5,2,4,1,E+,1,3,1,400,600,250.0,3,E15AZ,138,train
127.76017189025879,0,3,5,2,4,1,E+,1,3,1,400,600,250.0,3,E15AZ,139,train
175.84705352783203,0,3,5,2,4,1,E+,1,3,1,400,600,250.0,3,E15AZ,140,train
223.73199462890625,0,3,5,2,4,1,E+,1,4,4,400,600,250.0,4,E15AZ,141,train
287.7931594848633,0,3,5,2,4,1,E+,1,0,0,400,600,250.0,0,E15AZ,142,train
335.7999324798584,0,3,5,2,4,1,E+,1,3,1,400,600,250.0,3,E15AZ,143,train
301.67293548583984,0,3,5,2,4,1,E+,1,0,0,400,600,250.0,0,E15AZ,144,train
911.2000465393066,0,3,5,2,4,1,E+,1,2,3,400,600,250.0,2,E15AZ,145,train
319.19002532958984,0,3,5,2,4,1,E+,1,1,5,400,600,250.0,1,E15AZ,146,train
351.1941432952881,0,3,5,2,4,1,E+,1,5,2,400,600,250.0,5,E15AZ,147,train
623.2590675354004,0,3,5,2,4,1,E+,1,3,1,400,600,250.0,3,E15AZ,148,train
607.2120666503906,0,3,5,2,4,1,E+,1,3,1,400,600,250.0,3,E15AZ,149,train
223.18577766418457,0,3,5,2,4,1,E+,1,5,2,400,600,250.0,5,E15AZ,150,train
367.311954498291,0,3,5,2,4,1,E+,1,2,3,400,600,250.0,2,E15AZ,151,train
511.32798194885254,0,3,5,2,4,1,E+,1,3,1,400,600,250.0,3,E15AZ,152,train
207.3209285736084,0,3,5,2,4,1,E+,1,5,2,400,600,250.0,5,E15AZ,153,train
127.29215621948242,0,3,5,2,4,1,E+,1,4,4,400,600,250.0,4,E15AZ,154,train
143.26190948486328,0,3,5,2,4,1,E+,1,5,2,400,600,250.0,5,E15AZ,155,train
31.256914138793945,0,3,5,2,4,1,E+,1,5,2,400,600,250.0,5,E15AZ,156,train
207.33284950256348,0,3,5,2,4,1,E+,1,3,1,400,600,250.0,3,E15AZ,157,train
0.052928924560546875,0,3,5,2,4,1,E+,0,2,3,400,600,250.0,4,E15AZ,158,train
415.0080680847168,0,3,5,2,4,1,E+,1,3,1,400,600,250.0,3,E15AZ,159,train
255.0339698791504,0,3,5,2,4,1,E+,0,3,1,400,600,250.0,2,E15AZ,160,train
399.2879390716553,0,3,5,2,4,1,E+,1,3,1,400,600,250.0,3,E15AZ,161,train
255.19800186157227,0,3,5,2,4,1,E+,1,4,4,400,600,250.0,4,E15AZ,162,train
207.2739601135254,0,3,5,2,4,1,E+,1,3,1,400,600,250.0,3,E15AZ,163,train
271.1770534515381,0,3,5,2,4,1,E+,1,4,4,400,600,250.0,4,E15AZ,164,train
159.25002098083496,0,3,5,2,4,1,E+,1,5,2,400,600,250.0,5,E15AZ,165,train
223.36983680725098,0,3,5,2,4,1,E+,1,4,4,400,600,250.0,4,E15AZ,166,train
191.38598442077637,0,3,5,2,4,1,E+,1,5,2,400,600,250.0,5,E15AZ,167,train
207.3369026184082,0,3,5,2,4,1,E+,0,2,3,400,600,250.0,4,E15AZ,168,train
335.4170322418213,0,3,5,2,4,1,E+,1,5,2,400,600,250.0,5,E15AZ,169,train
190.88196754455566,0,3,5,2,4,1,E+,1,5,2,400,600,250.0,5,E15AZ,170,train
527.3721218109131,0,3,5,2,4,1,E+,1,5,2,400,600,250.0,5,E15AZ,171,train
495.3269958496094,0,3,5,2,4,1,E+,1,0,0,400,600,250.0,0,E15AZ,172,train
271.22998237609863,0,3,5,2,4,1,E+,1,2,3,400,600,250.0,2,E15AZ,173,train
415.23098945617676,0,3,5,2,4,1,E+,1,2,3,400,600,250.0,2,E15AZ,174,train
335.35099029541016,0,3,5,2,4,1,E+,1,5,2,400,600,250.0,5,E15AZ,175,train
735.360860824585,0,3,5,2,4,1,E+,1,3,1,400,600,250.0,3,E15AZ,176,train
1071.4669227600098,0,3,5,2,4,1,E+,1,1,5,400,600,250.0,1,E15AZ,177,train
559.3509674072266,0,3,5,2,4,1,E+,1,3,1,400,600,250.0,3,E15AZ,178,train
687.2448921203613,0,3,5,2,4,1,E+,1,0,0,400,600,250.0,0,E15AZ,179,train
543.3719158172607,0,3,5,2,4,1,E+,1,4,4,400,600,250.0,4,E15AZ,180,train
623.3689785003662,0,3,5,2,4,1,E+,1,0,0,400,600,250.0,0,E15AZ,181,train
719.4030284881592,0,3,5,2,4,1,E+,1,4,4,400,600,250.0,4,E15AZ,182,train
319.32592391967773,0,3,5,2,4,1,E+,1,1,5,400,600,250.0,1,E15AZ,183,train
383.38494300842285,0,3,5,2,4,1,E+,1,2,3,400,600,250.0,2,E15AZ,184,train
591.3200378417969,0,3,5,2,4,1,E+,1,5,2,400,600,250.0,5,E15AZ,185,train
255.30409812927246,0,3,5,2,4,1,E+,1,0,0,400,600,250.0,0,E15AZ,186,train
255.324125289917,0,3,5,2,4,1,E+,1,0,0,400,600,250.0,0,E15AZ,187,train
255.26690483093262,0,3,5,2,4,1,E+,1,0,0,400,600,250.0,0,E15AZ,188,train
319.3948268890381,0,3,5,2,4,1,E+,1,5,2,400,600,250.0,5,E15AZ,189,train
1055.3948879241943,0,3,5,2,4,1,E+,1,1,5,400,600,250.0,1,E15AZ,190,train
558.6590766906738,0,3,5,2,4,1,E+,1,5,2,400,600,250.0,5,E15AZ,191,train
415.3449535369873,0,3,5,2,4,1,E+,1,2,3,400,600,250.0,2,E15AZ,192,train
559.2830181121826,0,3,5,2,4,1,E+,1,0,0,400,600,250.0,0,E15AZ,193,train
239.35294151306152,0,3,5,2,4,1,E+,1,1,5,400,600,250.0,1,E15AZ,194,train
415.2350425720215,0,3,5,2,4,1,E+,1,4,4,400,600,250.0,4,E15AZ,195,train
415.2178764343262,0,3,5,2,4,1,E+,1,2,3,400,600,250.0,2,E15AZ,196,train
463.2589817047119,0,3,5,2,4,1,E+,1,1,5,400,600,250.0,1,E15AZ,197,train
351.3021469116211,0,3,5,2,4,1,E+,1,1,5,400,600,250.0,1,E15AZ,198,train
158.7810516357422,0,3,5,2,4,1,E+,1,0,0,400,600,250.0,0,E15AZ,199,train
287.30297088623047,0,3,5,2,4,1,E+,1,1,5,400,600,250.0,1,E15AZ,200,train
367.18201637268066,0,3,5,2,4,1,E+,1,1,5,400,600,250.0,1,E15AZ,201,train
159.41214561462402,0,3,5,2,4,1,E+,1,1,5,400,600,250.0,1,E15AZ,202,train
63.28296661376953,0,3,5,2,4,1,E+,1,1,5,400,600,250.0,1,E15AZ,203,train
639.2738819122314,0,3,5,2,4,1,E+,1,3,1,400,600,250.0,3,E15AZ,204,train
606.9388389587402,0,3,5,2,4,1,E+,1,2,3,400,600,250.0,2,E15AZ,205,train
95.27397155761719,0,3,5,2,4,1,E+,1,0,0,400,600,250.0,0,E15AZ,206,train
143.25499534606934,0,3,5,2,4,1,E+,1,5,2,400,600,250.0,5,E15AZ,207,train
191.26296043395996,0,3,5,2,4,1,E+,0,2,3,400,600,250.0,1,E15AZ,208,train
431.09703063964844,0,3,5,2,4,1,E+,1,1,5,400,600,250.0,1,E15AZ,209,train
319.16308403015137,0,3,5,2,4,1,E+,1,1,5,400,600,250.0,1,E15AZ,210,train
143.37801933288574,0,3,5,2,4,1,E+,1,5,2,400,600,250.0,5,E15AZ,211,train
191.4379596710205,0,3,5,2,4,1,E+,0,2,3,400,600,250.0,1,E15AZ,212,train
367.26903915405273,0,3,5,2,4,1,E+,1,2,3,400,600,250.0,2,E15AZ,213,train
143.25499534606934,0,3,5,2,4,1,E+,1,0,0,400,600,250.0,0,E15AZ,214,train
271.3949680328369,0,3,5,2,4,1,E+,1,1,5,400,600,250.0,1,E15AZ,215,train
159.2550277709961,0,3,5,2,4,1,E+,1,0,0,400,600,250.0,0,E15AZ,216,train
319.2307949066162,0,3,5,2,4,1,E+,1,1,5,400,600,250.0,1,E15AZ,217,train
207.20791816711426,0,3,5,2,4,1,E+,1,2,3,400,600,250.0,2,E15AZ,218,train
351.23395919799805,0,3,5,2,4,1,E+,1,1,5,400,600,250.0,1,E15AZ,219,train
383.24618339538574,0,3,5,2,4,1,E+,1,3,1,400,600,250.0,3,E15AZ,220,train
175.41885375976562,0,3,5,2,4,1,E+,1,0,0,400,600,250.0,0,E15AZ,221,train
159.43312644958496,0,3,5,2,4,1,E+,1,0,0,400,600,250.0,0,E15AZ,222,train
159.39712524414062,0,3,5,2,4,1,E+,0,1,5,400,600,250.0,0,E15AZ,223,train
431.2899112701416,0,3,5,2,4,1,E+,1,2,3,400,600,250.0,2,E15AZ,224,train
335.2470397949219,0,3,5,2,4,1,E+,1,4,4,400,600,250.0,4,E15AZ,225,train
223.29306602478027,0,3,5,2,4,1,E+,1,5,2,400,600,250.0,5,E15AZ,226,train
383.18586349487305,0,3,5,2,4,1,E+,1,1,5,400,600,250.0,1,E15AZ,227,train
223.34909439086914,0,3,5,2,4,1,E+,1,0,0,400,600,250.0,0,E15AZ,228,train
511.1970901489258,0,3,5,2,4,1,E+,1,4,4,400,600,250.0,4,E15AZ,229,train
255.33199310302734,0,3,5,2,4,1,E+,1,1,5,400,600,250.0,1,E15AZ,230,train
383.29195976257324,0,3,5,2,4,1,E+,1,0,0,400,600,250.0,0,E15AZ,231,train
559.359073638916,0,3,5,2,4,1,E+,1,5,2,400,600,250.0,5,E15AZ,232,train
815.3901100158691,0,3,5,2,4,1,E+,1,2,3,400,600,250.0,2,E15AZ,233,train
479.4929027557373,0,3,5,2,4,1,E+,0,5,2,400,600,250.0,4,E15AZ,234,train
351.8400192260742,0,3,5,2,4,1,E+,1,5,2,400,600,250.0,5,E15AZ,235,train
239.70508575439453,0,3,5,2,4,1,E+,1,1,5,400,600,250.0,1,E15AZ,236,train
95.36099433898926,0,3,5,2,4,1,E+,1,0,0,400,600,250.0,0,E15AZ,237,train
160.02511978149414,0,3,5,2,4,1,E+,1,5,2,400,600,250.0,5,E15AZ,238,train
543.6711311340332,0,3,5,2,4,1,E+,1,4,4,400,600,250.0,4,E15AZ,239,train
799.813985824585,0,3,5,2,4,1,E+,1,2,3,400,600,250.0,2,E15AZ,240,train
95.73101997375488,0,3,5,2,4,1,E+,1,5,2,400,600,250.0,5,E15AZ,241,train
95.83711624145508,0,3,5,2,4,1,E+,1,0,0,400,600,250.0,0,E15AZ,242,train
287.8079414367676,0,3,5,2,4,1,E+,1,2,3,400,600,250.0,2,E15AZ,243,train
207.91101455688477,0,3,5,2,4,1,E+,1,3,1,400,600,250.0,3,E15AZ,244,train
527.9321670532227,0,3,5,2,4,1,E+,0,1,5,400,600,250.0,0,E15AZ,245,train
175.86588859558105,0,3,5,2,4,1,E+,1,3,1,400,600,250.0,3,E15AZ,246,train
719.5839881896973,0,3,5,2,4,1,E+,1,2,3,400,600,250.0,2,E15AZ,247,train
287.9500389099121,0,3,5,2,4,1,E+,1,2,3,400,600,250.0,2,E15AZ,248,train
159.85894203186035,0,3,5,2,4,1,E+,1,2,3,400,600,250.0,2,E15AZ,249,train
4144.986867904663,0,3,5,2,4,1,E+,1,4,4,0,1000,250.0,4,E15AZ,250,test
1408.9009761810303,0,3,5,2,4,1,E+,1,2,3,0,1000,250.0,2,E15AZ,251,test
1200.9601593017578,0,3,5,2,4,1,E+,1,4,4,0,1000,250.0,4,E15AZ,252,test
960.9730243682861,0,3,5,2,4,1,E+,1,5,2,0,1000,250.0,5,E15AZ,253,test
897.089958190918,0,3,5,2,4,1,E+,1,4,4,0,1000,250.0,4,E15AZ,254,test
672.9938983917236,0,3,5,2,4,1,E+,1,4,4,0,1000,250.0,4,E15AZ,255,test
1216.9959545135498,0,3,5,2,4,1,E+,1,1,5,0,1000,250.0,1,E15AZ,256,test
1312.730073928833,0,3,5,2,4,1,E+,1,1,5,0,1000,250.0,1,E15AZ,257,test
753.0848979949951,0,3,5,2,4,1,E+,1,5,2,0,1000,250.0,5,E15AZ,258,test
800.9021282196045,0,3,5,2,4,1,E+,0,1,5,0,1000,250.0,0,E15AZ,259,test
1552.7968406677246,0,3,5,2,4,1,E+,1,0,0,0,1000,250.0,0,E15AZ,260,test
1056.926965713501,0,3,5,2,4,1,E+,1,4,4,0,1000,250.0,4,E15AZ,261,test
800.9159564971924,0,3,5,2,4,1,E+,0,2,3,0,1000,250.0,1,E15AZ,262,test
1760.9200477600098,0,3,5,2,4,1,E+,1,0,0,0,1000,250.0,0,E15AZ,263,test
1440.8679008483887,0,3,5,2,4,1,E+,1,3,1,0,1000,250.0,3,E15AZ,264,test
864.919900894165,0,3,5,2,4,1,E+,1,3,1,0,1000,250.0,3,E15AZ,265,test
833.0469131469727,0,3,5,2,4,1,E+,1,3,1,0,1000,250.0,3,E15AZ,266,test
736.3672256469727,0,3,5,2,4,1,E+,1,3,1,0,1000,250.0,3,E15AZ,267,test
1328.4988403320312,0,3,5,2,4,1,E+,1,2,3,0,1000,250.0,2,E15AZ,268,test
1440.540075302124,0,3,5,2,4,1,E+,1,3,1,0,1000,250.0,3,E15AZ,269,test
1536.4220142364502,0,3,5,2,4,1,E+,1,2,3,0,1000,250.0,2,E15AZ,270,test
752.4449825286865,0,3,5,2,4,1,E+,1,4,4,0,1000,250.0,4,E15AZ,271,test
976.4459133148193,0,3,5,2,4,1,E+,1,4,4,0,1000,250.0,4,E15AZ,272,test
1008.1651210784912,0,3,5,2,4,1,E+,1,3,1,0,1000,250.0,3,E15AZ,273,test
912.477970123291,0,3,5,2,4,1,E+,1,4,4,0,1000,250.0,4,E15AZ,274,test
688.6367797851562,0,3,5,2,4,1,E+,1,5,2,0,1000,250.0,5,E15AZ,275,test
1296.46897315979,0,3,5,2,4,1,E+,1,3,1,0,1000,250.0,3,E15AZ,276,test
1184.520959854126,0,3,5,2,4,1,E+,1,1,5,0,1000,250.0,1,E15AZ,277,test
912.4751091003418,0,3,5,2,4,1,E+,1,2,3,0,1000,250.0,2,E15AZ,278,test
864.605188369751,0,3,5,2,4,1,E+,1,0,0,0,1000,250.0,0,E15AZ,279,test
1360.5890274047852,0,3,5,2,4,1,E+,1,4,4,0,1000,250.0,4,E15AZ,280,test
1232.213020324707,0,3,5,2,4,1,E+,1,2,3,0,1000,250.0,2,E15AZ,281,test
928.4389019012451,0,3,5,2,4,1,E+,1,2,3,0,1000,250.0,2,E15AZ,282,test
1696.6290473937988,0,3,5,2,4,1,E+,1,1,5,0,1000,250.0,1,E15AZ,283,test
992.8441047668457,0,3,5,2,4,1,E+,1,0,0,0,1000,250.0,0,E15AZ,284,test
704.6020030975342,0,3,5,2,4,1,E+,1,4,4,0,1000,250.0,4,E15AZ,285,test
848.6549854278564,0,3,5,2,4,1,E+,0,2,3,0,1000,250.0,1,E15AZ,286,test
1344.5940017700195,0,3,5,2,4,1,E+,1,4,4,0,1000,250.0,4,E15AZ,287,test
976.8221378326416,0,3,5,2,4,1,E+,1,0,0,0,1000,250.0,0,E15AZ,288,test
864.4490242004395,0,3,5,2,4,1,E+,1,4,4,0,1000,250.0,4,E15AZ,289,test
992.0749664306641,0,3,5,2,4,1,E+,1,2,3,0,1000,250.0,2,E15AZ,290,test
880.4850578308105,0,3,5,2,4,1,E+,1,0,0,0,1000,250.0,0,E15AZ,291,test
944.5700645446777,0,3,5,2,4,1,E+,1,5,2,0,1000,250.0,5,E15AZ,292,test
864.5908832550049,0,3,5,2,4,1,E+,1,2,3,0,1000,250.0,2,E15AZ,293,test
1136.6639137268066,0,3,5,2,4,1,E+,1,0,0,0,1000,250.0,0,E15AZ,294,test
944.4599151611328,0,3,5,2,4,1,E+,1,4,4,0,1000,250.0,4,E15AZ,295,test
864.6249771118164,0,3,5,2,4,1,E+,1,0,0,0,1000,250.0,0,E15AZ,296,test
720.4391956329346,0,3,5,2,4,1,E+,1,5,2,0,1000,250.0,5,E15AZ,297,test
656.609058380127,0,3,5,2,4,1,E+,1,0,0,0,1000,250.0,0,E15AZ,298,test
1136.6069316864014,0,3,5,2,4,1,E+,1,3,1,0,1000,250.0,3,E15AZ,299,test
576.4410495758057,0,3,5,2,4,1,E+,1,3,1,0,1000,250.0,3,E15AZ,300,test
528.602123260498,0,3,5,2,4,1,E+,1,3,1,0,1000,250.0,3,E15AZ,301,test
560.4569911956787,0,3,5,2,4,1,E+,1,5,2,0,1000,250.0,5,E15AZ,302,test
720.5979824066162,0,3,5,2,4,1,E+,1,3,1,0,1000,250.0,3,E15AZ,303,test
496.71292304992676,0,3,5,2,4,1,E+,1,3,1,0,1000,250.0,3,E15AZ,304,test
688.5340213775635,0,3,5,2,4,1,E+,1,0,0,0,1000,250.0,0,E15AZ,305,test
512.5420093536377,0,3,5,2,4,1,E+,0,3,1,0,1000,250.0,0,E15AZ,306,test
768.5849666595459,0,3,5,2,4,1,E+,1,5,2,0,1000,250.0,5,E15AZ,307,test
1488.3639812469482,0,3,5,2,4,1,E+,1,2,3,0,1000,250.0,2,E15AZ,308,test
1104.423999786377,0,3,5,2,4,1,E+,1,1,5,0,1000,250.0,1,E15AZ,309,test
800.5070686340332,0,3,5,2,4,1,E+,1,3,1,0,1000,250.0,3,E15AZ,310,test
832.5228691101074,0,3,5,2,4,1,E+,1,2,3,0,1000,250.0,2,E15AZ,311,test
656.4209461212158,0,3,5,2,4,1,E+,1,1,5,0,1000,250.0,1,E15AZ,312,test
1168.4668064117432,0,3,5,2,4,1,E+,1,4,4,0,1000,250.0,4,E15AZ,313,test
1984.5199584960938,0,3,5,2,4,1,E+,1,1,5,0,1000,250.0,1,E15AZ,314,test
1040.1930809020996,0,3,5,2,4,1,E+,0,5,2,0,1000,250.0,3,E15AZ,315,test
912.510871887207,0,3,5,2,4,1,E+,1,5,2,0,1000,250.0,5,E15AZ,316,test
816.4961338043213,0,3,5,2,4,1,E+,1,3,1,0,1000,250.0,3,E15AZ,317,test
1008.4929466247559,0,3,5,2,4,1,E+,1,2,3,0,1000,250.0,2,E15AZ,318,test
848.4210968017578,0,3,5,2,4,1,E+,1,3,1,0,1000,250.0,3,E15AZ,319,test
2144.476890563965,0,3,5,2,4,1,E+,1,0,0,0,1000,250.0,0,E15AZ,320,test
704.5221328735352,0,3,5,2,4,1,E+,1,2,3,0,1000,250.0,2,E15AZ,321,test
848.5078811645508,0,3,5,2,4,1,E+,1,2,3,0,1000,250.0,2,E15AZ,322,test
736.5579605102539,0,3,5,2,4,1,E+,1,1,5,0,1000,250.0,1,E15AZ,323,test
688.4438991546631,0,3,5,2,4,1,E+,1,2,3,0,1000,250.0,2,E15AZ,324,test
704.5741081237793,0,3,5,2,4,1,E+,1,0,0,0,1000,250.0,0,E15AZ,325,test
1040.6301021575928,0,3,5,2,4,1,E+,1,1,5,0,1000,250.0,1,E15AZ,326,test
1040.6219959259033,0,3,5,2,4,1,E+,1,4,4,0,1000,250.0,4,E15AZ,327,test
896.557092666626,0,3,5,2,4,1,E+,1,1,5,0,1000,250.0,1,E15AZ,328,test
1536.7019176483154,0,3,5,2,4,1,E+,1,1,5,0,1000,250.0,1,E15AZ,329,test
849.1389751434326,0,3,5,2,4,1,E+,1,1,5,0,1000,250.0,1,E15AZ,330,test
833.1201076507568,0,3,5,2,4,1,E+,1,0,0,0,1000,250.0,0,E15AZ,331,test
816.9939517974854,0,3,5,2,4,1,E+,1,3,1,0,1000,250.0,3,E15AZ,332,test
785.13503074646,0,3,5,2,4,1,E+,1,0,0,0,1000,250.0,0,E15AZ,333,test
1568.9678192138672,0,3,5,2,4,1,E+,1,2,3,0,1000,250.0,2,E15AZ,334,test
1153.1322002410889,0,3,5,2,4,1,E+,1,5,2,0,1000,250.0,5,E15AZ,335,test
1057.171106338501,0,3,5,2,4,1,E+,1,0,0,0,1000,250.0,0,E15AZ,336,test
833.064079284668,0,3,5,2,4,1,E+,1,3,1,0,1000,250.0,3,E15AZ,337,test
529.0660858154297,0,3,5,2,4,1,E+,1,4,4,0,1000,250.0,4,E15AZ,338,test
833.0879211425781,0,3,5,2,4,1,E+,1,2,3,0,1000,250.0,2,E15AZ,339,test
705.0981521606445,0,3,5,2,4,1,E+,1,4,4,0,1000,250.0,4,E15AZ,340,test
576.8320560455322,0,3,5,2,4,1,E+,1,4,4,0,1000,250.0,4,E15AZ,341,test
624.9020099639893,0,3,5,2,4,1,E+,1,4,4,0,1000,250.0,4,E15AZ,342,test
768.9828872680664,0,3,5,2,4,1,E+,1,1,5,0,1000,250.0,1,E15AZ,343,test
736.8190288543701,0,3,5,2,4,1,E+,1,0,0,0,1000,250.0,0,E15AZ,344,test
784.8589420318604,0,3,5,2,4,1,E+,1,0,0,0,1000,250.0,0,E15AZ,345,test
1280.8640003204346,0,3,5,2,4,1,E+,1,1,5,0,1000,250.0,1,E15AZ,346,test
752.9261112213135,0,3,5,2,4,1,E+,1,0,0,0,1000,250.0,0,E15AZ,347,test
992.8460121154785,0,3,5,2,4,1,E+,1,5,2,0,1000,250.0,5,E15AZ,348,test
961.043119430542,0,3,5,2,4,1,E+,1,3,1,0,1000,250.0,3,E15AZ,349,test
784.8479747772217,0,3,5,2,4,1,E+,1,1,5,0,1000,250.0,1,E15AZ,350,test
945.1150894165039,0,3,5,2,4,1,E+,1,1,5,0,1000,250.0,1,E15AZ,351,test
849.1251468658447,0,3,5,2,4,1,E+,1,2,3,0,1000,250.0,2,E15AZ,352,test
1232.8910827636719,0,3,5,2,4,1,E+,1,3,1,0,1000,250.0,3,E15AZ,353,test
641.1051750183105,0,3,5,2,4,1,E+,1,0,0,0,1000,250.0,0,E15AZ,354,test
625.0431537628174,0,3,5,2,4,1,E+,1,3,1,0,1000,250.0,3,E15AZ,355,test
608.814001083374,0,3,5,2,4,1,E+,1,3,1,0,1000,250.0,3,E15AZ,356,test
592.9710865020752,0,3,5,2,4,1,E+,1,3,1,0,1000,250.0,3,E15AZ,357,test
928.9100170135498,0,3,5,2,4,1,E+,1,5,2,0,1000,250.0,5,E15AZ,358,test
704.8830986022949,0,3,5,2,4,1,E+,1,5,2,0,1000,250.0,5,E15AZ,359,test
688.7829303741455,0,3,5,2,4,1,E+,1,3,1,0,1000,250.0,3,E15AZ,360,test
784.9259376525879,0,3,5,2,4,1,E+,1,4,4,0,1000,250.0,4,E15AZ,361,test
641.1340236663818,0,3,5,2,4,1,E+,1,5,2,0,1000,250.0,5,E15AZ,362,test
576.8580436706543,0,3,5,2,4,1,E+,1,5,2,0,1000,250.0,5,E15AZ,363,test
896.949052810669,0,3,5,2,4,1,E+,1,1,5,0,1000,250.0,1,E15AZ,364,test
688.9939308166504,0,3,5,2,4,1,E+,1,1,5,0,1000,250.0,1,E15AZ,365,test
769.1080570220947,0,3,5,2,4,1,E+,1,2,3,0,1000,250.0,2,E15AZ,366,test
673.0461120605469,0,3,5,2,4,1,E+,1,3,1,0,1000,250.0,3,E15AZ,367,test
672.9490756988525,0,3,5,2,4,1,E+,1,0,0,0,1000,250.0,0,E15AZ,368,test
864.954948425293,0,3,5,2,4,1,E+,1,2,3,0,1000,250.0,2,E15AZ,369,test
624.9539852142334,0,3,5,2,4,1,E+,1,5,2,0,1000,250.0,5,E15AZ,370,test
672.9598045349121,0,3,5,2,4,1,E+,1,0,0,0,1000,250.0,0,E15AZ,371,test
688.9381408691406,0,3,5,2,4,1,E+,1,4,4,0,1000,250.0,4,E15AZ,372,test
1344.9370861053467,0,3,5,2,4,1,E+,1,1,5,0,1000,250.0,1,E15AZ,373,test
817.0309066772461,0,3,5,2,4,1,E+,1,1,5,0,1000,250.0,1,E15AZ,374,test
672.9960441589355,0,3,5,2,4,1,E+,1,1,5,0,1000,250.0,1,E15AZ,375,test
832.597017288208,0,3,5,2,4,1,E+,1,2,3,0,1000,250.0,2,E15AZ,376,test
1408.9720249176025,0,3,5,2,4,1,E+,1,5,2,0,1000,250.0,5,E15AZ,377,test
544.9330806732178,0,3,5,2,4,1,E+,1,5,2,0,1000,250.0,5,E15AZ,378,test
912.9350185394287,0,3,5,2,4,1,E+,1,2,3,0,1000,250.0,2,E15AZ,379,test
865.0619983673096,0,3,5,2,4,1,E+,1,0,0,0,1000,250.0,0,E15AZ,380,test
768.9030170440674,0,3,5,2,4,1,E+,1,2,3,0,1000,250.0,2,E15AZ,381,test
944.8950290679932,0,3,5,2,4,1,E+,1,5,2,0,1000,250.0,5,E15AZ,382,test
1168.9770221710205,0,3,5,2,4,1,E+,1,2,3,0,1000,250.0,2,E15AZ,383,test
864.90797996521,0,3,5,2,4,1,E+,1,1,5,0,1000,250.0,1,E15AZ,384,test
1104.9230098724365,0,3,5,2,4,1,E+,1,3,1,0,1000,250.0,3,E15AZ,385,test
480.88598251342773,0,3,5,2,4,1,E+,1,3,1,0,1000,250.0,3,E15AZ,386,test
608.9780330657959,0,3,5,2,4,1,E+,0,1,5,0,1000,250.0,0,E15AZ,387,test
832.9181671142578,0,3,5,2,4,1,E+,1,0,0,0,1000,250.0,0,E15AZ,388,test
592.8921699523926,0,3,5,2,4,1,E+,1,5,2,0,1000,250.0,5,E15AZ,389,test
880.9101581573486,0,3,5,2,4,1,E+,1,0,0,0,1000,250.0,0,E15AZ,390,test
576.9779682159424,0,3,5,2,4,1,E+,1,5,2,0,1000,250.0,5,E15AZ,391,test
737.1618747711182,0,3,5,2,4,1,E+,1,3,1,0,1000,250.0,3,E15AZ,392,test
1057.0321083068848,0,3,5,2,4,1,E+,1,2,3,0,1000,250.0,2,E15AZ,393,test
1504.9569606781006,0,3,5,2,4,1,E+,1,5,2,0,1000,250.0,5,E15AZ,394,test
752.8359889984131,0,3,5,2,4,1,E+,1,3,1,0,1000,250.0,3,E15AZ,395,test
656.9440364837646,0,3,5,2,4,1,E+,1,3,1,0,1000,250.0,3,E15AZ,396,test
1232.8472137451172,0,3,5,2,4,1,E+,1,1,5,0,1000,250.0,1,E15AZ,397,test
753.101110458374,0,3,5,2,4,1,E+,1,0,0,0,1000,250.0,0,E15AZ,398,test
881.0529708862305,0,3,5,2,4,1,E+,1,4,4,0,1000,250.0,4,E15AZ,399,test
1120.8980083465576,0,3,5,2,4,1,E+,1,0,0,0,1000,250.0,0,E15AZ,400,test
928.8241863250732,0,3,5,2,4,1,E+,1,5,2,0,1000,250.0,5,E15AZ,401,test
672.9178428649902,0,3,5,2,4,1,E+,1,4,4,0,1000,250.0,4,E15AZ,402,test
1008.9020729064941,0,3,5,2,4,1,E+,1,2,3,0,1000,250.0,2,E15AZ,403,test
1552.8979301452637,0,3,5,2,4,1,E+,1,3,1,0,1000,250.0,3,E15AZ,404,test
1328.948974609375,0,3,5,2,4,1,E+,1,1,5,0,1000,250.0,1,E15AZ,405,test
896.9309329986572,0,3,5,2,4,1,E+,1,1,5,0,1000,250.0,1,E15AZ,406,test
1200.9308338165283,0,3,5,2,4,1,E+,0,0,0,0,1000,250.0,1,E15AZ,407,test
1585.0560665130615,0,3,5,2,4,1,E+,1,1,5,0,1000,250.0,1,E15AZ,408,test
912.8739833831787,0,3,5,2,4,1,E+,1,0,0,0,1000,250.0,0,E15AZ,409,test
801.1109828948975,0,3,5,2,4,1,E+,1,5,2,0,1000,250.0,5,E15AZ,410,test
753.0961036682129,0,3,5,2,4,1,E+,1,3,1,0,1000,250.0,3,E15AZ,411,test
609.09104347229,0,3,5,2,4,1,E+,1,3,1,0,1000,250.0,3,E15AZ,412,test
688.9638900756836,0,3,5,2,4,1,E+,1,1,5,0,1000,250.0,1,E15AZ,413,test
816.8871402740479,0,3,5,2,4,1,E+,1,1,5,0,1000,250.0,1,E15AZ,414,test
544.9428558349609,0,3,5,2,4,1,E+,1,1,5,0,1000,250.0,1,E15AZ,415,test
896.9361782073975,0,3,5,2,4,1,E+,1,2,3,0,1000,250.0,2,E15AZ,416,test
881.1290264129639,0,3,5,2,4,1,E+,1,4,4,0,1000,250.0,4,E15AZ,417,test
992.9928779602051,0,3,5,2,4,1,E+,1,1,5,0,1000,250.0,1,E15AZ,418,test
800.9109497070312,0,3,5,2,4,1,E+,1,1,5,0,1000,250.0,1,E15AZ,419,test
720.9010124206543,0,3,5,2,4,1,E+,1,4,4,0,1000,250.0,4,E15AZ,420,test
673.0320453643799,0,3,5,2,4,1,E+,1,1,5,0,1000,250.0,1,E15AZ,421,test
737.1170520782471,0,3,5,2,4,1,E+,1,0,0,0,1000,250.0,0,E15AZ,422,test
737.0941638946533,0,3,5,2,4,1,E+,1,3,1,0,1000,250.0,3,E15AZ,423,test
673.0618476867676,0,3,5,2,4,1,E+,1,1,5,0,1000,250.0,1,E15AZ,424,test
721.031904220581,0,3,5,2,4,1,E+,1,4,4,0,1000,250.0,4,E15AZ,425,test
593.0299758911133,0,3,5,2,4,1,E+,1,4,4,0,1000,250.0,4,E15AZ,426,test
896.989107131958,0,3,5,2,4,1,E+,1,0,0,0,1000,250.0,0,E15AZ,427,test
1472.959041595459,0,3,5,2,4,1,E+,1,4,4,0,1000,250.0,4,E15AZ,428,test
1041.0308837890625,0,3,5,2,4,1,E+,0,1,5,0,1000,250.0,2,E15AZ,429,test
688.8458728790283,0,3,5,2,4,1,E+,1,4,4,0,1000,250.0,4,E15AZ,430,test
768.63694190979,0,3,5,2,4,1,E+,1,2,3,0,1000,250.0,2,E15AZ,431,test
2113.163948059082,0,3,5,2,4,1,E+,1,5,2,0,1000,250.0,5,E15AZ,432,test
641.124963760376,0,3,5,2,4,1,E+,1,4,4,0,1000,250.0,4,E15AZ,433,test
912.7190113067627,0,3,5,2,4,1,E+,1,0,0,0,1000,250.0,0,E15AZ,434,test
913.1360054016113,0,3,5,2,4,1,E+,0,1,5,0,1000,250.0,0,E15AZ,435,test
897.0651626586914,0,3,5,2,4,1,E+,1,2,3,0,1000,250.0,2,E15AZ,436,test
1120.919942855835,0,3,5,2,4,1,E+,1,0,0,0,1000,250.0,0,E15AZ,437,test
1104.9528121948242,0,3,5,2,4,1,E+,1,0,0,0,1000,250.0,0,E15AZ,438,test
1088.7818336486816,0,3,5,2,4,1,E+,1,3,1,0,1000,250.0,3,E15AZ,439,test
1472.6359844207764,0,3,5,2,4,1,E+,1,4,4,0,1000,250.0,4,E15AZ,440,test
608.644962310791,0,3,5,2,4,1,E+,1,3,1,0,1000,250.0,3,E15AZ,441,test
656.425952911377,0,3,5,2,4,1,E+,1,5,2,0,1000,250.0,5,E15AZ,442,test
767.833948135376,0,3,5,2,4,1,E+,1,2,3,0,1000,250.0,2,E15AZ,443,test
704.5130729675293,0,3,5,2,4,1,E+,1,5,2,0,1000,250.0,5,E15AZ,444,test
1184.5409870147705,0,3,5,2,4,1,E+,1,1,5,0,1000,250.0,1,E15AZ,445,test
896.8141078948975,0,3,5,2,4,1,E+,1,4,4,0,1000,250.0,4,E15AZ,446,test
912.4481678009033,0,3,5,2,4,1,E+,1,4,4,0,1000,250.0,4,E15AZ,447,test
1056.5459728240967,0,3,5,2,4,1,E+,1,2,3,0,1000,250.0,2,E15AZ,448,test
848.8330841064453,0,3,5,2,4,1,E+,1,1,5,0,1000,250.0,1,E15AZ,449,test
576.5149593353271,0,3,5,2,4,1,E+,1,1,5,0,1000,250.0,1,E15AZ,450,test
608.6528301239014,0,3,5,2,4,1,E+,1,4,4,0,1000,250.0,4,E15AZ,451,test
768.3939933776855,0,3,5,2,4,1,E+,1,2,3,0,1000,250.0,2,E15AZ,452,test
640.4879093170166,0,3,5,2,4,1,E+,1,2,3,0,1000,250.0,2,E15AZ,453,test
592.1511650085449,0,3,5,2,4,1,E+,1,2,3,0,1000,250.0,2,E15AZ,454,test
816.5421485900879,0,3,5,2,4,1,E+,1,0,0,0,1000,250.0,0,E15AZ,455,test
560.4710578918457,0,3,5,2,4,1,E+,1,1,5,0,1000,250.0,1,E15AZ,456,test
608.4809303283691,0,3,5,2,4,1,E+,1,2,3,0,1000,250.0,2,E15AZ,457,test
800.5189895629883,0,3,5,2,4,1,E+,1,1,5,0,1000,250.0,1,E15AZ,458,test
848.4389781951904,0,3,5,2,4,1,E+,0,4,4,0,1000,250.0,3,E15AZ,459,test
1136.4810466766357,0,3,5,2,4,1,E+,1,0,0,0,1000,250.0,0,E15AZ,460,test
832.8919410705566,0,3,5,2,4,1,E+,1,4,4,0,1000,250.0,4,E15AZ,461,test
704.9150466918945,0,3,5,2,4,1,E+,1,5,2,0,1000,250.0,5,E15AZ,462,test
768.9058780670166,0,3,5,2,4,1,E+,1,4,4,0,1000,250.0,4,E15AZ,463,test
960.9470367431641,0,3,5,2,4,1,E+,1,3,1,0,1000,250.0,3,E15AZ,464,test
512.9640102386475,0,3,5,2,4,1,E+,1,3,1,0,1000,250.0,3,E15AZ,465,test
720.9880352020264,0,3,5,2,4,1,E+,1,4,4,0,1000,250.0,4,E15AZ,466,test
704.5798301696777,0,3,5,2,4,1,E+,1,2,3,0,1000,250.0,2,E15AZ,467,test
656.9609642028809,0,3,5,2,4,1,E+,1,3,1,0,1000,250.0,3,E15AZ,468,test
736.9418144226074,0,3,5,2,4,1,E+,1,2,3,0,1000,250.0,2,E15AZ,469,test
640.927791595459,0,3,5,2,4,1,E+,1,1,5,0,1000,250.0,1,E15AZ,470,test
800.9068965911865,0,3,5,2,4,1,E+,1,2,3,0,1000,250.0,2,E15AZ,471,test
944.8671340942383,0,3,5,2,4,1,E+,1,0,0,0,1000,250.0,0,E15AZ,472,test
736.8531227111816,0,3,5,2,4,1,E+,1,0,0,0,1000,250.0,0,E15AZ,473,test
752.5529861450195,0,3,5,2,4,1,E+,1,1,5,0,1000,250.0,1,E15AZ,474,test
592.9110050201416,0,3,5,2,4,1,E+,1,1,5,0,1000,250.0,1,E15AZ,475,test
1040.9049987792969,0,3,5,2,4,1,E+,1,1,5,0,1000,250.0,1,E15AZ,476,test
640.5768394470215,0,3,5,2,4,1,E+,1,4,4,0,1000,250.0,4,E15AZ,477,test
672.9259490966797,0,3,5,2,4,1,E+,1,3,1,0,1000,250.0,3,E15AZ,478,test
896.9161510467529,0,3,5,2,4,1,E+,1,2,3,0,1000,250.0,2,E15AZ,479,test
513.092041015625,0,3,5,2,4,1,E+,0,1,5,0,1000,250.0,0,E15AZ,480,test
625.0669956207275,0,3,5,2,4,1,E+,1,3,1,0,1000,250.0,3,E15AZ,481,test
672.8551387786865,0,3,5,2,4,1,E+,1,0,0,0,1000,250.0,0,E15AZ,482,test
592.9050445556641,0,3,5,2,4,1,E+,1,2,3,0,1000,250.0,2,E15AZ,483,test
768.6431407928467,0,3,5,2,4,1,E+,1,2,3,0,1000,250.0,2,E15AZ,484,test
737.0078563690186,0,3,5,2,4,1,E+,1,4,4,0,1000,250.0,4,E15AZ,485,test
609.0118885040283,0,3,5,2,4,1,E+,1,4,4,0,1000,250.0,4,E15AZ,486,test
880.5818557739258,0,3,5,2,4,1,E+,1,5,2,0,1000,250.0,5,E15AZ,487,test
944.6308612823486,0,3,5,2,4,1,E+,0,0,0,0,1000,250.0,3,E15AZ,488,test
528.5179615020752,0,3,5,2,4,1,E+,1,0,0,0,1000,250.0,0,E15AZ,489,test
688.899040222168,0,3,5,2,4,1,E+,1,4,4,0,1000,250.0,4,E15AZ,490,test
960.9041213989258,0,3,5,2,4,1,E+,1,1,5,0,1000,250.0,1,E15AZ,491,test
849.1330146789551,0,3,5,2,4,1,E+,1,2,3,0,1000,250.0,2,E15AZ,492,test
705.1079273223877,0,3,5,2,4,1,E+,1,5,2,0,1000,250.0,5,E15AZ,493,test
1024.7950553894043,0,3,5,2,4,1,E+,1,2,3,0,1000,250.0,2,E15AZ,494,test
704.9009799957275,0,3,5,2,4,1,E+,1,2,3,0,1000,250.0,2,E15AZ,495,test
848.9799499511719,0,3,5,2,4,1,E+,1,5,2,0,1000,250.0,5,E15AZ,496,test
720.905065536499,0,3,5,2,4,1,E+,1,0,0,0,1000,250.0,0,E15AZ,497,test
624.8650550842285,0,3,5,2,4,1,E+,1,4,4,0,1000,250.0,4,E15AZ,498,test
977.0069122314453,0,3,5,2,4,1,E+,1,2,3,0,1000,250.0,2,E15AZ,499,test
