RT,SRmap_0,SRmap_1,SRmap_2,SRmap_3,SRmap_4,SRmap_5,condition,correct,correct_response,curstim,ms-precue,ms-prestimblank,ntrials,response,subject,trial,type
6877.80499458313,4,0,2,5,3,1,E+,1,0,1,400,600,250.0,0,D14AE,0,train
1023.7748622894287,4,0,2,5,3,1,E+,1,0,1,400,600,250.0,0,D14AE,1,train
1167.8459644317627,4,0,2,5,3,1,E+,1,0,1,400,600,250.0,0,D14AE,2,train
3103.25288772583,4,0,2,5,3,1,E+,1,2,2,400,600,250.0,2,D14AE,3,train
1775.7031917572021,4,0,2,5,3,1,E+,0,1,5,400,600,250.0,2,D14AE,4,train
1439.7361278533936,4,0,2,5,3,1,E+,1,5,3,400,600,250.0,5,D14AE,5,train
895.9009647369385,4,0,2,5,3,1,E+,1,1,5,400,600,250.0,1,D14AE,6,train
1215.1570320129395,4,0,2,5,3,1,E+,1,2,2,400,600,250.0,2,D14AE,7,train
639.2300128936768,4,0,2,5,3,1,E+,0,1,5,400,600,250.0,0,D14AE,8,train
1439.1560554504395,4,0,2,5,3,1,E+,1,2,2,400,600,250.0,2,D14AE,9,train
479.2289733886719,4,0,2,5,3,1,E+,1,1,5,400,600,250.0,1,D14AE,10,train
1167.2189235687256,4,0,2,5,3,1,E+,1,4,0,400,600,250.0,4,D14AE,11,train
959.2671394348145,4,0,2,5,3,1,E+,1,4,0,400,600,250.0,4,D14AE,12,train
1199.249029159546,4,0,2,5,3,1,E+,1,1,5,400,600,250.0,1,D14AE,13,train
1023.2489109039307,4,0,2,5,3,1,E+,0,4,0,400,600,250.0,1,D14AE,14,train
943.2060718536377,4,0,2,5,3,1,E+,1,3,4,400,600,250.0,3,D14AE,15,train
815.5021667480469,4,0,2,5,3,1,E+,1,3,4,400,600,250.0,3,D14AE,16,train
1071.22802734375,4,0,2,5,3,1,E+,1,3,4,400,600,250.0,3,D14AE,17,train
2575.2639770507812,4,0,2,5,3,1,E+,1,4,0,400,600,250.0,4,D14AE,18,train
1279.2129516601562,4,0,2,5,3,1,E+,1,1,5,400,600,250.0,1,D14AE,19,train
1647.2969055175781,4,0,2,5,3,1,E+,1,4,0,400,600,250.0,4,D14AE,20,train
1039.3030643463135,4,0,2,5,3,1,E+,1,2,2,400,600,250.0,2,D14AE,21,train
575.1769542694092,4,0,2,5,3,1,E+,1,3,4,400,600,250.0,3,D14AE,22,train
2351.242780685425,4,0,2,5,3,1,E+,0,4,0,400,600,250.0,5,D14AE,23,train
575.3021240234375,4,0,2,5,3,1,E+,1,4,0,400,600,250.0,4,D14AE,24,train
527.036190032959,4,0,2,5,3,1,E+,1,2,2,400,600,250.0,2,D14AE,25,train
751.2919902801514,4,0,2,5,3,1,E+,1,3,4,400,600,250.0,3,D14AE,26,train
623.2719421386719,4,0,2,5,3,1,E+,1,1,5,400,600,250.0,1,D14AE,27,train
495.1038360595703,4,0,2,5,3,1,E+,1,3,4,400,600,250.0,3,D14AE,28,train
463.67406845092773,4,0,2,5,3,1,E+,1,0,1,400,600,250.0,0,D14AE,29,train
655.1339626312256,4,0,2,5,3,1,E+,1,0,1,400,600,250.0,0,D14AE,30,train
607.6719760894775,4,0,2,5,3,1,E+,1,5,3,400,600,250.0,5,D14AE,31,train
671.226978302002,4,0,2,5,3,1,E+,1,3,4,400,600,250.0,3,D14AE,32,train
415.2259826660156,4,0,2,5,3,1,E+,1,4,0,400,600,250.0,4,D14AE,33,train
415.20094871520996,4,0,2,5,3,1,E+,1,5,3,400,600,250.0,5,D14AE,34,train
399.791955947876,4,0,2,5,3,1,E+,1,5,3,400,600,250.0,5,D14AE,35,train
783.4270000457764,4,0,2,5,3,1,E+,1,4,0,400,600,250.0,4,D14AE,36,train
479.10499572753906,4,0,2,5,3,1,E+,1,3,4,400,600,250.0,3,D14AE,37,train
879.2691230773926,4,0,2,5,3,1,E+,1,0,1,400,600,250.0,0,D14AE,38,train
621.9968795776367,4,0,2,5,3,1,E+,1,4,0,400,600,250.0,4,D14AE,39,train
350.59595108032227,4,0,2,5,3,1,E+,1,4,0,400,600,250.0,4,D14AE,40,train
382.5681209564209,4,0,2,5,3,1,E+,1,5,3,400,600,250.0,5,D14AE,41,train
462.5389575958252,4,0,2,5,3,1,E+,1,4,0,400,600,250.0,4,D14AE,42,train
414.57581520080566,4,0,2,5,3,1,E+,1,5,3,400,600,250.0,5,D14AE,43,train
446.5639591217041,4,0,2,5,3,1,E+,1,5,3,400,600,250.0,5,D14AE,44,train
350.6190776824951,4,0,2,5,3,1,E+,1,4,0,400,600,250.0,4,D14AE,45,train
302.97088623046875,4,0,2,5,3,1,E+,1,3,4,400,600,250.0,3,D14AE,46,train
622.5278377532959,4,0,2,5,3,1,E+,1,2,2,400,600,250.0,2,D14AE,47,train
399.23620223999023,4,0,2,5,3,1,E+,1,0,1,400,600,250.0,0,D14AE,48,train
351.23300552368164,4,0,2,5,3,1,E+,1,5,3,400,600,250.0,5,D14AE,49,train
303.1759262084961,4,0,2,5,3,1,E+,1,4,0,400,600,250.0,4,D14AE,50,train
655.1971435546875,4,0,2,5,3,1,E+,0,2,2,400,600,250.0,3,D14AE,51,train
287.2200012207031,4,0,2,5,3,1,E+,1,0,1,400,600,250.0,0,D14AE,52,train
431.2100410461426,4,0,2,5,3,1,E+,1,3,4,400,600,250.0,3,D14AE,53,train
255.16295433044434,4,0,2,5,3,1,E+,1,1,5,400,600,250.0,1,D14AE,54,train
255.24306297302246,4,0,2,5,3,1,E+,1,5,3,400,600,250.0,5,D14AE,55,train
15.356063842773438,4,0,2,5,3,1,E+,1,5,3,400,600,250.0,5,D14AE,56,train
191.148042678833,4,0,2,5,3,1,E+,1,5,3,400,600,250.0,5,D14AE,57,train
127.3040771484375,4,0,2,5,3,1,E+,0,0,1,400,600,250.0,2,D14AE,58,train
303.264856338501,4,0,2,5,3,1,E+,1,1,5,400,600,250.0,1,D14AE,59,train
399.28412437438965,4,0,2,5,3,1,E+,1,0,1,400,600,250.0,0,D14AE,60,train
175.2450466156006,4,0,2,5,3,1,E+,1,1,5,400,600,250.0,1,D14AE,61,train
143.3548927307129,4,0,2,5,3,1,E+,1,5,3,400,600,250.0,5,D14AE,62,train
175.3380298614502,4,0,2,5,3,1,E+,1,5,3,400,600,250.0,5,D14AE,63,train
335.28590202331543,4,0,2,5,3,1,E+,1,2,2,400,600,250.0,2,D14AE,64,train
479.2470932006836,4,0,2,5,3,1,E+,1,3,4,400,600,250.0,3,D14AE,65,train
223.18291664123535,4,0,2,5,3,1,E+,0,2,2,400,600,250.0,1,D14AE,66,train
751.2640953063965,4,0,2,5,3,1,E+,1,4,0,400,600,250.0,4,D14AE,67,train
95.1998233795166,4,0,2,5,3,1,E+,1,3,4,400,600,250.0,3,D14AE,68,train
255.34319877624512,4,0,2,5,3,1,E+,1,5,3,400,600,250.0,5,D14AE,69,train
527.1909236907959,4,0,2,5,3,1,E+,1,4,0,400,600,250.0,4,D14AE,70,train
367.2189712524414,4,0,2,5,3,1,E+,1,5,3,400,600,250.0,5,D14AE,71,train
255.18321990966797,4,0,2,5,3,1,E+,1,5,3,400,600,250.0,5,D14AE,72,train
559.2961311340332,4,0,2,5,3,1,E+,1,4,0,400,600,250.0,4,D14AE,73,train
223.28710556030273,4,0,2,5,3,1,E+,1,0,1,400,600,250.0,0,D14AE,74,train
191.06388092041016,4,0,2,5,3,1,E+,1,5,3,400,600,250.0,5,D14AE,75,train
175.26793479919434,4,0,2,5,3,1,E+,1,5,3,400,600,250.0,5,D14AE,76,train
255.2030086517334,4,0,2,5,3,1,E+,1,0,1,400,600,250.0,0,D14AE,77,train
415.32397270202637,4,0,2,5,3,1,E+,1,2,2,400,600,250.0,2,D14AE,78,train
143.28813552856445,4,0,2,5,3,1,E+,1,5,3,400,600,250.0,5,D14AE,79,train
927.2739887237549,4,0,2,5,3,1,E+,1,5,3,400,600,250.0,5,D14AE,80,train
159.26313400268555,4,0,2,5,3,1,E+,1,3,4,400,600,250.0,3,D14AE,81,train
255.35082817077637,4,0,2,5,3,1,E+,1,5,3,400,600,250.0,5,D14AE,82,train
303.1790256500244,4,0,2,5,3,1,E+,1,1,5,400,600,250.0,1,D14AE,83,train
303.3318519592285,4,0,2,5,3,1,E+,1,2,2,400,600,250.0,2,D14AE,84,train
271.190881729126,4,0,2,5,3,1,E+,1,1,5,400,600,250.0,1,D14AE,85,train
351.21798515319824,4,0,2,5,3,1,E+,1,4,0,400,600,250.0,4,D14AE,86,train
175.25815963745117,4,0,2,5,3,1,E+,1,4,0,400,600,250.0,4,D14AE,87,train
367.114782333374,4,0,2,5,3,1,E+,1,2,2,400,600,250.0,2,D14AE,88,train
399.2350101470947,4,0,2,5,3,1,E+,1,1,5,400,600,250.0,1,D14AE,89,train
143.19801330566406,4,0,2,5,3,1,E+,1,0,1,400,600,250.0,0,D14AE,90,train
287.19091415405273,4,0,2,5,3,1,E+,1,1,5,400,600,250.0,1,D14AE,91,train
271.2669372558594,4,0,2,5,3,1,E+,1,2,2,400,600,250.0,2,D14AE,92,train
15.234947204589844,4,0,2,5,3,1,E+,1,3,4,400,600,250.0,3,D14AE,93,train
351.2301445007324,4,0,2,5,3,1,E+,1,2,2,400,600,250.0,2,D14AE,94,train
143.1441307067871,4,0,2,5,3,1,E+,1,5,3,400,600,250.0,5,D14AE,95,train
207.21912384033203,4,0,2,5,3,1,E+,1,2,2,400,600,250.0,2,D14AE,96,train
79.24818992614746,4,0,2,5,3,1,E+,1,5,3,400,600,250.0,5,D14AE,97,train
191.2388801574707,4,0,2,5,3,1,E+,1,1,5,400,600,250.0,1,D14AE,98,train
159.2710018157959,4,0,2,5,3,1,E+,1,1,5,400,600,250.0,1,D14AE,99,train
223.2038974761963,4,0,2,5,3,1,E+,1,2,2,400,600,250.0,2,D14AE,100,train
335.16502380371094,4,0,2,5,3,1,E+,1,4,0,400,600,250.0,4,D14AE,101,train
239.09711837768555,4,0,2,5,3,1,E+,1,2,2,400,600,250.0,2,D14AE,102,train
413.67316246032715,4,0,2,5,3,1,E+,1,4,0,400,600,250.0,4,D14AE,103,train
143.21279525756836,4,0,2,5,3,1,E+,1,3,4,400,600,250.0,3,D14AE,104,train
79.2388916015625,4,0,2,5,3,1,E+,1,0,1,400,600,250.0,0,D14AE,105,train
159.21688079833984,4,0,2,5,3,1,E+,1,5,3,400,600,250.0,5,D14AE,106,train
255.21087646484375,4,0,2,5,3,1,E+,1,4,0,400,600,250.0,4,D14AE,107,train
159.17491912841797,4,0,2,5,3,1,E+,1,2,2,400,600,250.0,2,D14AE,108,train
398.9911079406738,4,0,2,5,3,1,E+,1,3,4,400,600,250.0,3,D14AE,109,train
159.3000888824463,4,0,2,5,3,1,E+,1,4,0,400,600,250.0,4,D14AE,110,train
223.2210636138916,4,0,2,5,3,1,E+,1,4,0,400,600,250.0,4,D14AE,111,train
207.23199844360352,4,0,2,5,3,1,E+,1,2,2,400,600,250.0,2,D14AE,112,train
142.9309844970703,4,0,2,5,3,1,E+,1,5,3,400,600,250.0,5,D14AE,113,train
271.2690830230713,4,0,2,5,3,1,E+,1,3,4,400,600,250.0,3,D14AE,114,train
191.2398338317871,4,0,2,5,3,1,E+,1,3,4,400,600,250.0,3,D14AE,115,train
319.1711902618408,4,0,2,5,3,1,E+,1,4,0,400,600,250.0,4,D14AE,116,train
255.1560401916504,4,0,2,5,3,1,E+,1,5,3,400,600,250.0,5,D14AE,117,train
303.2221794128418,4,0,2,5,3,1,E+,1,4,0,400,600,250.0,4,D14AE,118,train
1375.2131462097168,4,0,2,5,3,1,E+,1,2,2,400,600,250.0,2,D14AE,119,train
287.18113899230957,4,0,2,5,3,1,E+,1,3,4,400,600,250.0,3,D14AE,120,train
159.16705131530762,4,0,2,5,3,1,E+,1,2,2,400,600,250.0,2,D14AE,121,train
175.26578903198242,4,0,2,5,3,1,E+,1,1,5,400,600,250.0,1,D14AE,122,train
847.2189903259277,4,0,2,5,3,1,E+,1,0,1,400,600,250.0,0,D14AE,123,train
287.22500801086426,4,0,2,5,3,1,E+,1,3,4,400,600,250.0,3,D14AE,124,train
239.1350269317627,4,0,2,5,3,1,E+,1,3,4,400,600,250.0,3,D14AE,125,train
351.0780334472656,4,0,2,5,3,1,E+,1,3,4,400,600,250.0,3,D14AE,126,train
319.1239833831787,4,0,2,5,3,1,E+,1,1,5,400,600,250.0,1,D14AE,127,train
431.1678409576416,4,0,2,5,3,1,E+,1,2,2,400,600,250.0,2,D14AE,128,train
223.2060432434082,4,0,2,5,3,1,E+,1,2,2,400,600,250.0,2,D14AE,129,train
223.128080368042,4,0,2,5,3,1,E+,1,1,5,400,600,250.0,1,D14AE,130,train
655.1978588104248,4,0,2,5,3,1,E+,1,0,1,400,600,250.0,0,D14AE,131,train
191.2088394165039,4,0,2,5,3,1,E+,1,1,5,400,600,250.0,1,D14AE,132,train
735.3248596191406,4,0,2,5,3,1,E+,1,5,3,400,600,250.0,5,D14AE,133,train
207.20410346984863,4,0,2,5,3,1,E+,1,4,0,400,600,250.0,4,D14AE,134,train
207.17811584472656,4,0,2,5,3,1,E+,1,2,2,400,600,250.0,2,D14AE,135,train
143.1410312652588,4,0,2,5,3,1,E+,1,3,4,400,600,250.0,3,D14AE,136,train
143.3110237121582,4,0,2,5,3,1,E+,1,3,4,400,600,250.0,3,D14AE,137,train
143.21589469909668,4,0,2,5,3,1,E+,1,3,4,400,600,250.0,3,D14AE,138,train
175.19092559814453,4,0,2,5,3,1,E+,1,5,3,400,600,250.0,5,D14AE,139,train
335.18505096435547,4,0,2,5,3,1,E+,1,0,1,400,600,250.0,0,D14AE,140,train
255.17892837524414,4,0,2,5,3,1,E+,1,5,3,400,600,250.0,5,D14AE,141,train
175.13799667358398,4,0,2,5,3,1,E+,1,5,3,400,600,250.0,5,D14AE,142,train
383.2578659057617,4,0,2,5,3,1,E+,1,4,0,400,600,250.0,4,D14AE,143,train
191.2238597869873,4,0,2,5,3,1,E+,1,3,4,400,600,250.0,3,D14AE,144,train
655.2119255065918,4,0,2,5,3,1,E+,1,4,0,400,600,250.0,4,D14AE,145,train
383.1939697265625,4,0,2,5,3,1,E+,1,1,5,400,600,250.0,1,D14AE,146,train
207.14998245239258,4,0,2,5,3,1,E+,1,5,3,400,600,250.0,5,D14AE,147,train
511.0640525817871,4,0,2,5,3,1,E+,1,3,4,400,600,250.0,3,D14AE,148,train
1263.2110118865967,4,0,2,5,3,1,E+,1,3,4,400,600,250.0,3,D14AE,149,train
159.1811180114746,4,0,2,5,3,1,E+,1,0,1,400,600,250.0,0,D14AE,150,train
159.10696983337402,4,0,2,5,3,1,E+,1,5,3,400,600,250.0,5,D14AE,151,train
207.20791816711426,4,0,2,5,3,1,E+,1,4,0,400,600,250.0,4,D14AE,152,train
111.23180389404297,4,0,2,5,3,1,E+,1,5,3,400,600,250.0,5,D14AE,153,train
191.18905067443848,4,0,2,5,3,1,E+,1,4,0,400,600,250.0,4,D14AE,154,train
143.15295219421387,4,0,2,5,3,1,E+,1,4,0,400,600,250.0,4,D14AE,155,train
79.2989730834961,4,0,2,5,3,1,E+,1,3,4,400,600,250.0,3,D14AE,156,train
0.054836273193359375,4,0,2,5,3,1,E+,1,4,0,400,600,250.0,4,D14AE,157,train
383.21399688720703,4,0,2,5,3,1,E+,1,5,3,400,600,250.0,5,D14AE,158,train
111.3138198852539,4,0,2,5,3,1,E+,0,1,5,400,600,250.0,2,D14AE,159,train
127.27808952331543,4,0,2,5,3,1,E+,1,0,1,400,600,250.0,0,D14AE,160,train
95.21794319152832,4,0,2,5,3,1,E+,1,5,3,400,600,250.0,5,D14AE,161,train
95.23797035217285,4,0,2,5,3,1,E+,0,2,2,400,600,250.0,1,D14AE,162,train
223.2820987701416,4,0,2,5,3,1,E+,0,4,0,400,600,250.0,5,D14AE,163,train
207.14592933654785,4,0,2,5,3,1,E+,1,3,4,400,600,250.0,3,D14AE,164,train
95.31283378601074,4,0,2,5,3,1,E+,1,2,2,400,600,250.0,2,D14AE,165,train
431.0479164123535,4,0,2,5,3,1,E+,1,4,0,400,600,250.0,4,D14AE,166,train
79.35285568237305,4,0,2,5,3,1,E+,1,3,4,400,600,250.0,3,D14AE,167,train
111.2370491027832,4,0,2,5,3,1,E+,1,0,1,400,600,250.0,0,D14AE,168,train
463.17386627197266,4,0,2,5,3,1,E+,1,3,4,400,600,250.0,3,D14AE,169,train
127.23517417907715,4,0,2,5,3,1,E+,1,4,0,400,600,250.0,4,D14AE,170,train
175.27008056640625,4,0,2,5,3,1,E+,1,5,3,400,600,250.0,5,D14AE,171,train
143.23186874389648,4,0,2,5,3,1,E+,1,4,0,400,600,250.0,4,D14AE,172,train
286.7000102996826,4,0,2,5,3,1,E+,1,5,3,400,600,250.0,5,D14AE,173,train
287.0979309082031,4,0,2,5,3,1,E+,1,0,1,400,600,250.0,0,D14AE,174,train
847.2499847412109,4,0,2,5,3,1,E+,1,0,1,400,600,250.0,0,D14AE,175,train
255.22398948669434,4,0,2,5,3,1,E+,1,2,2,400,600,250.0,2,D14AE,176,train
127.11501121520996,4,0,2,5,3,1,E+,1,5,3,400,600,250.0,5,D14AE,177,train
847.121000289917,4,0,2,5,3,1,E+,1,3,4,400,600,250.0,3,D14AE,178,train
447.235107421875,4,0,2,5,3,1,E+,1,0,1,400,600,250.0,0,D14AE,179,train
79.18286323547363,4,0,2,5,3,1,E+,1,1,5,400,600,250.0,1,D14AE,180,train
575.1931667327881,4,0,2,5,3,1,E+,1,2,2,400,600,250.0,2,D14AE,181,train
207.26490020751953,4,0,2,5,3,1,E+,1,3,4,400,600,250.0,3,D14AE,182,train
383.1620216369629,4,0,2,5,3,1,E+,1,2,2,400,600,250.0,2,D14AE,183,train
191.16711616516113,4,0,2,5,3,1,E+,1,5,3,400,600,250.0,5,D14AE,184,train
79.25605773925781,4,0,2,5,3,1,E+,1,4,0,400,600,250.0,4,D14AE,185,train
335.1750373840332,4,0,2,5,3,1,E+,1,4,0,400,600,250.0,4,D14AE,186,train
159.2428684234619,4,0,2,5,3,1,E+,1,4,0,400,600,250.0,4,D14AE,187,train
718.93310546875,4,0,2,5,3,1,E+,1,1,5,400,600,250.0,1,D14AE,188,train
191.00189208984375,4,0,2,5,3,1,E+,1,2,2,400,600,250.0,2,D14AE,189,train
143.30792427062988,4,0,2,5,3,1,E+,1,5,3,400,600,250.0,5,D14AE,190,train
223.20890426635742,4,0,2,5,3,1,E+,1,5,3,400,600,250.0,5,D14AE,191,train
127.2580623626709,4,0,2,5,3,1,E+,1,2,2,400,600,250.0,2,D14AE,192,train
207.2749137878418,4,0,2,5,3,1,E+,1,2,2,400,600,250.0,2,D14AE,193,train
191.21193885803223,4,0,2,5,3,1,E+,1,1,5,400,600,250.0,1,D14AE,194,train
79.18000221252441,4,0,2,5,3,1,E+,1,0,1,400,600,250.0,0,D14AE,195,train
271.26383781433105,4,0,2,5,3,1,E+,1,5,3,400,600,250.0,5,D14AE,196,train
127.3050308227539,4,0,2,5,3,1,E+,1,0,1,400,600,250.0,0,D14AE,197,train
175.4779815673828,4,0,2,5,3,1,E+,0,3,4,400,600,250.0,2,D14AE,198,train
479.22801971435547,4,0,2,5,3,1,E+,1,4,0,400,600,250.0,4,D14AE,199,train
191.2829875946045,4,0,2,5,3,1,E+,0,4,0,400,600,250.0,3,D14AE,200,train
223.15001487731934,4,0,2,5,3,1,E+,1,0,1,400,600,250.0,0,D14AE,201,train
303.3018112182617,4,0,2,5,3,1,E+,1,4,0,400,600,250.0,4,D14AE,202,train
303.2209873199463,4,0,2,5,3,1,E+,1,4,0,400,600,250.0,4,D14AE,203,train
223.24585914611816,4,0,2,5,3,1,E+,1,0,1,400,600,250.0,0,D14AE,204,train
367.2029972076416,4,0,2,5,3,1,E+,1,3,4,400,600,250.0,3,D14AE,205,train
287.2748374938965,4,0,2,5,3,1,E+,1,2,2,400,600,250.0,2,D14AE,206,train
127.14505195617676,4,0,2,5,3,1,E+,1,5,3,400,600,250.0,5,D14AE,207,train
175.1241683959961,4,0,2,5,3,1,E+,1,4,0,400,600,250.0,4,D14AE,208,train
383.24809074401855,4,0,2,5,3,1,E+,1,2,2,400,600,250.0,2,D14AE,209,train
127.11596488952637,4,0,2,5,3,1,E+,1,5,3,400,600,250.0,5,D14AE,210,train
255.34701347351074,4,0,2,5,3,1,E+,1,3,4,400,600,250.0,3,D14AE,211,train
0.05602836608886719,4,0,2,5,3,1,E+,1,2,2,400,600,250.0,2,D14AE,212,train
223.283052444458,4,0,2,5,3,1,E+,1,1,5,400,600,250.0,1,D14AE,213,train
15.33198356628418,4,0,2,5,3,1,E+,1,0,1,400,600,250.0,0,D14AE,214,train
335.3149890899658,4,0,2,5,3,1,E+,1,4,0,400,600,250.0,4,D14AE,215,train
335.26015281677246,4,0,2,5,3,1,E+,1,3,4,400,600,250.0,3,D14AE,216,train
143.18490028381348,4,0,2,5,3,1,E+,1,5,3,400,600,250.0,5,D14AE,217,train
223.24109077453613,4,0,2,5,3,1,E+,0,1,5,400,600,250.0,0,D14AE,218,train
463.18793296813965,4,0,2,5,3,1,E+,1,4,0,400,600,250.0,4,D14AE,219,train
143.27311515808105,4,0,2,5,3,1,E+,1,5,3,400,600,250.0,5,D14AE,220,train
143.28312873840332,4,0,2,5,3,1,E+,1,5,3,400,600,250.0,5,D14AE,221,train
191.15805625915527,4,0,2,5,3,1,E+,1,3,4,400,600,250.0,3,D14AE,222,train
207.14807510375977,4,0,2,5,3,1,E+,1,5,3,400,600,250.0,5,D14AE,223,train
271.4250087738037,4,0,2,5,3,1,E+,1,2,2,400,600,250.0,2,D14AE,224,train
175.7659912109375,4,0,2,5,3,1,E+,1,0,1,400,600,250.0,0,D14AE,225,train
239.63499069213867,4,0,2,5,3,1,E+,1,2,2,400,600,250.0,2,D14AE,226,train
127.24804878234863,4,0,2,5,3,1,E+,1,4,0,400,600,250.0,4,D14AE,227,train
175.19879341125488,4,0,2,5,3,1,E+,1,2,2,400,600,250.0,2,D14AE,228,train
127.21514701843262,4,0,2,5,3,1,E+,0,4,0,400,600,250.0,5,D14AE,229,train
351.24993324279785,4,0,2,5,3,1,E+,1,2,2,400,600,250.0,2,D14AE,230,train
191.15114212036133,4,0,2,5,3,1,E+,1,0,1,400,600,250.0,0,D14AE,231,train
591.3629531860352,4,0,2,5,3,1,E+,1,4,0,400,600,250.0,4,D14AE,232,train
223.27613830566406,4,0,2,5,3,1,E+,1,5,3,400,600,250.0,5,D14AE,233,train
15.35797119140625,4,0,2,5,3,1,E+,1,5,3,400,600,250.0,5,D14AE,234,train
303.2050132751465,4,0,2,5,3,1,E+,0,3,4,400,600,250.0,2,D14AE,235,train
191.21289253234863,4,0,2,5,3,1,E+,1,4,0,400,600,250.0,4,D14AE,236,train
239.39895629882812,4,0,2,5,3,1,E+,1,0,1,400,600,250.0,0,D14AE,237,train
0.05412101745605469,4,0,2,5,3,1,E+,1,1,5,400,600,250.0,1,D14AE,238,train
479.3081283569336,4,0,2,5,3,1,E+,1,4,0,400,600,250.0,4,D14AE,239,train
127.2740364074707,4,0,2,5,3,1,E+,1,4,0,400,600,250.0,4,D14AE,240,train
255.2511692047119,4,0,2,5,3,1,E+,1,1,5,400,600,250.0,1,D14AE,241,train
399.32894706726074,4,0,2,5,3,1,E+,1,3,4,400,600,250.0,3,D14AE,242,train
159.21902656555176,4,0,2,5,3,1,E+,1,0,1,400,600,250.0,0,D14AE,243,train
367.24114418029785,4,0,2,5,3,1,E+,1,2,2,400,600,250.0,2,D14AE,244,train
79.35690879821777,4,0,2,5,3,1,E+,1,0,1,400,600,250.0,0,D14AE,245,train
175.307035446167,4,0,2,5,3,1,E+,0,4,0,400,600,250.0,5,D14AE,246,train
143.2960033416748,4,0,2,5,3,1,E+,1,1,5,400,600,250.0,1,D14AE,247,train
239.15791511535645,4,0,2,5,3,1,E+,1,4,0,400,600,250.0,4,D14AE,248,train
319.17715072631836,4,0,2,5,3,1,E+,1,3,4,400,600,250.0,3,D14AE,249,train
1872.4939823150635,4,0,2,5,3,1,E+,1,3,4,0,1000,250.0,3,D14AE,250,test
720.4799652099609,4,0,2,5,3,1,E+,1,5,3,0,1000,250.0,5,D14AE,251,test
720.5159664154053,4,0,2,5,3,1,E+,1,1,5,0,1000,250.0,1,D14AE,252,test
1088.5601043701172,4,0,2,5,3,1,E+,1,2,2,0,1000,250.0,2,D14AE,253,test
864.5141124725342,4,0,2,5,3,1,E+,1,4,0,0,1000,250.0,4,D14AE,254,test
720.5159664154053,4,0,2,5,3,1,E+,1,3,4,0,1000,250.0,3,D14AE,255,test
768.531084060669,4,0,2,5,3,1,E+,1,2,2,0,1000,250.0,2,D14AE,256,test
768.5611248016357,4,0,2,5,3,1,E+,1,4,0,0,1000,250.0,4,D14AE,257,test
560.6188774108887,4,0,2,5,3,1,E+,1,4,0,0,1000,250.0,4,D14AE,258,test
512.6190185546875,4,0,2,5,3,1,E+,1,0,1,0,1000,250.0,0,D14AE,259,test
656.5439701080322,4,0,2,5,3,1,E+,1,2,2,0,1000,250.0,2,D14AE,260,test
704.4479846954346,4,0,2,5,3,1,E+,1,4,0,0,1000,250.0,4,D14AE,261,test
1088.6118412017822,4,0,2,5,3,1,E+,1,1,5,0,1000,250.0,1,D14AE,262,test
544.8658466339111,4,0,2,5,3,1,E+,1,5,3,0,1000,250.0,5,D14AE,263,test
640.5138969421387,4,0,2,5,3,1,E+,1,2,2,0,1000,250.0,2,D14AE,264,test
688.6579990386963,4,0,2,5,3,1,E+,1,3,4,0,1000,250.0,3,D14AE,265,test
624.4900226593018,4,0,2,5,3,1,E+,1,3,4,0,1000,250.0,3,D14AE,266,test
544.6879863739014,4,0,2,5,3,1,E+,1,5,3,0,1000,250.0,5,D14AE,267,test
640.557050704956,4,0,2,5,3,1,E+,1,2,2,0,1000,250.0,2,D14AE,268,test
624.5770454406738,4,0,2,5,3,1,E+,1,1,5,0,1000,250.0,1,D14AE,269,test
624.8090267181396,4,0,2,5,3,1,E+,1,1,5,0,1000,250.0,1,D14AE,270,test
480.58485984802246,4,0,2,5,3,1,E+,1,2,2,0,1000,250.0,2,D14AE,271,test
544.8000431060791,4,0,2,5,3,1,E+,1,3,4,0,1000,250.0,3,D14AE,272,test
592.5559997558594,4,0,2,5,3,1,E+,1,1,5,0,1000,250.0,1,D14AE,273,test
592.4930572509766,4,0,2,5,3,1,E+,1,5,3,0,1000,250.0,5,D14AE,274,test
544.529914855957,4,0,2,5,3,1,E+,1,0,1,0,1000,250.0,0,D14AE,275,test
672.5590229034424,4,0,2,5,3,1,E+,1,2,2,0,1000,250.0,2,D14AE,276,test
608.5710525512695,4,0,2,5,3,1,E+,1,2,2,0,1000,250.0,2,D14AE,277,test
544.5258617401123,4,0,2,5,3,1,E+,1,5,3,0,1000,250.0,5,D14AE,278,test
544.5201396942139,4,0,2,5,3,1,E+,1,4,0,0,1000,250.0,4,D14AE,279,test
816.4651393890381,4,0,2,5,3,1,E+,1,5,3,0,1000,250.0,5,D14AE,280,test
544.7220802307129,4,0,2,5,3,1,E+,1,5,3,0,1000,250.0,5,D14AE,281,test
624.5710849761963,4,0,2,5,3,1,E+,1,4,0,0,1000,250.0,4,D14AE,282,test
544.5499420166016,4,0,2,5,3,1,E+,1,4,0,0,1000,250.0,4,D14AE,283,test
624.4590282440186,4,0,2,5,3,1,E+,1,3,4,0,1000,250.0,3,D14AE,284,test
528.465986251831,4,0,2,5,3,1,E+,1,0,1,0,1000,250.0,0,D14AE,285,test
672.5420951843262,4,0,2,5,3,1,E+,1,2,2,0,1000,250.0,2,D14AE,286,test
576.5769481658936,4,0,2,5,3,1,E+,1,4,0,0,1000,250.0,4,D14AE,287,test
560.5249404907227,4,0,2,5,3,1,E+,1,0,1,0,1000,250.0,0,D14AE,288,test
672.5239753723145,4,0,2,5,3,1,E+,1,0,1,0,1000,250.0,0,D14AE,289,test
544.6200370788574,4,0,2,5,3,1,E+,1,0,1,0,1000,250.0,0,D14AE,290,test
576.545000076294,4,0,2,5,3,1,E+,1,5,3,0,1000,250.0,5,D14AE,291,test
544.9309349060059,4,0,2,5,3,1,E+,1,5,3,0,1000,250.0,5,D14AE,292,test
544.6419715881348,4,0,2,5,3,1,E+,1,3,4,0,1000,250.0,3,D14AE,293,test
560.6539249420166,4,0,2,5,3,1,E+,1,1,5,0,1000,250.0,1,D14AE,294,test
432.50298500061035,4,0,2,5,3,1,E+,1,0,1,0,1000,250.0,0,D14AE,295,test
512.5532150268555,4,0,2,5,3,1,E+,1,5,3,0,1000,250.0,5,D14AE,296,test
592.7128791809082,4,0,2,5,3,1,E+,1,2,2,0,1000,250.0,2,D14AE,297,test
560.6269836425781,4,0,2,5,3,1,E+,1,2,2,0,1000,250.0,2,D14AE,298,test
496.5379238128662,4,0,2,5,3,1,E+,1,3,4,0,1000,250.0,3,D14AE,299,test
512.5510692596436,4,0,2,5,3,1,E+,1,4,0,0,1000,250.0,4,D14AE,300,test
528.5511016845703,4,0,2,5,3,1,E+,1,0,1,0,1000,250.0,0,D14AE,301,test
528.6619663238525,4,0,2,5,3,1,E+,0,4,0,0,1000,250.0,3,D14AE,302,test
416.5611267089844,4,0,2,5,3,1,E+,1,4,0,0,1000,250.0,4,D14AE,303,test
592.4761295318604,4,0,2,5,3,1,E+,1,0,1,0,1000,250.0,0,D14AE,304,test
560.5208873748779,4,0,2,5,3,1,E+,1,2,2,0,1000,250.0,2,D14AE,305,test
480.5340766906738,4,0,2,5,3,1,E+,1,5,3,0,1000,250.0,5,D14AE,306,test
384.5369815826416,4,0,2,5,3,1,E+,1,0,1,0,1000,250.0,0,D14AE,307,test
592.6458835601807,4,0,2,5,3,1,E+,1,2,2,0,1000,250.0,2,D14AE,308,test
496.5388774871826,4,0,2,5,3,1,E+,1,2,2,0,1000,250.0,2,D14AE,309,test
560.600996017456,4,0,2,5,3,1,E+,1,2,2,0,1000,250.0,2,D14AE,310,test
768.4211730957031,4,0,2,5,3,1,E+,1,4,0,0,1000,250.0,4,D14AE,311,test
512.401819229126,4,0,2,5,3,1,E+,1,0,1,0,1000,250.0,0,D14AE,312,test
1056.5319061279297,4,0,2,5,3,1,E+,1,3,4,0,1000,250.0,3,D14AE,313,test
528.8798809051514,4,0,2,5,3,1,E+,1,4,0,0,1000,250.0,4,D14AE,314,test
497.0078468322754,4,0,2,5,3,1,E+,1,5,3,0,1000,250.0,5,D14AE,315,test
624.9990463256836,4,0,2,5,3,1,E+,1,4,0,0,1000,250.0,4,D14AE,316,test
464.87903594970703,4,0,2,5,3,1,E+,0,4,0,0,1000,250.0,5,D14AE,317,test
576.9360065460205,4,0,2,5,3,1,E+,1,3,4,0,1000,250.0,3,D14AE,318,test
465.1210308074951,4,0,2,5,3,1,E+,1,4,0,0,1000,250.0,4,D14AE,319,test
496.9010353088379,4,0,2,5,3,1,E+,1,0,1,0,1000,250.0,0,D14AE,320,test
624.439001083374,4,0,2,5,3,1,E+,1,2,2,0,1000,250.0,2,D14AE,321,test
784.4429016113281,4,0,2,5,3,1,E+,1,3,4,0,1000,250.0,3,D14AE,322,test
608.5929870605469,4,0,2,5,3,1,E+,1,3,4,0,1000,250.0,3,D14AE,323,test
560.56809425354,4,0,2,5,3,1,E+,1,2,2,0,1000,250.0,2,D14AE,324,test
480.62586784362793,4,0,2,5,3,1,E+,1,1,5,0,1000,250.0,1,D14AE,325,test
528.5649299621582,4,0,2,5,3,1,E+,0,0,1,0,1000,250.0,2,D14AE,326,test
576.4920711517334,4,0,2,5,3,1,E+,1,3,4,0,1000,250.0,3,D14AE,327,test
656.5039157867432,4,0,2,5,3,1,E+,1,4,0,0,1000,250.0,4,D14AE,328,test
544.5289611816406,4,0,2,5,3,1,E+,1,3,4,0,1000,250.0,3,D14AE,329,test
528.5978317260742,4,0,2,5,3,1,E+,1,3,4,0,1000,250.0,3,D14AE,330,test
608.5588932037354,4,0,2,5,3,1,E+,1,0,1,0,1000,250.0,0,D14AE,331,test
512.5620365142822,4,0,2,5,3,1,E+,1,5,3,0,1000,250.0,5,D14AE,332,test
544.4650650024414,4,0,2,5,3,1,E+,1,3,4,0,1000,250.0,3,D14AE,333,test
576.4861106872559,4,0,2,5,3,1,E+,1,2,2,0,1000,250.0,2,D14AE,334,test
704.5130729675293,4,0,2,5,3,1,E+,1,2,2,0,1000,250.0,2,D14AE,335,test
496.6142177581787,4,0,2,5,3,1,E+,0,1,5,0,1000,250.0,0,D14AE,336,test
640.5448913574219,4,0,2,5,3,1,E+,1,5,3,0,1000,250.0,5,D14AE,337,test
544.536828994751,4,0,2,5,3,1,E+,1,0,1,0,1000,250.0,0,D14AE,338,test
496.5498447418213,4,0,2,5,3,1,E+,1,3,4,0,1000,250.0,3,D14AE,339,test
704.531192779541,4,0,2,5,3,1,E+,1,2,2,0,1000,250.0,2,D14AE,340,test
576.6000747680664,4,0,2,5,3,1,E+,1,5,3,0,1000,250.0,5,D14AE,341,test
544.5458889007568,4,0,2,5,3,1,E+,1,3,4,0,1000,250.0,3,D14AE,342,test
528.6190509796143,4,0,2,5,3,1,E+,1,1,5,0,1000,250.0,1,D14AE,343,test
592.6649570465088,4,0,2,5,3,1,E+,0,2,2,0,1000,250.0,3,D14AE,344,test
752.526044845581,4,0,2,5,3,1,E+,1,1,5,0,1000,250.0,1,D14AE,345,test
592.5631523132324,4,0,2,5,3,1,E+,1,2,2,0,1000,250.0,2,D14AE,346,test
560.542106628418,4,0,2,5,3,1,E+,1,5,3,0,1000,250.0,5,D14AE,347,test
640.5088901519775,4,0,2,5,3,1,E+,1,1,5,0,1000,250.0,1,D14AE,348,test
784.60693359375,4,0,2,5,3,1,E+,1,1,5,0,1000,250.0,1,D14AE,349,test
608.5669994354248,4,0,2,5,3,1,E+,1,3,4,0,1000,250.0,3,D14AE,350,test
560.5459213256836,4,0,2,5,3,1,E+,1,1,5,0,1000,250.0,1,D14AE,351,test
576.4520168304443,4,0,2,5,3,1,E+,1,0,1,0,1000,250.0,0,D14AE,352,test
720.3431129455566,4,0,2,5,3,1,E+,1,5,3,0,1000,250.0,5,D14AE,353,test
432.51490592956543,4,0,2,5,3,1,E+,1,5,3,0,1000,250.0,5,D14AE,354,test
384.4950199127197,4,0,2,5,3,1,E+,1,5,3,0,1000,250.0,5,D14AE,355,test
528.4669399261475,4,0,2,5,3,1,E+,1,1,5,0,1000,250.0,1,D14AE,356,test
608.5460186004639,4,0,2,5,3,1,E+,1,5,3,0,1000,250.0,5,D14AE,357,test
784.5799922943115,4,0,2,5,3,1,E+,1,2,2,0,1000,250.0,2,D14AE,358,test
560.5549812316895,4,0,2,5,3,1,E+,1,3,4,0,1000,250.0,3,D14AE,359,test
576.5070915222168,4,0,2,5,3,1,E+,1,0,1,0,1000,250.0,0,D14AE,360,test
560.5380535125732,4,0,2,5,3,1,E+,1,1,5,0,1000,250.0,1,D14AE,361,test
576.5841007232666,4,0,2,5,3,1,E+,1,0,1,0,1000,250.0,0,D14AE,362,test
576.5650272369385,4,0,2,5,3,1,E+,1,1,5,0,1000,250.0,1,D14AE,363,test
576.5511989593506,4,0,2,5,3,1,E+,1,1,5,0,1000,250.0,1,D14AE,364,test
544.4779396057129,4,0,2,5,3,1,E+,1,3,4,0,1000,250.0,3,D14AE,365,test
544.5561408996582,4,0,2,5,3,1,E+,1,0,1,0,1000,250.0,0,D14AE,366,test
560.6229305267334,4,0,2,5,3,1,E+,1,0,1,0,1000,250.0,0,D14AE,367,test
448.55713844299316,4,0,2,5,3,1,E+,1,0,1,0,1000,250.0,0,D14AE,368,test
592.8609371185303,4,0,2,5,3,1,E+,1,1,5,0,1000,250.0,1,D14AE,369,test
512.4249458312988,4,0,2,5,3,1,E+,1,5,3,0,1000,250.0,5,D14AE,370,test
528.5019874572754,4,0,2,5,3,1,E+,0,1,5,0,1000,250.0,0,D14AE,371,test
688.568115234375,4,0,2,5,3,1,E+,1,2,2,0,1000,250.0,2,D14AE,372,test
848.6878871917725,4,0,2,5,3,1,E+,1,2,2,0,1000,250.0,2,D14AE,373,test
624.5439052581787,4,0,2,5,3,1,E+,1,3,4,0,1000,250.0,3,D14AE,374,test
608.551025390625,4,0,2,5,3,1,E+,1,2,2,0,1000,250.0,2,D14AE,375,test
560.5001449584961,4,0,2,5,3,1,E+,1,5,3,0,1000,250.0,5,D14AE,376,test
608.90793800354,4,0,2,5,3,1,E+,1,3,4,0,1000,250.0,3,D14AE,377,test
720.8969593048096,4,0,2,5,3,1,E+,1,3,4,0,1000,250.0,3,D14AE,378,test
560.9488487243652,4,0,2,5,3,1,E+,1,1,5,0,1000,250.0,1,D14AE,379,test
848.8528728485107,4,0,2,5,3,1,E+,1,2,2,0,1000,250.0,2,D14AE,380,test
416.8879985809326,4,0,2,5,3,1,E+,1,2,2,0,1000,250.0,2,D14AE,381,test
544.9709892272949,4,0,2,5,3,1,E+,1,0,1,0,1000,250.0,0,D14AE,382,test
672.7797985076904,4,0,2,5,3,1,E+,1,3,4,0,1000,250.0,3,D14AE,383,test
657.0370197296143,4,0,2,5,3,1,E+,1,2,2,0,1000,250.0,2,D14AE,384,test
1057.0290088653564,4,0,2,5,3,1,E+,1,4,0,0,1000,250.0,4,D14AE,385,test
561.0699653625488,4,0,2,5,3,1,E+,1,2,2,0,1000,250.0,2,D14AE,386,test
544.7089672088623,4,0,2,5,3,1,E+,1,0,1,0,1000,250.0,0,D14AE,387,test
545.0179576873779,4,0,2,5,3,1,E+,1,1,5,0,1000,250.0,1,D14AE,388,test
593.0790901184082,4,0,2,5,3,1,E+,1,0,1,0,1000,250.0,0,D14AE,389,test
704.9779891967773,4,0,2,5,3,1,E+,1,3,4,0,1000,250.0,3,D14AE,390,test
1073.016881942749,4,0,2,5,3,1,E+,1,1,5,0,1000,250.0,1,D14AE,391,test
384.9329948425293,4,0,2,5,3,1,E+,1,1,5,0,1000,250.0,1,D14AE,392,test
561.1610412597656,4,0,2,5,3,1,E+,1,5,3,0,1000,250.0,5,D14AE,393,test
513.031005859375,4,0,2,5,3,1,E+,1,4,0,0,1000,250.0,4,D14AE,394,test
560.95290184021,4,0,2,5,3,1,E+,1,3,4,0,1000,250.0,3,D14AE,395,test
592.9138660430908,4,0,2,5,3,1,E+,1,0,1,0,1000,250.0,0,D14AE,396,test
576.5371322631836,4,0,2,5,3,1,E+,1,4,0,0,1000,250.0,4,D14AE,397,test
735.9800338745117,4,0,2,5,3,1,E+,1,2,2,0,1000,250.0,2,D14AE,398,test
656.4779281616211,4,0,2,5,3,1,E+,1,1,5,0,1000,250.0,1,D14AE,399,test
560.9378814697266,4,0,2,5,3,1,E+,1,2,2,0,1000,250.0,2,D14AE,400,test
545.011043548584,4,0,2,5,3,1,E+,1,4,0,0,1000,250.0,4,D14AE,401,test
560.9920024871826,4,0,2,5,3,1,E+,1,4,0,0,1000,250.0,4,D14AE,402,test
657.0649147033691,4,0,2,5,3,1,E+,1,3,4,0,1000,250.0,3,D14AE,403,test
769.0520286560059,4,0,2,5,3,1,E+,1,5,3,0,1000,250.0,5,D14AE,404,test
641.0360336303711,4,0,2,5,3,1,E+,1,2,2,0,1000,250.0,2,D14AE,405,test
784.7399711608887,4,0,2,5,3,1,E+,1,4,0,0,1000,250.0,4,D14AE,406,test
897.0980644226074,4,0,2,5,3,1,E+,1,5,3,0,1000,250.0,5,D14AE,407,test
608.9789867401123,4,0,2,5,3,1,E+,1,4,0,0,1000,250.0,4,D14AE,408,test
576.5080451965332,4,0,2,5,3,1,E+,1,3,4,0,1000,250.0,3,D14AE,409,test
672.5268363952637,4,0,2,5,3,1,E+,1,1,5,0,1000,250.0,1,D14AE,410,test
544.5041656494141,4,0,2,5,3,1,E+,1,0,1,0,1000,250.0,0,D14AE,411,test
544.4929599761963,4,0,2,5,3,1,E+,1,0,1,0,1000,250.0,0,D14AE,412,test
528.594970703125,4,0,2,5,3,1,E+,1,5,3,0,1000,250.0,5,D14AE,413,test
593.1999683380127,4,0,2,5,3,1,E+,1,0,1,0,1000,250.0,0,D14AE,414,test
561.021089553833,4,0,2,5,3,1,E+,1,4,0,0,1000,250.0,4,D14AE,415,test
545.0868606567383,4,0,2,5,3,1,E+,1,5,3,0,1000,250.0,5,D14AE,416,test
4449.208974838257,4,0,2,5,3,1,E+,0,4,0,0,1000,250.0,1,D14AE,417,test
656.9628715515137,4,0,2,5,3,1,E+,1,2,2,0,1000,250.0,2,D14AE,418,test
545.1319217681885,4,0,2,5,3,1,E+,1,5,3,0,1000,250.0,5,D14AE,419,test
497.00307846069336,4,0,2,5,3,1,E+,1,5,3,0,1000,250.0,5,D14AE,420,test
561.0640048980713,4,0,2,5,3,1,E+,1,2,2,0,1000,250.0,2,D14AE,421,test
528.6691188812256,4,0,2,5,3,1,E+,0,0,1,0,1000,250.0,2,D14AE,422,test
768.5661315917969,4,0,2,5,3,1,E+,1,1,5,0,1000,250.0,1,D14AE,423,test
528.4709930419922,4,0,2,5,3,1,E+,1,1,5,0,1000,250.0,1,D14AE,424,test
481.0059070587158,4,0,2,5,3,1,E+,1,1,5,0,1000,250.0,1,D14AE,425,test
592.8430557250977,4,0,2,5,3,1,E+,1,3,4,0,1000,250.0,3,D14AE,426,test
976.9649505615234,4,0,2,5,3,1,E+,1,3,4,0,1000,250.0,3,D14AE,427,test
656.9340229034424,4,0,2,5,3,1,E+,1,0,1,0,1000,250.0,0,D14AE,428,test
944.7000026702881,4,0,2,5,3,1,E+,1,0,1,0,1000,250.0,0,D14AE,429,test
560.5390071868896,4,0,2,5,3,1,E+,0,1,5,0,1000,250.0,0,D14AE,430,test
657.0079326629639,4,0,2,5,3,1,E+,1,4,0,0,1000,250.0,4,D14AE,431,test
640.5808925628662,4,0,2,5,3,1,E+,1,2,2,0,1000,250.0,2,D14AE,432,test
928.6940097808838,4,0,2,5,3,1,E+,0,5,3,0,1000,250.0,3,D14AE,433,test
624.610185623169,4,0,2,5,3,1,E+,1,4,0,0,1000,250.0,4,D14AE,434,test
640.4550075531006,4,0,2,5,3,1,E+,1,3,4,0,1000,250.0,3,D14AE,435,test
464.6148681640625,4,0,2,5,3,1,E+,1,3,4,0,1000,250.0,3,D14AE,436,test
576.6818523406982,4,0,2,5,3,1,E+,1,1,5,0,1000,250.0,1,D14AE,437,test
480.5119037628174,4,0,2,5,3,1,E+,1,5,3,0,1000,250.0,5,D14AE,438,test
640.6941413879395,4,0,2,5,3,1,E+,1,1,5,0,1000,250.0,1,D14AE,439,test
608.7319850921631,4,0,2,5,3,1,E+,1,5,3,0,1000,250.0,5,D14AE,440,test
624.6850490570068,4,0,2,5,3,1,E+,1,1,5,0,1000,250.0,1,D14AE,441,test
592.9160118103027,4,0,2,5,3,1,E+,1,4,0,0,1000,250.0,4,D14AE,442,test
608.9539527893066,4,0,2,5,3,1,E+,1,4,0,0,1000,250.0,4,D14AE,443,test
544.605016708374,4,0,2,5,3,1,E+,1,5,3,0,1000,250.0,5,D14AE,444,test
672.4379062652588,4,0,2,5,3,1,E+,1,3,4,0,1000,250.0,3,D14AE,445,test
496.5071678161621,4,0,2,5,3,1,E+,1,5,3,0,1000,250.0,5,D14AE,446,test
512.531042098999,4,0,2,5,3,1,E+,1,5,3,0,1000,250.0,5,D14AE,447,test
544.5129871368408,4,0,2,5,3,1,E+,1,3,4,0,1000,250.0,3,D14AE,448,test
640.6900882720947,4,0,2,5,3,1,E+,1,1,5,0,1000,250.0,1,D14AE,449,test
577.0189762115479,4,0,2,5,3,1,E+,1,0,1,0,1000,250.0,0,D14AE,450,test
833.0252170562744,4,0,2,5,3,1,E+,1,2,2,0,1000,250.0,2,D14AE,451,test
976.5589237213135,4,0,2,5,3,1,E+,1,1,5,0,1000,250.0,1,D14AE,452,test
561.0108375549316,4,0,2,5,3,1,E+,1,5,3,0,1000,250.0,5,D14AE,453,test
913.1209850311279,4,0,2,5,3,1,E+,1,2,2,0,1000,250.0,2,D14AE,454,test
608.9839935302734,4,0,2,5,3,1,E+,1,1,5,0,1000,250.0,1,D14AE,455,test
721.0049629211426,4,0,2,5,3,1,E+,1,1,5,0,1000,250.0,1,D14AE,456,test
545.0701713562012,4,0,2,5,3,1,E+,1,0,1,0,1000,250.0,0,D14AE,457,test
513.1251811981201,4,0,2,5,3,1,E+,1,5,3,0,1000,250.0,5,D14AE,458,test
448.5769271850586,4,0,2,5,3,1,E+,1,5,3,0,1000,250.0,5,D14AE,459,test
640.6800746917725,4,0,2,5,3,1,E+,1,2,2,0,1000,250.0,2,D14AE,460,test
576.4899253845215,4,0,2,5,3,1,E+,1,2,2,0,1000,250.0,2,D14AE,461,test
576.5872001647949,4,0,2,5,3,1,E+,1,3,4,0,1000,250.0,3,D14AE,462,test
960.5438709259033,4,0,2,5,3,1,E+,1,3,4,0,1000,250.0,3,D14AE,463,test
432.56211280822754,4,0,2,5,3,1,E+,1,3,4,0,1000,250.0,3,D14AE,464,test
2272.5369930267334,4,0,2,5,3,1,E+,1,2,2,0,1000,250.0,2,D14AE,465,test
560.5378150939941,4,0,2,5,3,1,E+,1,0,1,0,1000,250.0,0,D14AE,466,test
656.53395652771,4,0,2,5,3,1,E+,1,3,4,0,1000,250.0,3,D14AE,467,test
528.5220146179199,4,0,2,5,3,1,E+,1,3,4,0,1000,250.0,3,D14AE,468,test
576.6570568084717,4,0,2,5,3,1,E+,1,5,3,0,1000,250.0,5,D14AE,469,test
640.5351161956787,4,0,2,5,3,1,E+,1,2,2,0,1000,250.0,2,D14AE,470,test
848.6549854278564,4,0,2,5,3,1,E+,1,5,3,0,1000,250.0,5,D14AE,471,test
624.5839595794678,4,0,2,5,3,1,E+,1,1,5,0,1000,250.0,1,D14AE,472,test
3216.4721488952637,4,0,2,5,3,1,E+,1,3,4,0,1000,250.0,3,D14AE,473,test
544.4729328155518,4,0,2,5,3,1,E+,1,0,1,0,1000,250.0,0,D14AE,474,test
688.5640621185303,4,0,2,5,3,1,E+,1,3,4,0,1000,250.0,3,D14AE,475,test
832.5691223144531,4,0,2,5,3,1,E+,1,3,4,0,1000,250.0,3,D14AE,476,test
608.4940433502197,4,0,2,5,3,1,E+,1,5,3,0,1000,250.0,5,D14AE,477,test
672.4138259887695,4,0,2,5,3,1,E+,1,3,4,0,1000,250.0,3,D14AE,478,test
672.5978851318359,4,0,2,5,3,1,E+,1,2,2,0,1000,250.0,2,D14AE,479,test
992.678165435791,4,0,2,5,3,1,E+,1,2,2,0,1000,250.0,2,D14AE,480,test
528.5978317260742,4,0,2,5,3,1,E+,1,3,4,0,1000,250.0,3,D14AE,481,test
544.9328422546387,4,0,2,5,3,1,E+,1,3,4,0,1000,250.0,3,D14AE,482,test
656.9678783416748,4,0,2,5,3,1,E+,1,4,0,0,1000,250.0,4,D14AE,483,test
513.0679607391357,4,0,2,5,3,1,E+,1,0,1,0,1000,250.0,0,D14AE,484,test
528.9227962493896,4,0,2,5,3,1,E+,1,5,3,0,1000,250.0,5,D14AE,485,test
897.0439434051514,4,0,2,5,3,1,E+,0,1,5,0,1000,250.0,0,D14AE,486,test
561.0909461975098,4,0,2,5,3,1,E+,1,4,0,0,1000,250.0,4,D14AE,487,test
577.146053314209,4,0,2,5,3,1,E+,1,3,4,0,1000,250.0,3,D14AE,488,test
593.0769443511963,4,0,2,5,3,1,E+,1,2,2,0,1000,250.0,2,D14AE,489,test
512.8929615020752,4,0,2,5,3,1,E+,1,0,1,0,1000,250.0,0,D14AE,490,test
577.1291255950928,4,0,2,5,3,1,E+,1,5,3,0,1000,250.0,5,D14AE,491,test
592.987060546875,4,0,2,5,3,1,E+,1,0,1,0,1000,250.0,0,D14AE,492,test
481.10008239746094,4,0,2,5,3,1,E+,1,5,3,0,1000,250.0,5,D14AE,493,test
497.128963470459,4,0,2,5,3,1,E+,1,1,5,0,1000,250.0,1,D14AE,494,test
1057.0240020751953,4,0,2,5,3,1,E+,1,4,0,0,1000,250.0,4,D14AE,495,test
816.9968128204346,4,0,2,5,3,1,E+,1,3,4,0,1000,250.0,3,D14AE,496,test
752.9761791229248,4,0,2,5,3,1,E+,1,4,0,0,1000,250.0,4,D14AE,497,test
545.1109409332275,4,0,2,5,3,1,E+,1,0,1,0,1000,250.0,0,D14AE,498,test
657.0179462432861,4,0,2,5,3,1,E+,1,1,5,0,1000,250.0,1,D14AE,499,test
