RT,SRmap_0,SRmap_1,SRmap_2,SRmap_3,SRmap_4,SRmap_5,condition,correct,correct_response,curstim,ms-precue,ms-prestimblank,ntrials,response,subject,trial,type
4848.811864852905,3,1,5,4,0,2,H+,1,0,4,0,1000,250.0,0,C25DV,0,train
3072.6840496063232,3,1,5,4,0,2,H+,0,0,4,0,1000,250.0,2,C25DV,1,train
3073.0910301208496,3,1,5,4,0,2,H+,1,3,0,0,1000,250.0,3,C25DV,2,train
3009.1190338134766,3,1,5,4,0,2,H+,1,1,1,0,1000,250.0,1,C25DV,3,train
5233.144044876099,3,1,5,4,0,2,H+,1,3,0,0,1000,250.0,3,C25DV,4,train
2641.1290168762207,3,1,5,4,0,2,H+,1,4,3,0,1000,250.0,4,C25DV,5,train
2177.1750450134277,3,1,5,4,0,2,H+,1,1,1,0,1000,250.0,1,C25DV,6,train
1278.6610126495361,3,1,5,4,0,2,H+,1,0,4,0,1000,250.0,0,C25DV,7,train
2128.979206085205,3,1,5,4,0,2,H+,0,4,3,0,1000,250.0,3,C25DV,8,train
1825.193166732788,3,1,5,4,0,2,H+,1,4,3,0,1000,250.0,4,C25DV,9,train
2337.056875228882,3,1,5,4,0,2,H+,1,1,1,0,1000,250.0,1,C25DV,10,train
2528.646945953369,3,1,5,4,0,2,H+,1,5,2,0,1000,250.0,5,C25DV,11,train
1104.8839092254639,3,1,5,4,0,2,H+,1,0,4,0,1000,250.0,0,C25DV,12,train
721.107006072998,3,1,5,4,0,2,H+,1,0,4,0,1000,250.0,0,C25DV,13,train
1312.0670318603516,3,1,5,4,0,2,H+,1,4,3,0,1000,250.0,4,C25DV,14,train
2016.8070793151855,3,1,5,4,0,2,H+,1,2,5,0,1000,250.0,2,C25DV,15,train
1536.7608070373535,3,1,5,4,0,2,H+,1,5,2,0,1000,250.0,5,C25DV,16,train
865.0741577148438,3,1,5,4,0,2,H+,1,2,5,0,1000,250.0,2,C25DV,17,train
769.0608501434326,3,1,5,4,0,2,H+,1,5,2,0,1000,250.0,5,C25DV,18,train
544.9509620666504,3,1,5,4,0,2,H+,1,0,4,0,1000,250.0,0,C25DV,19,train
1297.140121459961,3,1,5,4,0,2,H+,1,1,1,0,1000,250.0,1,C25DV,20,train
672.9450225830078,3,1,5,4,0,2,H+,1,2,5,0,1000,250.0,2,C25DV,21,train
656.90016746521,3,1,5,4,0,2,H+,1,2,5,0,1000,250.0,2,C25DV,22,train
1344.865083694458,3,1,5,4,0,2,H+,1,5,2,0,1000,250.0,5,C25DV,23,train
385.08081436157227,3,1,5,4,0,2,H+,1,4,3,0,1000,250.0,4,C25DV,24,train
752.9850006103516,3,1,5,4,0,2,H+,1,3,0,0,1000,250.0,3,C25DV,25,train
928.969144821167,3,1,5,4,0,2,H+,0,4,3,0,1000,250.0,5,C25DV,26,train
912.7490520477295,3,1,5,4,0,2,H+,1,5,2,0,1000,250.0,5,C25DV,27,train
752.8338432312012,3,1,5,4,0,2,H+,1,5,2,0,1000,250.0,5,C25DV,28,train
2065.1209354400635,3,1,5,4,0,2,H+,1,3,0,0,1000,250.0,3,C25DV,29,train
1120.9819316864014,3,1,5,4,0,2,H+,1,4,3,0,1000,250.0,4,C25DV,30,train
1280.8740139007568,3,1,5,4,0,2,H+,1,2,5,0,1000,250.0,2,C25DV,31,train
704.2510509490967,3,1,5,4,0,2,H+,1,2,5,0,1000,250.0,2,C25DV,32,train
976.7630100250244,3,1,5,4,0,2,H+,1,0,4,0,1000,250.0,0,C25DV,33,train
1248.5661506652832,3,1,5,4,0,2,H+,1,3,0,0,1000,250.0,3,C25DV,34,train
1280.4670333862305,3,1,5,4,0,2,H+,1,1,1,0,1000,250.0,1,C25DV,35,train
577.0049095153809,3,1,5,4,0,2,H+,1,5,2,0,1000,250.0,5,C25DV,36,train
561.0899925231934,3,1,5,4,0,2,H+,1,4,3,0,1000,250.0,4,C25DV,37,train
894.6549892425537,3,1,5,4,0,2,H+,1,2,5,0,1000,250.0,2,C25DV,38,train
1104.7239303588867,3,1,5,4,0,2,H+,1,4,3,0,1000,250.0,4,C25DV,39,train
688.8298988342285,3,1,5,4,0,2,H+,1,5,2,0,1000,250.0,5,C25DV,40,train
704.8499584197998,3,1,5,4,0,2,H+,1,1,1,0,1000,250.0,1,C25DV,41,train
560.0979328155518,3,1,5,4,0,2,H+,1,1,1,0,1000,250.0,1,C25DV,42,train
672.7020740509033,3,1,5,4,0,2,H+,0,3,0,0,1000,250.0,0,C25DV,43,train
784.6479415893555,3,1,5,4,0,2,H+,1,4,3,0,1000,250.0,4,C25DV,44,train
816.9400691986084,3,1,5,4,0,2,H+,1,2,5,0,1000,250.0,2,C25DV,45,train
848.7701416015625,3,1,5,4,0,2,H+,1,1,1,0,1000,250.0,1,C25DV,46,train
528.7590026855469,3,1,5,4,0,2,H+,1,0,4,0,1000,250.0,0,C25DV,47,train
960.7729911804199,3,1,5,4,0,2,H+,1,4,3,0,1000,250.0,4,C25DV,48,train
496.9179630279541,3,1,5,4,0,2,H+,1,0,4,0,1000,250.0,0,C25DV,49,train
366.58191680908203,3,1,5,4,0,2,H+,1,0,4,0,1000,250.0,0,C25DV,50,train
1247.6520538330078,3,1,5,4,0,2,H+,1,4,3,0,1000,250.0,4,C25DV,51,train
624.9828338623047,3,1,5,4,0,2,H+,1,1,1,0,1000,250.0,1,C25DV,52,train
496.8438148498535,3,1,5,4,0,2,H+,1,0,4,0,1000,250.0,0,C25DV,53,train
561.0311031341553,3,1,5,4,0,2,H+,1,1,1,0,1000,250.0,1,C25DV,54,train
545.0479984283447,3,1,5,4,0,2,H+,1,0,4,0,1000,250.0,0,C25DV,55,train
656.6629409790039,3,1,5,4,0,2,H+,1,1,1,0,1000,250.0,1,C25DV,56,train
544.8319911956787,3,1,5,4,0,2,H+,1,0,4,0,1000,250.0,0,C25DV,57,train
1376.8298625946045,3,1,5,4,0,2,H+,1,3,0,0,1000,250.0,3,C25DV,58,train
720.8669185638428,3,1,5,4,0,2,H+,1,5,2,0,1000,250.0,5,C25DV,59,train
480.73387145996094,3,1,5,4,0,2,H+,1,5,2,0,1000,250.0,5,C25DV,60,train
640.3210163116455,3,1,5,4,0,2,H+,1,1,1,0,1000,250.0,1,C25DV,61,train
576.8938064575195,3,1,5,4,0,2,H+,1,0,4,0,1000,250.0,0,C25DV,62,train
1185.0030422210693,3,1,5,4,0,2,H+,1,3,0,0,1000,250.0,3,C25DV,63,train
576.9438743591309,3,1,5,4,0,2,H+,1,0,4,0,1000,250.0,0,C25DV,64,train
816.8430328369141,3,1,5,4,0,2,H+,1,4,3,0,1000,250.0,4,C25DV,65,train
1472.733974456787,3,1,5,4,0,2,H+,1,2,5,0,1000,250.0,2,C25DV,66,train
689.0759468078613,3,1,5,4,0,2,H+,1,1,1,0,1000,250.0,1,C25DV,67,train
1328.7348747253418,3,1,5,4,0,2,H+,1,3,0,0,1000,250.0,3,C25DV,68,train
689.1119480133057,3,1,5,4,0,2,H+,1,4,3,0,1000,250.0,4,C25DV,69,train
848.9971160888672,3,1,5,4,0,2,H+,1,1,1,0,1000,250.0,1,C25DV,70,train
592.5798416137695,3,1,5,4,0,2,H+,1,5,2,0,1000,250.0,5,C25DV,71,train
1024.7700214385986,3,1,5,4,0,2,H+,0,2,5,0,1000,250.0,1,C25DV,72,train
624.992847442627,3,1,5,4,0,2,H+,1,1,1,0,1000,250.0,1,C25DV,73,train
928.9219379425049,3,1,5,4,0,2,H+,1,4,3,0,1000,250.0,4,C25DV,74,train
1118.5731887817383,3,1,5,4,0,2,H+,1,2,5,0,1000,250.0,2,C25DV,75,train
560.9982013702393,3,1,5,4,0,2,H+,1,5,2,0,1000,250.0,5,C25DV,76,train
880.479097366333,3,1,5,4,0,2,H+,1,4,3,0,1000,250.0,4,C25DV,77,train
2784.1670513153076,3,1,5,4,0,2,H+,1,3,0,0,1000,250.0,3,C25DV,78,train
960.9980583190918,3,1,5,4,0,2,H+,1,2,5,0,1000,250.0,2,C25DV,79,train
992.743968963623,3,1,5,4,0,2,H+,1,3,0,0,1000,250.0,3,C25DV,80,train
624.4010925292969,3,1,5,4,0,2,H+,1,1,1,0,1000,250.0,1,C25DV,81,train
544.7778701782227,3,1,5,4,0,2,H+,1,1,1,0,1000,250.0,1,C25DV,82,train
816.817045211792,3,1,5,4,0,2,H+,1,2,5,0,1000,250.0,2,C25DV,83,train
737.1189594268799,3,1,5,4,0,2,H+,1,1,1,0,1000,250.0,1,C25DV,84,train
656.8388938903809,3,1,5,4,0,2,H+,1,0,4,0,1000,250.0,0,C25DV,85,train
448.962926864624,3,1,5,4,0,2,H+,1,0,4,0,1000,250.0,0,C25DV,86,train
401.0128974914551,3,1,5,4,0,2,H+,1,0,4,0,1000,250.0,0,C25DV,87,train
513.1139755249023,3,1,5,4,0,2,H+,1,0,4,0,1000,250.0,0,C25DV,88,train
1104.8028469085693,3,1,5,4,0,2,H+,1,2,5,0,1000,250.0,2,C25DV,89,train
1008.997917175293,3,1,5,4,0,2,H+,1,4,3,0,1000,250.0,4,C25DV,90,train
1600.9891033172607,3,1,5,4,0,2,H+,1,3,0,0,1000,250.0,3,C25DV,91,train
478.7750244140625,3,1,5,4,0,2,H+,1,5,2,0,1000,250.0,5,C25DV,92,train
368.8328266143799,3,1,5,4,0,2,H+,1,0,4,0,1000,250.0,0,C25DV,93,train
449.1569995880127,3,1,5,4,0,2,H+,1,1,1,0,1000,250.0,1,C25DV,94,train
752.6471614837646,3,1,5,4,0,2,H+,1,2,5,0,1000,250.0,2,C25DV,95,train
540.1959419250488,3,1,5,4,0,2,H+,1,5,2,0,1000,250.0,5,C25DV,96,train
592.9749011993408,3,1,5,4,0,2,H+,1,1,1,0,1000,250.0,1,C25DV,97,train
496.68097496032715,3,1,5,4,0,2,H+,1,1,1,0,1000,250.0,1,C25DV,98,train
464.83302116394043,3,1,5,4,0,2,H+,1,5,2,0,1000,250.0,5,C25DV,99,train
433.1250190734863,3,1,5,4,0,2,H+,1,0,4,0,1000,250.0,0,C25DV,100,train
432.99317359924316,3,1,5,4,0,2,H+,1,5,2,0,1000,250.0,5,C25DV,101,train
382.51614570617676,3,1,5,4,0,2,H+,1,5,2,0,1000,250.0,5,C25DV,102,train
512.9570960998535,3,1,5,4,0,2,H+,1,1,1,0,1000,250.0,1,C25DV,103,train
480.5469512939453,3,1,5,4,0,2,H+,1,1,1,0,1000,250.0,1,C25DV,104,train
545.0108051300049,3,1,5,4,0,2,H+,1,4,3,0,1000,250.0,4,C25DV,105,train
638.6008262634277,3,1,5,4,0,2,H+,1,3,0,0,1000,250.0,3,C25DV,106,train
608.9391708374023,3,1,5,4,0,2,H+,1,0,4,0,1000,250.0,0,C25DV,107,train
1248.5179901123047,3,1,5,4,0,2,H+,1,3,0,0,1000,250.0,3,C25DV,108,train
592.9300785064697,3,1,5,4,0,2,H+,1,2,5,0,1000,250.0,2,C25DV,109,train
576.8589973449707,3,1,5,4,0,2,H+,1,1,1,0,1000,250.0,1,C25DV,110,train
640.7871246337891,3,1,5,4,0,2,H+,1,1,1,0,1000,250.0,1,C25DV,111,train
752.7568340301514,3,1,5,4,0,2,H+,1,2,5,0,1000,250.0,2,C25DV,112,train
1233.0129146575928,3,1,5,4,0,2,H+,1,4,3,0,1000,250.0,4,C25DV,113,train
704.8008441925049,3,1,5,4,0,2,H+,1,4,3,0,1000,250.0,4,C25DV,114,train
1056.5369129180908,3,1,5,4,0,2,H+,1,2,5,0,1000,250.0,2,C25DV,115,train
976.7730236053467,3,1,5,4,0,2,H+,1,4,3,0,1000,250.0,4,C25DV,116,train
560.819149017334,3,1,5,4,0,2,H+,1,5,2,0,1000,250.0,5,C25DV,117,train
800.800085067749,3,1,5,4,0,2,H+,1,0,4,0,1000,250.0,0,C25DV,118,train
1216.9671058654785,3,1,5,4,0,2,H+,1,3,0,0,1000,250.0,3,C25DV,119,train
576.7040252685547,3,1,5,4,0,2,H+,1,5,2,0,1000,250.0,5,C25DV,120,train
976.6960144042969,3,1,5,4,0,2,H+,1,0,4,0,1000,250.0,0,C25DV,121,train
848.6800193786621,3,1,5,4,0,2,H+,1,2,5,0,1000,250.0,2,C25DV,122,train
880.7380199432373,3,1,5,4,0,2,H+,1,4,3,0,1000,250.0,4,C25DV,123,train
1024.6529579162598,3,1,5,4,0,2,H+,1,2,5,0,1000,250.0,2,C25DV,124,train
592.9129123687744,3,1,5,4,0,2,H+,1,0,4,0,1000,250.0,0,C25DV,125,train
641.0939693450928,3,1,5,4,0,2,H+,1,1,1,0,1000,250.0,1,C25DV,126,train
992.821216583252,3,1,5,4,0,2,H+,1,3,0,0,1000,250.0,3,C25DV,127,train
848.876953125,3,1,5,4,0,2,H+,1,3,0,0,1000,250.0,3,C25DV,128,train
704.880952835083,3,1,5,4,0,2,H+,1,4,3,0,1000,250.0,4,C25DV,129,train
768.8760757446289,3,1,5,4,0,2,H+,1,1,1,0,1000,250.0,1,C25DV,130,train
976.9330024719238,3,1,5,4,0,2,H+,1,3,0,0,1000,250.0,3,C25DV,131,train
528.9621353149414,3,1,5,4,0,2,H+,1,0,4,0,1000,250.0,0,C25DV,132,train
528.9571285247803,3,1,5,4,0,2,H+,1,5,2,0,1000,250.0,5,C25DV,133,train
400.75182914733887,3,1,5,4,0,2,H+,1,5,2,0,1000,250.0,5,C25DV,134,train
1214.64204788208,3,1,5,4,0,2,H+,1,2,5,0,1000,250.0,2,C25DV,135,train
528.8610458374023,3,1,5,4,0,2,H+,1,5,2,0,1000,250.0,5,C25DV,136,train
1040.808916091919,3,1,5,4,0,2,H+,1,2,5,0,1000,250.0,2,C25DV,137,train
432.9540729522705,3,1,5,4,0,2,H+,1,2,5,0,1000,250.0,2,C25DV,138,train
528.8259983062744,3,1,5,4,0,2,H+,1,1,1,0,1000,250.0,1,C25DV,139,train
896.949052810669,3,1,5,4,0,2,H+,1,4,3,0,1000,250.0,4,C25DV,140,train
576.8730640411377,3,1,5,4,0,2,H+,1,0,4,0,1000,250.0,0,C25DV,141,train
561.0299110412598,3,1,5,4,0,2,H+,1,0,4,0,1000,250.0,0,C25DV,142,train
512.840986251831,3,1,5,4,0,2,H+,1,5,2,0,1000,250.0,5,C25DV,143,train
1120.8221912384033,3,1,5,4,0,2,H+,1,4,3,0,1000,250.0,4,C25DV,144,train
1216.7811393737793,3,1,5,4,0,2,H+,1,2,5,0,1000,250.0,2,C25DV,145,train
720.7331657409668,3,1,5,4,0,2,H+,0,3,0,0,1000,250.0,0,C25DV,146,train
814.5179748535156,3,1,5,4,0,2,H+,1,3,0,0,1000,250.0,3,C25DV,147,train
529.0420055389404,3,1,5,4,0,2,H+,1,5,2,0,1000,250.0,5,C25DV,148,train
992.7771091461182,3,1,5,4,0,2,H+,1,1,1,0,1000,250.0,1,C25DV,149,train
1040.5728816986084,3,1,5,4,0,2,H+,1,2,5,0,1000,250.0,2,C25DV,150,train
1216.8498039245605,3,1,5,4,0,2,H+,1,3,0,0,1000,250.0,3,C25DV,151,train
560.675859451294,3,1,5,4,0,2,H+,1,5,2,0,1000,250.0,5,C25DV,152,train
656.0268402099609,3,1,5,4,0,2,H+,1,0,4,0,1000,250.0,0,C25DV,153,train
1039.409875869751,3,1,5,4,0,2,H+,1,2,5,0,1000,250.0,2,C25DV,154,train
528.9080142974854,3,1,5,4,0,2,H+,1,5,2,0,1000,250.0,5,C25DV,155,train
928.196907043457,3,1,5,4,0,2,H+,1,4,3,0,1000,250.0,4,C25DV,156,train
1680.6418895721436,3,1,5,4,0,2,H+,1,3,0,0,1000,250.0,3,C25DV,157,train
832.6549530029297,3,1,5,4,0,2,H+,1,2,5,0,1000,250.0,2,C25DV,158,train
544.6150302886963,3,1,5,4,0,2,H+,1,0,4,0,1000,250.0,0,C25DV,159,train
800.7800579071045,3,1,5,4,0,2,H+,1,2,5,0,1000,250.0,2,C25DV,160,train
1072.551965713501,3,1,5,4,0,2,H+,1,4,3,0,1000,250.0,4,C25DV,161,train
592.9431915283203,3,1,5,4,0,2,H+,1,0,4,0,1000,250.0,0,C25DV,162,train
944.8897838592529,3,1,5,4,0,2,H+,1,3,0,0,1000,250.0,3,C25DV,163,train
657.0169925689697,3,1,5,4,0,2,H+,1,1,1,0,1000,250.0,1,C25DV,164,train
1329.010009765625,3,1,5,4,0,2,H+,1,3,0,0,1000,250.0,3,C25DV,165,train
640.5808925628662,3,1,5,4,0,2,H+,1,4,3,0,1000,250.0,4,C25DV,166,train
512.7081871032715,3,1,5,4,0,2,H+,1,0,4,0,1000,250.0,0,C25DV,167,train
897.7038860321045,3,1,5,4,0,2,H+,1,4,3,0,1000,250.0,4,C25DV,168,train
720.836877822876,3,1,5,4,0,2,H+,1,1,1,0,1000,250.0,1,C25DV,169,train
1152.6308059692383,3,1,5,4,0,2,H+,1,3,0,0,1000,250.0,3,C25DV,170,train
464.709997177124,3,1,5,4,0,2,H+,1,0,4,0,1000,250.0,0,C25DV,171,train
1040.8289432525635,3,1,5,4,0,2,H+,1,2,5,0,1000,250.0,2,C25DV,172,train
575.2542018890381,3,1,5,4,0,2,H+,1,5,2,0,1000,250.0,5,C25DV,173,train
464.72787857055664,3,1,5,4,0,2,H+,1,0,4,0,1000,250.0,0,C25DV,174,train
576.8289566040039,3,1,5,4,0,2,H+,1,3,0,0,1000,250.0,3,C25DV,175,train
608.7799072265625,3,1,5,4,0,2,H+,1,4,3,0,1000,250.0,4,C25DV,176,train
608.4628105163574,3,1,5,4,0,2,H+,0,2,5,0,1000,250.0,4,C25DV,177,train
608.7169647216797,3,1,5,4,0,2,H+,1,5,2,0,1000,250.0,5,C25DV,178,train
544.7399616241455,3,1,5,4,0,2,H+,1,5,2,0,1000,250.0,5,C25DV,179,train
928.8630485534668,3,1,5,4,0,2,H+,1,4,3,0,1000,250.0,4,C25DV,180,train
801.0308742523193,3,1,5,4,0,2,H+,1,4,3,0,1000,250.0,4,C25DV,181,train
480.90100288391113,3,1,5,4,0,2,H+,0,3,0,0,1000,250.0,2,C25DV,182,train
640.7558917999268,3,1,5,4,0,2,H+,1,0,4,0,1000,250.0,0,C25DV,183,train
560.8010292053223,3,1,5,4,0,2,H+,1,0,4,0,1000,250.0,0,C25DV,184,train
576.8029689788818,3,1,5,4,0,2,H+,1,1,1,0,1000,250.0,1,C25DV,185,train
1152.9150009155273,3,1,5,4,0,2,H+,1,3,0,0,1000,250.0,3,C25DV,186,train
832.8089714050293,3,1,5,4,0,2,H+,1,1,1,0,1000,250.0,1,C25DV,187,train
512.9148960113525,3,1,5,4,0,2,H+,1,5,2,0,1000,250.0,5,C25DV,188,train
432.7239990234375,3,1,5,4,0,2,H+,1,5,2,0,1000,250.0,5,C25DV,189,train
1120.574951171875,3,1,5,4,0,2,H+,1,2,5,0,1000,250.0,2,C25DV,190,train
496.88100814819336,3,1,5,4,0,2,H+,1,5,2,0,1000,250.0,5,C25DV,191,train
656.9509506225586,3,1,5,4,0,2,H+,1,0,4,0,1000,250.0,0,C25DV,192,train
608.4549427032471,3,1,5,4,0,2,H+,1,1,1,0,1000,250.0,1,C25DV,193,train
992.9192066192627,3,1,5,4,0,2,H+,1,3,0,0,1000,250.0,3,C25DV,194,train
512.8340721130371,3,1,5,4,0,2,H+,1,5,2,0,1000,250.0,5,C25DV,195,train
545.0019836425781,3,1,5,4,0,2,H+,1,1,1,0,1000,250.0,1,C25DV,196,train
912.4739170074463,3,1,5,4,0,2,H+,1,3,0,0,1000,250.0,3,C25DV,197,train
593.0070877075195,3,1,5,4,0,2,H+,1,1,1,0,1000,250.0,1,C25DV,198,train
496.8888759613037,3,1,5,4,0,2,H+,1,5,2,0,1000,250.0,5,C25DV,199,train
609.0681552886963,3,1,5,4,0,2,H+,1,1,1,0,1000,250.0,1,C25DV,200,train
656.4879417419434,3,1,5,4,0,2,H+,1,0,4,0,1000,250.0,0,C25DV,201,train
480.70788383483887,3,1,5,4,0,2,H+,1,5,2,0,1000,250.0,5,C25DV,202,train
1073.0040073394775,3,1,5,4,0,2,H+,1,4,3,0,1000,250.0,4,C25DV,203,train
512.7780437469482,3,1,5,4,0,2,H+,1,5,2,0,1000,250.0,5,C25DV,204,train
576.8687725067139,3,1,5,4,0,2,H+,1,1,1,0,1000,250.0,1,C25DV,205,train
544.802188873291,3,1,5,4,0,2,H+,1,1,1,0,1000,250.0,1,C25DV,206,train
416.6698455810547,3,1,5,4,0,2,H+,1,1,1,0,1000,250.0,1,C25DV,207,train
528.7299156188965,3,1,5,4,0,2,H+,1,5,2,0,1000,250.0,5,C25DV,208,train
576.9848823547363,3,1,5,4,0,2,H+,1,0,4,0,1000,250.0,0,C25DV,209,train
528.6779403686523,3,1,5,4,0,2,H+,1,1,1,0,1000,250.0,1,C25DV,210,train
864.8879528045654,3,1,5,4,0,2,H+,1,4,3,0,1000,250.0,4,C25DV,211,train
672.7550029754639,3,1,5,4,0,2,H+,1,4,3,0,1000,250.0,4,C25DV,212,train
736.8581295013428,3,1,5,4,0,2,H+,1,4,3,0,1000,250.0,4,C25DV,213,train
478.518009185791,3,1,5,4,0,2,H+,1,1,1,0,1000,250.0,1,C25DV,214,train
704.5211791992188,3,1,5,4,0,2,H+,1,2,5,0,1000,250.0,2,C25DV,215,train
800.9190559387207,3,1,5,4,0,2,H+,1,3,0,0,1000,250.0,3,C25DV,216,train
624.643087387085,3,1,5,4,0,2,H+,1,1,1,0,1000,250.0,1,C25DV,217,train
767.5909996032715,3,1,5,4,0,2,H+,1,4,3,0,1000,250.0,4,C25DV,218,train
623.953104019165,3,1,5,4,0,2,H+,1,1,1,0,1000,250.0,1,C25DV,219,train
496.98495864868164,3,1,5,4,0,2,H+,1,1,1,0,1000,250.0,1,C25DV,220,train
416.2559509277344,3,1,5,4,0,2,H+,1,1,1,0,1000,250.0,1,C25DV,221,train
720.8919525146484,3,1,5,4,0,2,H+,1,2,5,0,1000,250.0,2,C25DV,222,train
832.5610160827637,3,1,5,4,0,2,H+,1,3,0,0,1000,250.0,3,C25DV,223,train
960.4930877685547,3,1,5,4,0,2,H+,1,2,5,0,1000,250.0,2,C25DV,224,train
624.6750354766846,3,1,5,4,0,2,H+,1,1,1,0,1000,250.0,1,C25DV,225,train
944.7989463806152,3,1,5,4,0,2,H+,1,3,0,0,1000,250.0,3,C25DV,226,train
1072.8390216827393,3,1,5,4,0,2,H+,1,0,4,0,1000,250.0,0,C25DV,227,train
896.8510627746582,3,1,5,4,0,2,H+,1,4,3,0,1000,250.0,4,C25DV,228,train
912.9908084869385,3,1,5,4,0,2,H+,1,3,0,0,1000,250.0,3,C25DV,229,train
592.5860404968262,3,1,5,4,0,2,H+,1,2,5,0,1000,250.0,2,C25DV,230,train
561.03515625,3,1,5,4,0,2,H+,1,5,2,0,1000,250.0,5,C25DV,231,train
624.2241859436035,3,1,5,4,0,2,H+,1,3,0,0,1000,250.0,3,C25DV,232,train
672.9578971862793,3,1,5,4,0,2,H+,1,1,1,0,1000,250.0,1,C25DV,233,train
576.7550468444824,3,1,5,4,0,2,H+,1,0,4,0,1000,250.0,0,C25DV,234,train
560.9180927276611,3,1,5,4,0,2,H+,1,1,1,0,1000,250.0,1,C25DV,235,train
592.7979946136475,3,1,5,4,0,2,H+,1,0,4,0,1000,250.0,0,C25DV,236,train
704.8971652984619,3,1,5,4,0,2,H+,1,2,5,0,1000,250.0,2,C25DV,237,train
496.86503410339355,3,1,5,4,0,2,H+,1,1,1,0,1000,250.0,1,C25DV,238,train
608.5669994354248,3,1,5,4,0,2,H+,1,5,2,0,1000,250.0,5,C25DV,239,train
1200.8318901062012,3,1,5,4,0,2,H+,0,3,0,0,1000,250.0,4,C25DV,240,train
544.8000431060791,3,1,5,4,0,2,H+,1,5,2,0,1000,250.0,5,C25DV,241,train
864.7761344909668,3,1,5,4,0,2,H+,1,3,0,0,1000,250.0,3,C25DV,242,train
688.6670589447021,3,1,5,4,0,2,H+,1,2,5,0,1000,250.0,2,C25DV,243,train
608.9417934417725,3,1,5,4,0,2,H+,1,0,4,0,1000,250.0,0,C25DV,244,train
896.6028690338135,3,1,5,4,0,2,H+,1,3,0,0,1000,250.0,3,C25DV,245,train
592.8480625152588,3,1,5,4,0,2,H+,1,2,5,0,1000,250.0,2,C25DV,246,train
368.76392364501953,3,1,5,4,0,2,H+,1,4,3,0,1000,250.0,4,C25DV,247,train
448.72188568115234,3,1,5,4,0,2,H+,1,4,3,0,1000,250.0,4,C25DV,248,train
560.8971118927002,3,1,5,4,0,2,H+,1,1,1,0,1000,250.0,1,C25DV,249,train
1120.7630634307861,3,1,5,4,0,2,H+,1,1,1,0,1000,250.0,1,C25DV,250,test
959.2881202697754,3,1,5,4,0,2,H+,1,5,2,0,1000,250.0,5,C25DV,251,test
592.3850536346436,3,1,5,4,0,2,H+,1,5,2,0,1000,250.0,5,C25DV,252,test
400.5310535430908,3,1,5,4,0,2,H+,0,1,1,0,1000,250.0,5,C25DV,253,test
848.53196144104,3,1,5,4,0,2,H+,1,2,5,0,1000,250.0,2,C25DV,254,test
720.7200527191162,3,1,5,4,0,2,H+,1,2,5,0,1000,250.0,2,C25DV,255,test
864.3200397491455,3,1,5,4,0,2,H+,1,3,0,0,1000,250.0,3,C25DV,256,test
656.710147857666,3,1,5,4,0,2,H+,1,4,3,0,1000,250.0,4,C25DV,257,test
864.9508953094482,3,1,5,4,0,2,H+,1,2,5,0,1000,250.0,2,C25DV,258,test
560.6789588928223,3,1,5,4,0,2,H+,1,2,5,0,1000,250.0,2,C25DV,259,test
816.9300556182861,3,1,5,4,0,2,H+,1,4,3,0,1000,250.0,4,C25DV,260,test
544.929027557373,3,1,5,4,0,2,H+,1,1,1,0,1000,250.0,1,C25DV,261,test
576.862096786499,3,1,5,4,0,2,H+,1,0,4,0,1000,250.0,0,C25DV,262,test
496.57511711120605,3,1,5,4,0,2,H+,1,1,1,0,1000,250.0,1,C25DV,263,test
496.65307998657227,3,1,5,4,0,2,H+,1,1,1,0,1000,250.0,1,C25DV,264,test
720.8521366119385,3,1,5,4,0,2,H+,1,4,3,0,1000,250.0,4,C25DV,265,test
575.9110450744629,3,1,5,4,0,2,H+,1,0,4,0,1000,250.0,0,C25DV,266,test
496.7770576477051,3,1,5,4,0,2,H+,1,1,1,0,1000,250.0,1,C25DV,267,test
336.7588520050049,3,1,5,4,0,2,H+,1,1,1,0,1000,250.0,1,C25DV,268,test
2208.899974822998,3,1,5,4,0,2,H+,1,2,5,0,1000,250.0,2,C25DV,269,test
784.2299938201904,3,1,5,4,0,2,H+,0,3,0,0,1000,250.0,0,C25DV,270,test
753.0829906463623,3,1,5,4,0,2,H+,1,3,0,0,1000,250.0,3,C25DV,271,test
576.7230987548828,3,1,5,4,0,2,H+,1,1,1,0,1000,250.0,1,C25DV,272,test
864.7851943969727,3,1,5,4,0,2,H+,1,2,5,0,1000,250.0,2,C25DV,273,test
592.7431583404541,3,1,5,4,0,2,H+,1,5,2,0,1000,250.0,5,C25DV,274,test
641.1328315734863,3,1,5,4,0,2,H+,1,1,1,0,1000,250.0,1,C25DV,275,test
512.700080871582,3,1,5,4,0,2,H+,1,0,4,0,1000,250.0,0,C25DV,276,test
624.6299743652344,3,1,5,4,0,2,H+,1,4,3,0,1000,250.0,4,C25DV,277,test
576.8599510192871,3,1,5,4,0,2,H+,1,3,0,0,1000,250.0,3,C25DV,278,test
608.8399887084961,3,1,5,4,0,2,H+,1,0,4,0,1000,250.0,0,C25DV,279,test
496.80495262145996,3,1,5,4,0,2,H+,1,5,2,0,1000,250.0,5,C25DV,280,test
560.9228610992432,3,1,5,4,0,2,H+,1,0,4,0,1000,250.0,0,C25DV,281,test
897.2358703613281,3,1,5,4,0,2,H+,1,2,5,0,1000,250.0,2,C25DV,282,test
1025.109052658081,3,1,5,4,0,2,H+,1,4,3,0,1000,250.0,4,C25DV,283,test
544.5680618286133,3,1,5,4,0,2,H+,1,1,1,0,1000,250.0,1,C25DV,284,test
672.5220680236816,3,1,5,4,0,2,H+,0,2,5,0,1000,250.0,3,C25DV,285,test
480.5009365081787,3,1,5,4,0,2,H+,1,5,2,0,1000,250.0,5,C25DV,286,test
640.2909755706787,3,1,5,4,0,2,H+,1,1,1,0,1000,250.0,1,C25DV,287,test
688.6508464813232,3,1,5,4,0,2,H+,1,1,1,0,1000,250.0,1,C25DV,288,test
801.6641139984131,3,1,5,4,0,2,H+,1,4,3,0,1000,250.0,4,C25DV,289,test
384.6879005432129,3,1,5,4,0,2,H+,1,2,5,0,1000,250.0,2,C25DV,290,test
560.6231689453125,3,1,5,4,0,2,H+,1,5,2,0,1000,250.0,5,C25DV,291,test
656.8570137023926,3,1,5,4,0,2,H+,1,4,3,0,1000,250.0,4,C25DV,292,test
560.9040260314941,3,1,5,4,0,2,H+,1,5,2,0,1000,250.0,5,C25DV,293,test
624.7551441192627,3,1,5,4,0,2,H+,1,4,3,0,1000,250.0,4,C25DV,294,test
512.988805770874,3,1,5,4,0,2,H+,1,5,2,0,1000,250.0,5,C25DV,295,test
624.6778964996338,3,1,5,4,0,2,H+,1,0,4,0,1000,250.0,0,C25DV,296,test
720.6869125366211,3,1,5,4,0,2,H+,1,4,3,0,1000,250.0,4,C25DV,297,test
559.5731735229492,3,1,5,4,0,2,H+,1,4,3,0,1000,250.0,4,C25DV,298,test
640.8848762512207,3,1,5,4,0,2,H+,1,4,3,0,1000,250.0,4,C25DV,299,test
352.8590202331543,3,1,5,4,0,2,H+,1,4,3,0,1000,250.0,4,C25DV,300,test
1040.7860279083252,3,1,5,4,0,2,H+,1,2,5,0,1000,250.0,2,C25DV,301,test
512.768030166626,3,1,5,4,0,2,H+,1,1,1,0,1000,250.0,1,C25DV,302,test
448.5189914703369,3,1,5,4,0,2,H+,1,5,2,0,1000,250.0,5,C25DV,303,test
560.7478618621826,3,1,5,4,0,2,H+,1,0,4,0,1000,250.0,0,C25DV,304,test
575.1721858978271,3,1,5,4,0,2,H+,1,5,2,0,1000,250.0,5,C25DV,305,test
832.8859806060791,3,1,5,4,0,2,H+,1,0,4,0,1000,250.0,0,C25DV,306,test
992.8200244903564,3,1,5,4,0,2,H+,1,2,5,0,1000,250.0,2,C25DV,307,test
784.7349643707275,3,1,5,4,0,2,H+,1,3,0,0,1000,250.0,3,C25DV,308,test
544.7280406951904,3,1,5,4,0,2,H+,1,5,2,0,1000,250.0,5,C25DV,309,test
880.8588981628418,3,1,5,4,0,2,H+,1,2,5,0,1000,250.0,2,C25DV,310,test
464.9178981781006,3,1,5,4,0,2,H+,1,5,2,0,1000,250.0,5,C25DV,311,test
592.8211212158203,3,1,5,4,0,2,H+,1,0,4,0,1000,250.0,0,C25DV,312,test
480.52191734313965,3,1,5,4,0,2,H+,1,0,4,0,1000,250.0,0,C25DV,313,test
928.8020133972168,3,1,5,4,0,2,H+,1,2,5,0,1000,250.0,2,C25DV,314,test
512.7170085906982,3,1,5,4,0,2,H+,1,1,1,0,1000,250.0,1,C25DV,315,test
432.0869445800781,3,1,5,4,0,2,H+,1,1,1,0,1000,250.0,1,C25DV,316,test
656.7869186401367,3,1,5,4,0,2,H+,1,4,3,0,1000,250.0,4,C25DV,317,test
368.6800003051758,3,1,5,4,0,2,H+,1,4,3,0,1000,250.0,4,C25DV,318,test
367.2060966491699,3,1,5,4,0,2,H+,1,4,3,0,1000,250.0,4,C25DV,319,test
544.8141098022461,3,1,5,4,0,2,H+,1,1,1,0,1000,250.0,1,C25DV,320,test
863.588809967041,3,1,5,4,0,2,H+,1,3,0,0,1000,250.0,3,C25DV,321,test
544.543981552124,3,1,5,4,0,2,H+,1,1,1,0,1000,250.0,1,C25DV,322,test
816.6220188140869,3,1,5,4,0,2,H+,1,3,0,0,1000,250.0,3,C25DV,323,test
592.8440093994141,3,1,5,4,0,2,H+,1,0,4,0,1000,250.0,0,C25DV,324,test
560.7070922851562,3,1,5,4,0,2,H+,0,1,1,0,1000,250.0,2,C25DV,325,test
960.2470397949219,3,1,5,4,0,2,H+,1,2,5,0,1000,250.0,2,C25DV,326,test
528.4349918365479,3,1,5,4,0,2,H+,1,5,2,0,1000,250.0,5,C25DV,327,test
512.829065322876,3,1,5,4,0,2,H+,1,5,2,0,1000,250.0,5,C25DV,328,test
688.788890838623,3,1,5,4,0,2,H+,1,4,3,0,1000,250.0,4,C25DV,329,test
1056.993007659912,3,1,5,4,0,2,H+,1,3,0,0,1000,250.0,3,C25DV,330,test
512.7589702606201,3,1,5,4,0,2,H+,1,2,5,0,1000,250.0,2,C25DV,331,test
528.4268856048584,3,1,5,4,0,2,H+,1,2,5,0,1000,250.0,2,C25DV,332,test
480.9432029724121,3,1,5,4,0,2,H+,1,3,0,0,1000,250.0,3,C25DV,333,test
416.87798500061035,3,1,5,4,0,2,H+,1,3,0,0,1000,250.0,3,C25DV,334,test
608.1581115722656,3,1,5,4,0,2,H+,1,2,5,0,1000,250.0,2,C25DV,335,test
432.88397789001465,3,1,5,4,0,2,H+,1,4,3,0,1000,250.0,4,C25DV,336,test
608.7360382080078,3,1,5,4,0,2,H+,1,3,0,0,1000,250.0,3,C25DV,337,test
640.753984451294,3,1,5,4,0,2,H+,1,1,1,0,1000,250.0,1,C25DV,338,test
560.9331130981445,3,1,5,4,0,2,H+,1,4,3,0,1000,250.0,4,C25DV,339,test
800.9588718414307,3,1,5,4,0,2,H+,1,2,5,0,1000,250.0,2,C25DV,340,test
576.8399238586426,3,1,5,4,0,2,H+,1,5,2,0,1000,250.0,5,C25DV,341,test
560.917854309082,3,1,5,4,0,2,H+,1,0,4,0,1000,250.0,0,C25DV,342,test
1247.352123260498,3,1,5,4,0,2,H+,1,3,0,0,1000,250.0,3,C25DV,343,test
654.6859741210938,3,1,5,4,0,2,H+,1,5,2,0,1000,250.0,5,C25DV,344,test
640.8309936523438,3,1,5,4,0,2,H+,1,1,1,0,1000,250.0,1,C25DV,345,test
321.382999420166,3,1,5,4,0,2,H+,1,4,3,0,1000,250.0,4,C25DV,346,test
752.7351379394531,3,1,5,4,0,2,H+,1,2,5,0,1000,250.0,2,C25DV,347,test
336.66300773620605,3,1,5,4,0,2,H+,1,3,0,0,1000,250.0,3,C25DV,348,test
464.461088180542,3,1,5,4,0,2,H+,1,5,2,0,1000,250.0,5,C25DV,349,test
560.7759952545166,3,1,5,4,0,2,H+,1,2,5,0,1000,250.0,2,C25DV,350,test
432.8320026397705,3,1,5,4,0,2,H+,1,2,5,0,1000,250.0,2,C25DV,351,test
608.0489158630371,3,1,5,4,0,2,H+,1,0,4,0,1000,250.0,0,C25DV,352,test
512.7620697021484,3,1,5,4,0,2,H+,1,0,4,0,1000,250.0,0,C25DV,353,test
496.95801734924316,3,1,5,4,0,2,H+,1,2,5,0,1000,250.0,2,C25DV,354,test
496.4749813079834,3,1,5,4,0,2,H+,1,3,0,0,1000,250.0,3,C25DV,355,test
462.5999927520752,3,1,5,4,0,2,H+,1,3,0,0,1000,250.0,3,C25DV,356,test
480.23414611816406,3,1,5,4,0,2,H+,1,5,2,0,1000,250.0,5,C25DV,357,test
463.81115913391113,3,1,5,4,0,2,H+,1,0,4,0,1000,250.0,0,C25DV,358,test
624.8857975006104,3,1,5,4,0,2,H+,1,1,1,0,1000,250.0,1,C25DV,359,test
542.4270629882812,3,1,5,4,0,2,H+,1,3,0,0,1000,250.0,3,C25DV,360,test
544.7959899902344,3,1,5,4,0,2,H+,1,4,3,0,1000,250.0,4,C25DV,361,test
576.9679546356201,3,1,5,4,0,2,H+,1,1,1,0,1000,250.0,1,C25DV,362,test
575.9239196777344,3,1,5,4,0,2,H+,1,1,1,0,1000,250.0,1,C25DV,363,test
528.7959575653076,3,1,5,4,0,2,H+,0,4,3,0,1000,250.0,3,C25DV,364,test
528.839111328125,3,1,5,4,0,2,H+,1,1,1,0,1000,250.0,1,C25DV,365,test
1344.6969985961914,3,1,5,4,0,2,H+,1,2,5,0,1000,250.0,2,C25DV,366,test
656.965970993042,3,1,5,4,0,2,H+,1,3,0,0,1000,250.0,3,C25DV,367,test
495.73302268981934,3,1,5,4,0,2,H+,1,4,3,0,1000,250.0,4,C25DV,368,test
608.8399887084961,3,1,5,4,0,2,H+,1,5,2,0,1000,250.0,5,C25DV,369,test
464.7359848022461,3,1,5,4,0,2,H+,1,5,2,0,1000,250.0,5,C25DV,370,test
496.3529109954834,3,1,5,4,0,2,H+,1,4,3,0,1000,250.0,4,C25DV,371,test
479.8450469970703,3,1,5,4,0,2,H+,1,5,2,0,1000,250.0,5,C25DV,372,test
688.3068084716797,3,1,5,4,0,2,H+,1,4,3,0,1000,250.0,4,C25DV,373,test
544.7309017181396,3,1,5,4,0,2,H+,1,1,1,0,1000,250.0,1,C25DV,374,test
896.7959880828857,3,1,5,4,0,2,H+,1,2,5,0,1000,250.0,2,C25DV,375,test
672.7471351623535,3,1,5,4,0,2,H+,1,3,0,0,1000,250.0,3,C25DV,376,test
721.1601734161377,3,1,5,4,0,2,H+,1,2,5,0,1000,250.0,2,C25DV,377,test
640.8610343933105,3,1,5,4,0,2,H+,1,0,4,0,1000,250.0,0,C25DV,378,test
528.8369655609131,3,1,5,4,0,2,H+,1,0,4,0,1000,250.0,0,C25DV,379,test
576.9369602203369,3,1,5,4,0,2,H+,1,0,4,0,1000,250.0,0,C25DV,380,test
592.5049781799316,3,1,5,4,0,2,H+,1,5,2,0,1000,250.0,5,C25DV,381,test
480.8058738708496,3,1,5,4,0,2,H+,1,5,2,0,1000,250.0,5,C25DV,382,test
655.2588939666748,3,1,5,4,0,2,H+,1,1,1,0,1000,250.0,1,C25DV,383,test
1088.8500213623047,3,1,5,4,0,2,H+,1,3,0,0,1000,250.0,3,C25DV,384,test
864.6481037139893,3,1,5,4,0,2,H+,1,2,5,0,1000,250.0,2,C25DV,385,test
721.2438583374023,3,1,5,4,0,2,H+,1,3,0,0,1000,250.0,3,C25DV,386,test
704.7388553619385,3,1,5,4,0,2,H+,1,0,4,0,1000,250.0,0,C25DV,387,test
560.7750415802002,3,1,5,4,0,2,H+,1,0,4,0,1000,250.0,0,C25DV,388,test
960.913896560669,3,1,5,4,0,2,H+,1,4,3,0,1000,250.0,4,C25DV,389,test
528.810977935791,3,1,5,4,0,2,H+,1,0,4,0,1000,250.0,0,C25DV,390,test
462.7268314361572,3,1,5,4,0,2,H+,1,5,2,0,1000,250.0,5,C25DV,391,test
512.7370357513428,3,1,5,4,0,2,H+,1,1,1,0,1000,250.0,1,C25DV,392,test
512.8450393676758,3,1,5,4,0,2,H+,1,4,3,0,1000,250.0,4,C25DV,393,test
704.4000625610352,3,1,5,4,0,2,H+,1,2,5,0,1000,250.0,2,C25DV,394,test
592.4830436706543,3,1,5,4,0,2,H+,1,1,1,0,1000,250.0,1,C25DV,395,test
544.7390079498291,3,1,5,4,0,2,H+,1,3,0,0,1000,250.0,3,C25DV,396,test
480.64184188842773,3,1,5,4,0,2,H+,1,2,5,0,1000,250.0,2,C25DV,397,test
464.63704109191895,3,1,5,4,0,2,H+,1,4,3,0,1000,250.0,4,C25DV,398,test
815.2689933776855,3,1,5,4,0,2,H+,1,2,5,0,1000,250.0,2,C25DV,399,test
1041.0621166229248,3,1,5,4,0,2,H+,1,2,5,0,1000,250.0,2,C25DV,400,test
560.6429576873779,3,1,5,4,0,2,H+,1,4,3,0,1000,250.0,4,C25DV,401,test
448.09412956237793,3,1,5,4,0,2,H+,1,3,0,0,1000,250.0,3,C25DV,402,test
496.9210624694824,3,1,5,4,0,2,H+,1,1,1,0,1000,250.0,1,C25DV,403,test
656.0111045837402,3,1,5,4,0,2,H+,1,1,1,0,1000,250.0,1,C25DV,404,test
606.7609786987305,3,1,5,4,0,2,H+,1,0,4,0,1000,250.0,0,C25DV,405,test
592.6339626312256,3,1,5,4,0,2,H+,1,5,2,0,1000,250.0,5,C25DV,406,test
992.9521083831787,3,1,5,4,0,2,H+,1,2,5,0,1000,250.0,2,C25DV,407,test
560.6188774108887,3,1,5,4,0,2,H+,1,5,2,0,1000,250.0,5,C25DV,408,test
560.9879493713379,3,1,5,4,0,2,H+,1,0,4,0,1000,250.0,0,C25DV,409,test
527.6648998260498,3,1,5,4,0,2,H+,1,1,1,0,1000,250.0,1,C25DV,410,test
624.8641014099121,3,1,5,4,0,2,H+,1,0,4,0,1000,250.0,0,C25DV,411,test
593.0089950561523,3,1,5,4,0,2,H+,1,4,3,0,1000,250.0,4,C25DV,412,test
480.87191581726074,3,1,5,4,0,2,H+,1,4,3,0,1000,250.0,4,C25DV,413,test
528.264045715332,3,1,5,4,0,2,H+,1,5,2,0,1000,250.0,5,C25DV,414,test
528.8798809051514,3,1,5,4,0,2,H+,1,1,1,0,1000,250.0,1,C25DV,415,test
816.7269229888916,3,1,5,4,0,2,H+,1,3,0,0,1000,250.0,3,C25DV,416,test
512.3140811920166,3,1,5,4,0,2,H+,1,1,1,0,1000,250.0,1,C25DV,417,test
528.7659168243408,3,1,5,4,0,2,H+,1,4,3,0,1000,250.0,4,C25DV,418,test
672.8389263153076,3,1,5,4,0,2,H+,1,3,0,0,1000,250.0,3,C25DV,419,test
576.7598152160645,3,1,5,4,0,2,H+,1,0,4,0,1000,250.0,0,C25DV,420,test
512.9551887512207,3,1,5,4,0,2,H+,1,1,1,0,1000,250.0,1,C25DV,421,test
416.7490005493164,3,1,5,4,0,2,H+,0,1,1,0,1000,250.0,2,C25DV,422,test
624.4871616363525,3,1,5,4,0,2,H+,1,3,0,0,1000,250.0,3,C25DV,423,test
496.89483642578125,3,1,5,4,0,2,H+,1,4,3,0,1000,250.0,4,C25DV,424,test
608.579158782959,3,1,5,4,0,2,H+,1,2,5,0,1000,250.0,2,C25DV,425,test
560.9781742095947,3,1,5,4,0,2,H+,0,5,2,0,1000,250.0,4,C25DV,426,test
608.8268756866455,3,1,5,4,0,2,H+,1,1,1,0,1000,250.0,1,C25DV,427,test
528.5818576812744,3,1,5,4,0,2,H+,1,5,2,0,1000,250.0,5,C25DV,428,test
512.9261016845703,3,1,5,4,0,2,H+,1,0,4,0,1000,250.0,0,C25DV,429,test
544.1868305206299,3,1,5,4,0,2,H+,1,4,3,0,1000,250.0,4,C25DV,430,test
624.748945236206,3,1,5,4,0,2,H+,1,1,1,0,1000,250.0,1,C25DV,431,test
496.70886993408203,3,1,5,4,0,2,H+,1,5,2,0,1000,250.0,5,C25DV,432,test
528.6078453063965,3,1,5,4,0,2,H+,1,0,4,0,1000,250.0,0,C25DV,433,test
592.8530693054199,3,1,5,4,0,2,H+,1,1,1,0,1000,250.0,1,C25DV,434,test
960.7269763946533,3,1,5,4,0,2,H+,1,4,3,0,1000,250.0,4,C25DV,435,test
544.9130535125732,3,1,5,4,0,2,H+,1,0,4,0,1000,250.0,0,C25DV,436,test
1072.53098487854,3,1,5,4,0,2,H+,1,2,5,0,1000,250.0,2,C25DV,437,test
368.6830997467041,3,1,5,4,0,2,H+,1,3,0,0,1000,250.0,3,C25DV,438,test
558.5699081420898,3,1,5,4,0,2,H+,1,3,0,0,1000,250.0,3,C25DV,439,test
654.304027557373,3,1,5,4,0,2,H+,1,0,4,0,1000,250.0,0,C25DV,440,test
622.5290298461914,3,1,5,4,0,2,H+,1,0,4,0,1000,250.0,0,C25DV,441,test
528.4669399261475,3,1,5,4,0,2,H+,1,5,2,0,1000,250.0,5,C25DV,442,test
480.53908348083496,3,1,5,4,0,2,H+,1,1,1,0,1000,250.0,1,C25DV,443,test
608.6621284484863,3,1,5,4,0,2,H+,1,0,4,0,1000,250.0,0,C25DV,444,test
464.79296684265137,3,1,5,4,0,2,H+,1,5,2,0,1000,250.0,5,C25DV,445,test
529.0400981903076,3,1,5,4,0,2,H+,1,1,1,0,1000,250.0,1,C25DV,446,test
1008.7900161743164,3,1,5,4,0,2,H+,1,2,5,0,1000,250.0,2,C25DV,447,test
416.92399978637695,3,1,5,4,0,2,H+,1,2,5,0,1000,250.0,2,C25DV,448,test
1120.8539009094238,3,1,5,4,0,2,H+,1,4,3,0,1000,250.0,4,C25DV,449,test
544.1200733184814,3,1,5,4,0,2,H+,1,5,2,0,1000,250.0,5,C25DV,450,test
608.8201999664307,3,1,5,4,0,2,H+,1,1,1,0,1000,250.0,1,C25DV,451,test
625.054121017456,3,1,5,4,0,2,H+,1,4,3,0,1000,250.0,4,C25DV,452,test
496.9289302825928,3,1,5,4,0,2,H+,1,4,3,0,1000,250.0,4,C25DV,453,test
448.6839771270752,3,1,5,4,0,2,H+,1,4,3,0,1000,250.0,4,C25DV,454,test
480.85498809814453,3,1,5,4,0,2,H+,1,1,1,0,1000,250.0,1,C25DV,455,test
528.7210941314697,3,1,5,4,0,2,H+,1,5,2,0,1000,250.0,5,C25DV,456,test
400.56610107421875,3,1,5,4,0,2,H+,1,5,2,0,1000,250.0,5,C25DV,457,test
768.852949142456,3,1,5,4,0,2,H+,1,2,5,0,1000,250.0,2,C25DV,458,test
640.7718658447266,3,1,5,4,0,2,H+,1,3,0,0,1000,250.0,3,C25DV,459,test
672.6880073547363,3,1,5,4,0,2,H+,1,4,3,0,1000,250.0,4,C25DV,460,test
832.542896270752,3,1,5,4,0,2,H+,1,2,5,0,1000,250.0,2,C25DV,461,test
576.8721103668213,3,1,5,4,0,2,H+,1,5,2,0,1000,250.0,5,C25DV,462,test
752.9339790344238,3,1,5,4,0,2,H+,1,2,5,0,1000,250.0,2,C25DV,463,test
576.6110420227051,3,1,5,4,0,2,H+,1,1,1,0,1000,250.0,1,C25DV,464,test
560.7938766479492,3,1,5,4,0,2,H+,1,4,3,0,1000,250.0,4,C25DV,465,test
448.84610176086426,3,1,5,4,0,2,H+,1,4,3,0,1000,250.0,4,C25DV,466,test
816.8559074401855,3,1,5,4,0,2,H+,1,2,5,0,1000,250.0,2,C25DV,467,test
608.5700988769531,3,1,5,4,0,2,H+,1,3,0,0,1000,250.0,3,C25DV,468,test
560.1789951324463,3,1,5,4,0,2,H+,1,5,2,0,1000,250.0,5,C25DV,469,test
592.6780700683594,3,1,5,4,0,2,H+,1,4,3,0,1000,250.0,4,C25DV,470,test
544.4090366363525,3,1,5,4,0,2,H+,1,4,3,0,1000,250.0,4,C25DV,471,test
559.6239566802979,3,1,5,4,0,2,H+,1,5,2,0,1000,250.0,5,C25DV,472,test
624.8700618743896,3,1,5,4,0,2,H+,1,5,2,0,1000,250.0,5,C25DV,473,test
640.6641006469727,3,1,5,4,0,2,H+,1,0,4,0,1000,250.0,0,C25DV,474,test
512.9101276397705,3,1,5,4,0,2,H+,1,1,1,0,1000,250.0,1,C25DV,475,test
576.9760608673096,3,1,5,4,0,2,H+,1,4,3,0,1000,250.0,4,C25DV,476,test
480.618953704834,3,1,5,4,0,2,H+,1,0,4,0,1000,250.0,0,C25DV,477,test
368.86119842529297,3,1,5,4,0,2,H+,1,0,4,0,1000,250.0,0,C25DV,478,test
608.7298393249512,3,1,5,4,0,2,H+,1,5,2,0,1000,250.0,5,C25DV,479,test
480.84211349487305,3,1,5,4,0,2,H+,1,1,1,0,1000,250.0,1,C25DV,480,test
464.8468494415283,3,1,5,4,0,2,H+,1,4,3,0,1000,250.0,4,C25DV,481,test
544.7821617126465,3,1,5,4,0,2,H+,0,0,4,0,1000,250.0,2,C25DV,482,test
480.95202445983887,3,1,5,4,0,2,H+,1,5,2,0,1000,250.0,5,C25DV,483,test
576.941967010498,3,1,5,4,0,2,H+,1,1,1,0,1000,250.0,1,C25DV,484,test
592.5741195678711,3,1,5,4,0,2,H+,0,3,0,0,1000,250.0,0,C25DV,485,test
656.5840244293213,3,1,5,4,0,2,H+,1,4,3,0,1000,250.0,4,C25DV,486,test
544.9249744415283,3,1,5,4,0,2,H+,1,1,1,0,1000,250.0,1,C25DV,487,test
560.7039928436279,3,1,5,4,0,2,H+,1,4,3,0,1000,250.0,4,C25DV,488,test
833.0049514770508,3,1,5,4,0,2,H+,1,2,5,0,1000,250.0,2,C25DV,489,test
624.7649192810059,3,1,5,4,0,2,H+,1,4,3,0,1000,250.0,4,C25DV,490,test
528.8801193237305,3,1,5,4,0,2,H+,1,4,3,0,1000,250.0,4,C25DV,491,test
1104.8779487609863,3,1,5,4,0,2,H+,1,3,0,0,1000,250.0,3,C25DV,492,test
592.4417972564697,3,1,5,4,0,2,H+,1,4,3,0,1000,250.0,4,C25DV,493,test
416.719913482666,3,1,5,4,0,2,H+,1,5,2,0,1000,250.0,5,C25DV,494,test
480.802059173584,3,1,5,4,0,2,H+,1,4,3,0,1000,250.0,4,C25DV,495,test
560.7349872589111,3,1,5,4,0,2,H+,1,0,4,0,1000,250.0,0,C25DV,496,test
576.4148235321045,3,1,5,4,0,2,H+,1,3,0,0,1000,250.0,3,C25DV,497,test
512.9590034484863,3,1,5,4,0,2,H+,1,5,2,0,1000,250.0,5,C25DV,498,test
816.8749809265137,3,1,5,4,0,2,H+,1,0,4,0,1000,250.0,0,C25DV,499,test
