RT,SRmap_0,SRmap_1,SRmap_2,SRmap_3,SRmap_4,SRmap_5,condition,correct,correct_response,curstim,ms-precue,ms-prestimblank,ntrials,response,subject,trial,type
1424.8499870300293,2,4,1,3,5,0,H+,1,3,3,0,1000,250.0,3,C31MC,0,train
1368.584156036377,2,4,1,3,5,0,H+,1,2,0,0,1000,250.0,2,C31MC,1,train
1071.425199508667,2,4,1,3,5,0,H+,1,0,5,0,1000,250.0,0,C31MC,2,train
960.9038829803467,2,4,1,3,5,0,H+,1,0,5,0,1000,250.0,0,C31MC,3,train
640.7999992370605,2,4,1,3,5,0,H+,1,0,5,0,1000,250.0,0,C31MC,4,train
512.7971172332764,2,4,1,3,5,0,H+,1,0,5,0,1000,250.0,0,C31MC,5,train
1025.4480838775635,2,4,1,3,5,0,H+,1,2,0,0,1000,250.0,2,C31MC,6,train
592.8030014038086,2,4,1,3,5,0,H+,1,0,5,0,1000,250.0,0,C31MC,7,train
816.9219493865967,2,4,1,3,5,0,H+,1,3,3,0,1000,250.0,3,C31MC,8,train
865.0269508361816,2,4,1,3,5,0,H+,1,2,0,0,1000,250.0,2,C31MC,9,train
944.3960189819336,2,4,1,3,5,0,H+,1,2,0,0,1000,250.0,2,C31MC,10,train
1328.3820152282715,2,4,1,3,5,0,H+,1,5,4,0,1000,250.0,5,C31MC,11,train
672.888994216919,2,4,1,3,5,0,H+,1,0,5,0,1000,250.0,0,C31MC,12,train
481.1980724334717,2,4,1,3,5,0,H+,1,0,5,0,1000,250.0,0,C31MC,13,train
657.0611000061035,2,4,1,3,5,0,H+,1,3,3,0,1000,250.0,3,C31MC,14,train
752.2199153900146,2,4,1,3,5,0,H+,1,5,4,0,1000,250.0,5,C31MC,15,train
608.4511280059814,2,4,1,3,5,0,H+,1,4,1,0,1000,250.0,4,C31MC,16,train
896.5919017791748,2,4,1,3,5,0,H+,1,2,0,0,1000,250.0,2,C31MC,17,train
672.5928783416748,2,4,1,3,5,0,H+,1,5,4,0,1000,250.0,5,C31MC,18,train
672.9960441589355,2,4,1,3,5,0,H+,1,1,2,0,1000,250.0,1,C31MC,19,train
769.0401077270508,2,4,1,3,5,0,H+,1,3,3,0,1000,250.0,3,C31MC,20,train
448.7619400024414,2,4,1,3,5,0,H+,1,0,5,0,1000,250.0,0,C31MC,21,train
705.0540447235107,2,4,1,3,5,0,H+,1,5,4,0,1000,250.0,5,C31MC,22,train
462.7490043640137,2,4,1,3,5,0,H+,1,5,4,0,1000,250.0,5,C31MC,23,train
688.2731914520264,2,4,1,3,5,0,H+,1,1,2,0,1000,250.0,1,C31MC,24,train
625.1780986785889,2,4,1,3,5,0,H+,1,4,1,0,1000,250.0,4,C31MC,25,train
686.4159107208252,2,4,1,3,5,0,H+,1,4,1,0,1000,250.0,4,C31MC,26,train
624.0379810333252,2,4,1,3,5,0,H+,1,1,2,0,1000,250.0,1,C31MC,27,train
737.0109558105469,2,4,1,3,5,0,H+,1,3,3,0,1000,250.0,3,C31MC,28,train
1281.1369895935059,2,4,1,3,5,0,H+,1,4,1,0,1000,250.0,4,C31MC,29,train
576.6849517822266,2,4,1,3,5,0,H+,1,1,2,0,1000,250.0,1,C31MC,30,train
576.8389701843262,2,4,1,3,5,0,H+,1,5,4,0,1000,250.0,5,C31MC,31,train
800.6510734558105,2,4,1,3,5,0,H+,1,1,2,0,1000,250.0,1,C31MC,32,train
992.4349784851074,2,4,1,3,5,0,H+,1,2,0,0,1000,250.0,2,C31MC,33,train
576.8210887908936,2,4,1,3,5,0,H+,1,3,3,0,1000,250.0,3,C31MC,34,train
480.24582862854004,2,4,1,3,5,0,H+,1,0,5,0,1000,250.0,0,C31MC,35,train
800.8561134338379,2,4,1,3,5,0,H+,1,2,0,0,1000,250.0,2,C31MC,36,train
593.0759906768799,2,4,1,3,5,0,H+,1,1,2,0,1000,250.0,1,C31MC,37,train
1152.9641151428223,2,4,1,3,5,0,H+,1,2,0,0,1000,250.0,2,C31MC,38,train
1169.1009998321533,2,4,1,3,5,0,H+,1,0,5,0,1000,250.0,0,C31MC,39,train
639.0900611877441,2,4,1,3,5,0,H+,1,5,4,0,1000,250.0,5,C31MC,40,train
720.6239700317383,2,4,1,3,5,0,H+,1,2,0,0,1000,250.0,2,C31MC,41,train
497.1480369567871,2,4,1,3,5,0,H+,1,2,0,0,1000,250.0,2,C31MC,42,train
592.3900604248047,2,4,1,3,5,0,H+,1,1,2,0,1000,250.0,1,C31MC,43,train
576.4648914337158,2,4,1,3,5,0,H+,1,4,1,0,1000,250.0,4,C31MC,44,train
561.1519813537598,2,4,1,3,5,0,H+,1,4,1,0,1000,250.0,4,C31MC,45,train
592.8630828857422,2,4,1,3,5,0,H+,1,5,4,0,1000,250.0,5,C31MC,46,train
704.7851085662842,2,4,1,3,5,0,H+,1,2,0,0,1000,250.0,2,C31MC,47,train
496.722936630249,2,4,1,3,5,0,H+,1,5,4,0,1000,250.0,5,C31MC,48,train
592.3049449920654,2,4,1,3,5,0,H+,1,2,0,0,1000,250.0,2,C31MC,49,train
512.7580165863037,2,4,1,3,5,0,H+,1,1,2,0,1000,250.0,1,C31MC,50,train
545.1560020446777,2,4,1,3,5,0,H+,1,1,2,0,1000,250.0,1,C31MC,51,train
528.5749435424805,2,4,1,3,5,0,H+,1,0,5,0,1000,250.0,0,C31MC,52,train
480.75199127197266,2,4,1,3,5,0,H+,1,5,4,0,1000,250.0,5,C31MC,53,train
929.0270805358887,2,4,1,3,5,0,H+,1,3,3,0,1000,250.0,3,C31MC,54,train
624.2241859436035,2,4,1,3,5,0,H+,1,2,0,0,1000,250.0,2,C31MC,55,train
545.5589294433594,2,4,1,3,5,0,H+,1,1,2,0,1000,250.0,1,C31MC,56,train
560.3880882263184,2,4,1,3,5,0,H+,0,3,3,0,1000,250.0,0,C31MC,57,train
512.9690170288086,2,4,1,3,5,0,H+,1,5,4,0,1000,250.0,5,C31MC,58,train
688.4639263153076,2,4,1,3,5,0,H+,1,3,3,0,1000,250.0,3,C31MC,59,train
560.5089664459229,2,4,1,3,5,0,H+,1,5,4,0,1000,250.0,5,C31MC,60,train
497.0672130584717,2,4,1,3,5,0,H+,0,0,5,0,1000,250.0,2,C31MC,61,train
640.6729221343994,2,4,1,3,5,0,H+,1,5,4,0,1000,250.0,5,C31MC,62,train
768.3920860290527,2,4,1,3,5,0,H+,1,4,1,0,1000,250.0,4,C31MC,63,train
497.0431327819824,2,4,1,3,5,0,H+,1,1,2,0,1000,250.0,1,C31MC,64,train
561.028003692627,2,4,1,3,5,0,H+,1,1,2,0,1000,250.0,1,C31MC,65,train
545.2060699462891,2,4,1,3,5,0,H+,1,3,3,0,1000,250.0,3,C31MC,66,train
480.70406913757324,2,4,1,3,5,0,H+,1,3,3,0,1000,250.0,3,C31MC,67,train
561.0189437866211,2,4,1,3,5,0,H+,1,5,4,0,1000,250.0,5,C31MC,68,train
640.794038772583,2,4,1,3,5,0,H+,1,3,3,0,1000,250.0,3,C31MC,69,train
544.9919700622559,2,4,1,3,5,0,H+,1,2,0,0,1000,250.0,2,C31MC,70,train
545.0408458709717,2,4,1,3,5,0,H+,1,1,2,0,1000,250.0,1,C31MC,71,train
1024.0061283111572,2,4,1,3,5,0,H+,1,2,0,0,1000,250.0,2,C31MC,72,train
464.48802947998047,2,4,1,3,5,0,H+,1,5,4,0,1000,250.0,5,C31MC,73,train
673.1278896331787,2,4,1,3,5,0,H+,1,1,2,0,1000,250.0,1,C31MC,74,train
337.10408210754395,2,4,1,3,5,0,H+,1,0,5,0,1000,250.0,0,C31MC,75,train
400.77900886535645,2,4,1,3,5,0,H+,1,0,5,0,1000,250.0,0,C31MC,76,train
497.039794921875,2,4,1,3,5,0,H+,1,3,3,0,1000,250.0,3,C31MC,77,train
848.3760356903076,2,4,1,3,5,0,H+,1,1,2,0,1000,250.0,1,C31MC,78,train
785.4290008544922,2,4,1,3,5,0,H+,1,3,3,0,1000,250.0,3,C31MC,79,train
368.87407302856445,2,4,1,3,5,0,H+,1,3,3,0,1000,250.0,3,C31MC,80,train
545.0050830841064,2,4,1,3,5,0,H+,1,1,2,0,1000,250.0,1,C31MC,81,train
384.63401794433594,2,4,1,3,5,0,H+,1,1,2,0,1000,250.0,1,C31MC,82,train
528.8810729980469,2,4,1,3,5,0,H+,0,2,0,0,1000,250.0,0,C31MC,83,train
528.7230014801025,2,4,1,3,5,0,H+,1,1,2,0,1000,250.0,1,C31MC,84,train
512.5799179077148,2,4,1,3,5,0,H+,1,1,2,0,1000,250.0,1,C31MC,85,train
576.3261318206787,2,4,1,3,5,0,H+,1,4,1,0,1000,250.0,4,C31MC,86,train
800.7059097290039,2,4,1,3,5,0,H+,1,2,0,0,1000,250.0,2,C31MC,87,train
528.160810470581,2,4,1,3,5,0,H+,1,5,4,0,1000,250.0,5,C31MC,88,train
528.6679267883301,2,4,1,3,5,0,H+,1,5,4,0,1000,250.0,5,C31MC,89,train
510.58292388916016,2,4,1,3,5,0,H+,1,3,3,0,1000,250.0,3,C31MC,90,train
577.064037322998,2,4,1,3,5,0,H+,1,0,5,0,1000,250.0,0,C31MC,91,train
624.8390674591064,2,4,1,3,5,0,H+,0,2,0,0,1000,250.0,3,C31MC,92,train
624.290943145752,2,4,1,3,5,0,H+,1,3,3,0,1000,250.0,3,C31MC,93,train
833.0528736114502,2,4,1,3,5,0,H+,1,1,2,0,1000,250.0,1,C31MC,94,train
576.9000053405762,2,4,1,3,5,0,H+,1,1,2,0,1000,250.0,1,C31MC,95,train
512.739896774292,2,4,1,3,5,0,H+,1,3,3,0,1000,250.0,3,C31MC,96,train
385.09202003479004,2,4,1,3,5,0,H+,0,0,5,0,1000,250.0,2,C31MC,97,train
464.11991119384766,2,4,1,3,5,0,H+,1,2,0,0,1000,250.0,2,C31MC,98,train
384.4790458679199,2,4,1,3,5,0,H+,1,0,5,0,1000,250.0,0,C31MC,99,train
480.75199127197266,2,4,1,3,5,0,H+,1,5,4,0,1000,250.0,5,C31MC,100,train
512.9828453063965,2,4,1,3,5,0,H+,1,5,4,0,1000,250.0,5,C31MC,101,train
464.8749828338623,2,4,1,3,5,0,H+,1,0,5,0,1000,250.0,0,C31MC,102,train
608.3650588989258,2,4,1,3,5,0,H+,1,3,3,0,1000,250.0,3,C31MC,103,train
529.0489196777344,2,4,1,3,5,0,H+,1,4,1,0,1000,250.0,4,C31MC,104,train
384.86409187316895,2,4,1,3,5,0,H+,1,1,2,0,1000,250.0,1,C31MC,105,train
494.19307708740234,2,4,1,3,5,0,H+,1,1,2,0,1000,250.0,1,C31MC,106,train
465.02208709716797,2,4,1,3,5,0,H+,1,4,1,0,1000,250.0,4,C31MC,107,train
448.9459991455078,2,4,1,3,5,0,H+,1,5,4,0,1000,250.0,5,C31MC,108,train
560.3151321411133,2,4,1,3,5,0,H+,1,1,2,0,1000,250.0,1,C31MC,109,train
512.9399299621582,2,4,1,3,5,0,H+,1,5,4,0,1000,250.0,5,C31MC,110,train
1056.584119796753,2,4,1,3,5,0,H+,1,3,3,0,1000,250.0,3,C31MC,111,train
768.9738273620605,2,4,1,3,5,0,H+,1,2,0,0,1000,250.0,2,C31MC,112,train
480.2730083465576,2,4,1,3,5,0,H+,1,4,1,0,1000,250.0,4,C31MC,113,train
496.2480068206787,2,4,1,3,5,0,H+,1,0,5,0,1000,250.0,0,C31MC,114,train
528.2938480377197,2,4,1,3,5,0,H+,1,1,2,0,1000,250.0,1,C31MC,115,train
464.5841121673584,2,4,1,3,5,0,H+,1,4,1,0,1000,250.0,4,C31MC,116,train
497.07698822021484,2,4,1,3,5,0,H+,1,2,0,0,1000,250.0,2,C31MC,117,train
481.0149669647217,2,4,1,3,5,0,H+,1,5,4,0,1000,250.0,5,C31MC,118,train
705.1670551300049,2,4,1,3,5,0,H+,1,4,1,0,1000,250.0,4,C31MC,119,train
528.9809703826904,2,4,1,3,5,0,H+,1,3,3,0,1000,250.0,3,C31MC,120,train
529.1910171508789,2,4,1,3,5,0,H+,1,2,0,0,1000,250.0,2,C31MC,121,train
512.7041339874268,2,4,1,3,5,0,H+,1,1,2,0,1000,250.0,1,C31MC,122,train
496.1719512939453,2,4,1,3,5,0,H+,1,2,0,0,1000,250.0,2,C31MC,123,train
496.4029788970947,2,4,1,3,5,0,H+,1,5,4,0,1000,250.0,5,C31MC,124,train
496.90914154052734,2,4,1,3,5,0,H+,1,0,5,0,1000,250.0,0,C31MC,125,train
464.5209312438965,2,4,1,3,5,0,H+,1,4,1,0,1000,250.0,4,C31MC,126,train
448.73785972595215,2,4,1,3,5,0,H+,0,3,3,0,1000,250.0,2,C31MC,127,train
464.3259048461914,2,4,1,3,5,0,H+,1,4,1,0,1000,250.0,4,C31MC,128,train
448.72498512268066,2,4,1,3,5,0,H+,1,1,2,0,1000,250.0,1,C31MC,129,train
785.0680351257324,2,4,1,3,5,0,H+,1,0,5,0,1000,250.0,0,C31MC,130,train
672.7719306945801,2,4,1,3,5,0,H+,1,3,3,0,1000,250.0,3,C31MC,131,train
512.7649307250977,2,4,1,3,5,0,H+,1,3,3,0,1000,250.0,3,C31MC,132,train
640.9549713134766,2,4,1,3,5,0,H+,1,1,2,0,1000,250.0,1,C31MC,133,train
624.9380111694336,2,4,1,3,5,0,H+,1,3,3,0,1000,250.0,3,C31MC,134,train
752.161979675293,2,4,1,3,5,0,H+,1,2,0,0,1000,250.0,2,C31MC,135,train
481.0829162597656,2,4,1,3,5,0,H+,1,2,0,0,1000,250.0,2,C31MC,136,train
560.3408813476562,2,4,1,3,5,0,H+,1,1,2,0,1000,250.0,1,C31MC,137,train
784.498929977417,2,4,1,3,5,0,H+,1,1,2,0,1000,250.0,1,C31MC,138,train
689.0668869018555,2,4,1,3,5,0,H+,1,2,0,0,1000,250.0,2,C31MC,139,train
689.2759799957275,2,4,1,3,5,0,H+,1,3,3,0,1000,250.0,3,C31MC,140,train
784.9469184875488,2,4,1,3,5,0,H+,1,4,1,0,1000,250.0,4,C31MC,141,train
400.99287033081055,2,4,1,3,5,0,H+,1,4,1,0,1000,250.0,4,C31MC,142,train
352.39315032958984,2,4,1,3,5,0,H+,1,4,1,0,1000,250.0,4,C31MC,143,train
561.0551834106445,2,4,1,3,5,0,H+,0,0,5,0,1000,250.0,2,C31MC,144,train
752.8479099273682,2,4,1,3,5,0,H+,1,1,2,0,1000,250.0,1,C31MC,145,train
1040.4150485992432,2,4,1,3,5,0,H+,1,2,0,0,1000,250.0,2,C31MC,146,train
976.3190746307373,2,4,1,3,5,0,H+,1,3,3,0,1000,250.0,3,C31MC,147,train
800.055980682373,2,4,1,3,5,0,H+,1,2,0,0,1000,250.0,2,C31MC,148,train
864.4440174102783,2,4,1,3,5,0,H+,1,1,2,0,1000,250.0,1,C31MC,149,train
560.8160495758057,2,4,1,3,5,0,H+,1,0,5,0,1000,250.0,0,C31MC,150,train
592.353105545044,2,4,1,3,5,0,H+,1,2,0,0,1000,250.0,2,C31MC,151,train
656.9981575012207,2,4,1,3,5,0,H+,1,0,5,0,1000,250.0,0,C31MC,152,train
480.85689544677734,2,4,1,3,5,0,H+,1,3,3,0,1000,250.0,3,C31MC,153,train
528.4299850463867,2,4,1,3,5,0,H+,1,5,4,0,1000,250.0,5,C31MC,154,train
576.6470432281494,2,4,1,3,5,0,H+,1,4,1,0,1000,250.0,4,C31MC,155,train
609.1489791870117,2,4,1,3,5,0,H+,1,1,2,0,1000,250.0,1,C31MC,156,train
592.8218364715576,2,4,1,3,5,0,H+,1,3,3,0,1000,250.0,3,C31MC,157,train
496.3250160217285,2,4,1,3,5,0,H+,1,5,4,0,1000,250.0,5,C31MC,158,train
528.3370018005371,2,4,1,3,5,0,H+,1,1,2,0,1000,250.0,1,C31MC,159,train
640.5251026153564,2,4,1,3,5,0,H+,0,2,0,0,1000,250.0,3,C31MC,160,train
464.2670154571533,2,4,1,3,5,0,H+,0,4,1,0,1000,250.0,3,C31MC,161,train
432.90209770202637,2,4,1,3,5,0,H+,1,4,1,0,1000,250.0,4,C31MC,162,train
528.2168388366699,2,4,1,3,5,0,H+,1,5,4,0,1000,250.0,5,C31MC,163,train
609.0960502624512,2,4,1,3,5,0,H+,1,2,0,0,1000,250.0,2,C31MC,164,train
528.7327766418457,2,4,1,3,5,0,H+,1,5,4,0,1000,250.0,5,C31MC,165,train
624.5667934417725,2,4,1,3,5,0,H+,1,3,3,0,1000,250.0,3,C31MC,166,train
480.3280830383301,2,4,1,3,5,0,H+,1,3,3,0,1000,250.0,3,C31MC,167,train
496.4730739593506,2,4,1,3,5,0,H+,1,5,4,0,1000,250.0,5,C31MC,168,train
432.22999572753906,2,4,1,3,5,0,H+,0,3,3,0,1000,250.0,5,C31MC,169,train
705.0812244415283,2,4,1,3,5,0,H+,1,0,5,0,1000,250.0,0,C31MC,170,train
544.287919998169,2,4,1,3,5,0,H+,1,5,4,0,1000,250.0,5,C31MC,171,train
528.4590721130371,2,4,1,3,5,0,H+,1,5,4,0,1000,250.0,5,C31MC,172,train
640.963077545166,2,4,1,3,5,0,H+,1,0,5,0,1000,250.0,0,C31MC,173,train
544.5330142974854,2,4,1,3,5,0,H+,1,1,2,0,1000,250.0,1,C31MC,174,train
624.2759227752686,2,4,1,3,5,0,H+,1,2,0,0,1000,250.0,2,C31MC,175,train
513.085126876831,2,4,1,3,5,0,H+,1,5,4,0,1000,250.0,5,C31MC,176,train
529.141902923584,2,4,1,3,5,0,H+,1,5,4,0,1000,250.0,5,C31MC,177,train
753.054141998291,2,4,1,3,5,0,H+,1,4,1,0,1000,250.0,4,C31MC,178,train
560.3470802307129,2,4,1,3,5,0,H+,1,0,5,0,1000,250.0,0,C31MC,179,train
417.2019958496094,2,4,1,3,5,0,H+,1,0,5,0,1000,250.0,0,C31MC,180,train
592.5610065460205,2,4,1,3,5,0,H+,1,2,0,0,1000,250.0,2,C31MC,181,train
480.0739288330078,2,4,1,3,5,0,H+,1,0,5,0,1000,250.0,0,C31MC,182,train
544.2039966583252,2,4,1,3,5,0,H+,1,4,1,0,1000,250.0,4,C31MC,183,train
801.0561466217041,2,4,1,3,5,0,H+,1,3,3,0,1000,250.0,3,C31MC,184,train
512.1550559997559,2,4,1,3,5,0,H+,1,5,4,0,1000,250.0,5,C31MC,185,train
496.4869022369385,2,4,1,3,5,0,H+,1,5,4,0,1000,250.0,5,C31MC,186,train
688.7280941009521,2,4,1,3,5,0,H+,1,4,1,0,1000,250.0,4,C31MC,187,train
592.8030014038086,2,4,1,3,5,0,H+,1,4,1,0,1000,250.0,4,C31MC,188,train
528.1858444213867,2,4,1,3,5,0,H+,1,4,1,0,1000,250.0,4,C31MC,189,train
912.2650623321533,2,4,1,3,5,0,H+,1,3,3,0,1000,250.0,3,C31MC,190,train
800.1401424407959,2,4,1,3,5,0,H+,1,4,1,0,1000,250.0,4,C31MC,191,train
496.49882316589355,2,4,1,3,5,0,H+,1,2,0,0,1000,250.0,2,C31MC,192,train
736.0868453979492,2,4,1,3,5,0,H+,1,1,2,0,1000,250.0,1,C31MC,193,train
849.052906036377,2,4,1,3,5,0,H+,1,1,2,0,1000,250.0,1,C31MC,194,train
528.649091720581,2,4,1,3,5,0,H+,1,4,1,0,1000,250.0,4,C31MC,195,train
638.6048793792725,2,4,1,3,5,0,H+,1,2,0,0,1000,250.0,2,C31MC,196,train
800.5859851837158,2,4,1,3,5,0,H+,1,5,4,0,1000,250.0,5,C31MC,197,train
609.5170974731445,2,4,1,3,5,0,H+,1,1,2,0,1000,250.0,1,C31MC,198,train
592.7960872650146,2,4,1,3,5,0,H+,1,3,3,0,1000,250.0,3,C31MC,199,train
513.0360126495361,2,4,1,3,5,0,H+,1,4,1,0,1000,250.0,4,C31MC,200,train
480.2720546722412,2,4,1,3,5,0,H+,1,5,4,0,1000,250.0,5,C31MC,201,train
463.41991424560547,2,4,1,3,5,0,H+,1,0,5,0,1000,250.0,0,C31MC,202,train
560.3930950164795,2,4,1,3,5,0,H+,1,0,5,0,1000,250.0,0,C31MC,203,train
529.0069580078125,2,4,1,3,5,0,H+,1,3,3,0,1000,250.0,3,C31MC,204,train
431.4098358154297,2,4,1,3,5,0,H+,1,3,3,0,1000,250.0,3,C31MC,205,train
448.3678340911865,2,4,1,3,5,0,H+,0,4,1,0,1000,250.0,5,C31MC,206,train
673.0880737304688,2,4,1,3,5,0,H+,0,1,2,0,1000,250.0,0,C31MC,207,train
512.7878189086914,2,4,1,3,5,0,H+,1,5,4,0,1000,250.0,5,C31MC,208,train
608.1099510192871,2,4,1,3,5,0,H+,1,1,2,0,1000,250.0,1,C31MC,209,train
784.9371433258057,2,4,1,3,5,0,H+,1,2,0,0,1000,250.0,2,C31MC,210,train
448.2769966125488,2,4,1,3,5,0,H+,1,2,0,0,1000,250.0,2,C31MC,211,train
448.96411895751953,2,4,1,3,5,0,H+,1,5,4,0,1000,250.0,5,C31MC,212,train
497.622013092041,2,4,1,3,5,0,H+,1,2,0,0,1000,250.0,2,C31MC,213,train
320.86896896362305,2,4,1,3,5,0,H+,1,3,3,0,1000,250.0,3,C31MC,214,train
609.0140342712402,2,4,1,3,5,0,H+,1,1,2,0,1000,250.0,1,C31MC,215,train
544.6228981018066,2,4,1,3,5,0,H+,1,2,0,0,1000,250.0,2,C31MC,216,train
624.9589920043945,2,4,1,3,5,0,H+,1,3,3,0,1000,250.0,3,C31MC,217,train
464.30397033691406,2,4,1,3,5,0,H+,1,3,3,0,1000,250.0,3,C31MC,218,train
528.3269882202148,2,4,1,3,5,0,H+,1,4,1,0,1000,250.0,4,C31MC,219,train
576.483964920044,2,4,1,3,5,0,H+,1,5,4,0,1000,250.0,5,C31MC,220,train
783.8730812072754,2,4,1,3,5,0,H+,0,4,1,0,1000,250.0,5,C31MC,221,train
543.8930988311768,2,4,1,3,5,0,H+,1,1,2,0,1000,250.0,1,C31MC,222,train
528.3570289611816,2,4,1,3,5,0,H+,1,1,2,0,1000,250.0,1,C31MC,223,train
640.2909755706787,2,4,1,3,5,0,H+,1,0,5,0,1000,250.0,0,C31MC,224,train
318.403959274292,2,4,1,3,5,0,H+,1,0,5,0,1000,250.0,0,C31MC,225,train
591.6609764099121,2,4,1,3,5,0,H+,1,3,3,0,1000,250.0,3,C31MC,226,train
736.4540100097656,2,4,1,3,5,0,H+,0,0,5,0,1000,250.0,2,C31MC,227,train
1249.1068840026855,2,4,1,3,5,0,H+,1,3,3,0,1000,250.0,3,C31MC,228,train
592.526912689209,2,4,1,3,5,0,H+,0,0,5,0,1000,250.0,3,C31MC,229,train
673.1009483337402,2,4,1,3,5,0,H+,1,1,2,0,1000,250.0,1,C31MC,230,train
816.2600994110107,2,4,1,3,5,0,H+,1,3,3,0,1000,250.0,3,C31MC,231,train
624.2771148681641,2,4,1,3,5,0,H+,1,2,0,0,1000,250.0,2,C31MC,232,train
864.4180297851562,2,4,1,3,5,0,H+,1,3,3,0,1000,250.0,3,C31MC,233,train
656.5060615539551,2,4,1,3,5,0,H+,1,4,1,0,1000,250.0,4,C31MC,234,train
1104.2790412902832,2,4,1,3,5,0,H+,1,1,2,0,1000,250.0,1,C31MC,235,train
465.2750492095947,2,4,1,3,5,0,H+,1,4,1,0,1000,250.0,4,C31MC,236,train
480.29398918151855,2,4,1,3,5,0,H+,1,3,3,0,1000,250.0,3,C31MC,237,train
464.16592597961426,2,4,1,3,5,0,H+,1,3,3,0,1000,250.0,3,C31MC,238,train
704.2751312255859,2,4,1,3,5,0,H+,1,2,0,0,1000,250.0,2,C31MC,239,train
560.3439807891846,2,4,1,3,5,0,H+,1,0,5,0,1000,250.0,0,C31MC,240,train
480.2968502044678,2,4,1,3,5,0,H+,1,5,4,0,1000,250.0,5,C31MC,241,train
560.4660511016846,2,4,1,3,5,0,H+,1,5,4,0,1000,250.0,5,C31MC,242,train
656.4810276031494,2,4,1,3,5,0,H+,1,0,5,0,1000,250.0,0,C31MC,243,train
480.5009365081787,2,4,1,3,5,0,H+,1,0,5,0,1000,250.0,0,C31MC,244,train
833.0771923065186,2,4,1,3,5,0,H+,1,0,5,0,1000,250.0,0,C31MC,245,train
528.4779071807861,2,4,1,3,5,0,H+,1,0,5,0,1000,250.0,0,C31MC,246,train
784.3849658966064,2,4,1,3,5,0,H+,1,1,2,0,1000,250.0,1,C31MC,247,train
512.3510360717773,2,4,1,3,5,0,H+,0,0,5,0,1000,250.0,1,C31MC,248,train
1425.1480102539062,2,4,1,3,5,0,H+,1,0,5,0,1000,250.0,0,C31MC,249,train
976.341962814331,2,4,1,3,5,0,H+,1,2,0,0,1000,250.0,2,C31MC,250,test
784.2750549316406,2,4,1,3,5,0,H+,1,5,4,0,1000,250.0,5,C31MC,251,test
640.6600475311279,2,4,1,3,5,0,H+,1,2,0,0,1000,250.0,2,C31MC,252,test
656.0769081115723,2,4,1,3,5,0,H+,1,1,2,0,1000,250.0,1,C31MC,253,test
528.5170078277588,2,4,1,3,5,0,H+,1,4,1,0,1000,250.0,4,C31MC,254,test
368.6559200286865,2,4,1,3,5,0,H+,1,4,1,0,1000,250.0,4,C31MC,255,test
624.9370574951172,2,4,1,3,5,0,H+,1,2,0,0,1000,250.0,2,C31MC,256,test
464.7970199584961,2,4,1,3,5,0,H+,1,2,0,0,1000,250.0,2,C31MC,257,test
527.9459953308105,2,4,1,3,5,0,H+,1,0,5,0,1000,250.0,0,C31MC,258,test
816.9689178466797,2,4,1,3,5,0,H+,1,2,0,0,1000,250.0,2,C31MC,259,test
544.1780090332031,2,4,1,3,5,0,H+,1,4,1,0,1000,250.0,4,C31MC,260,test
449.0959644317627,2,4,1,3,5,0,H+,1,4,1,0,1000,250.0,4,C31MC,261,test
848.4401702880859,2,4,1,3,5,0,H+,1,2,0,0,1000,250.0,2,C31MC,262,test
1792.9370403289795,2,4,1,3,5,0,H+,1,2,0,0,1000,250.0,2,C31MC,263,test
705.0409317016602,2,4,1,3,5,0,H+,1,3,3,0,1000,250.0,3,C31MC,264,test
416.3799285888672,2,4,1,3,5,0,H+,1,2,0,0,1000,250.0,2,C31MC,265,test
624.1450309753418,2,4,1,3,5,0,H+,1,3,3,0,1000,250.0,3,C31MC,266,test
640.3241157531738,2,4,1,3,5,0,H+,0,2,0,0,1000,250.0,0,C31MC,267,test
944.3438053131104,2,4,1,3,5,0,H+,1,1,2,0,1000,250.0,1,C31MC,268,test
833.0650329589844,2,4,1,3,5,0,H+,1,5,4,0,1000,250.0,5,C31MC,269,test
625.0369548797607,2,4,1,3,5,0,H+,1,2,0,0,1000,250.0,2,C31MC,270,test
512.3169422149658,2,4,1,3,5,0,H+,1,4,1,0,1000,250.0,4,C31MC,271,test
848.1979370117188,2,4,1,3,5,0,H+,1,3,3,0,1000,250.0,3,C31MC,272,test
863.353967666626,2,4,1,3,5,0,H+,1,1,2,0,1000,250.0,1,C31MC,273,test
577.0208835601807,2,4,1,3,5,0,H+,1,3,3,0,1000,250.0,3,C31MC,274,test
702.6150226593018,2,4,1,3,5,0,H+,1,3,3,0,1000,250.0,3,C31MC,275,test
1136.6298198699951,2,4,1,3,5,0,H+,1,1,2,0,1000,250.0,1,C31MC,276,test
560.661792755127,2,4,1,3,5,0,H+,1,3,3,0,1000,250.0,3,C31MC,277,test
576.1110782623291,2,4,1,3,5,0,H+,1,2,0,0,1000,250.0,2,C31MC,278,test
544.464111328125,2,4,1,3,5,0,H+,1,5,4,0,1000,250.0,5,C31MC,279,test
544.8999404907227,2,4,1,3,5,0,H+,1,3,3,0,1000,250.0,3,C31MC,280,test
592.3590660095215,2,4,1,3,5,0,H+,1,2,0,0,1000,250.0,2,C31MC,281,test
526.6118049621582,2,4,1,3,5,0,H+,1,3,3,0,1000,250.0,3,C31MC,282,test
512.1359825134277,2,4,1,3,5,0,H+,1,0,5,0,1000,250.0,0,C31MC,283,test
464.2291069030762,2,4,1,3,5,0,H+,1,3,3,0,1000,250.0,3,C31MC,284,test
513.5209560394287,2,4,1,3,5,0,H+,1,5,4,0,1000,250.0,5,C31MC,285,test
544.1930294036865,2,4,1,3,5,0,H+,1,3,3,0,1000,250.0,3,C31MC,286,test
528.3689498901367,2,4,1,3,5,0,H+,1,0,5,0,1000,250.0,0,C31MC,287,test
817.950963973999,2,4,1,3,5,0,H+,0,0,5,0,1000,250.0,2,C31MC,288,test
592.2520160675049,2,4,1,3,5,0,H+,1,2,0,0,1000,250.0,2,C31MC,289,test
736.0429763793945,2,4,1,3,5,0,H+,1,3,3,0,1000,250.0,3,C31MC,290,test
576.9989490509033,2,4,1,3,5,0,H+,1,3,3,0,1000,250.0,3,C31MC,291,test
560.5089664459229,2,4,1,3,5,0,H+,1,1,2,0,1000,250.0,1,C31MC,292,test
561.7499351501465,2,4,1,3,5,0,H+,1,5,4,0,1000,250.0,5,C31MC,293,test
801.0499477386475,2,4,1,3,5,0,H+,1,2,0,0,1000,250.0,2,C31MC,294,test
496.31500244140625,2,4,1,3,5,0,H+,1,4,1,0,1000,250.0,4,C31MC,295,test
528.8310050964355,2,4,1,3,5,0,H+,1,1,2,0,1000,250.0,1,C31MC,296,test
656.3169956207275,2,4,1,3,5,0,H+,1,2,0,0,1000,250.0,2,C31MC,297,test
1888.1239891052246,2,4,1,3,5,0,H+,1,1,2,0,1000,250.0,1,C31MC,298,test
528.1460285186768,2,4,1,3,5,0,H+,1,4,1,0,1000,250.0,4,C31MC,299,test
513.1151676177979,2,4,1,3,5,0,H+,1,3,3,0,1000,250.0,3,C31MC,300,test
480.6058406829834,2,4,1,3,5,0,H+,1,1,2,0,1000,250.0,1,C31MC,301,test
848.5188484191895,2,4,1,3,5,0,H+,1,2,0,0,1000,250.0,2,C31MC,302,test
976.5620231628418,2,4,1,3,5,0,H+,1,1,2,0,1000,250.0,1,C31MC,303,test
688.8480186462402,2,4,1,3,5,0,H+,1,0,5,0,1000,250.0,0,C31MC,304,test
544.5170402526855,2,4,1,3,5,0,H+,1,4,1,0,1000,250.0,4,C31MC,305,test
656.264066696167,2,4,1,3,5,0,H+,1,3,3,0,1000,250.0,3,C31MC,306,test
512.537956237793,2,4,1,3,5,0,H+,1,5,4,0,1000,250.0,5,C31MC,307,test
432.1300983428955,2,4,1,3,5,0,H+,0,3,3,0,1000,250.0,5,C31MC,308,test
576.2701034545898,2,4,1,3,5,0,H+,1,0,5,0,1000,250.0,0,C31MC,309,test
512.908935546875,2,4,1,3,5,0,H+,1,5,4,0,1000,250.0,5,C31MC,310,test
624.2001056671143,2,4,1,3,5,0,H+,1,5,4,0,1000,250.0,5,C31MC,311,test
512.2089385986328,2,4,1,3,5,0,H+,1,3,3,0,1000,250.0,3,C31MC,312,test
497.8139400482178,2,4,1,3,5,0,H+,0,2,0,0,1000,250.0,0,C31MC,313,test
544.1651344299316,2,4,1,3,5,0,H+,1,0,5,0,1000,250.0,0,C31MC,314,test
385.4410648345947,2,4,1,3,5,0,H+,1,2,0,0,1000,250.0,2,C31MC,315,test
464.2930030822754,2,4,1,3,5,0,H+,1,4,1,0,1000,250.0,4,C31MC,316,test
559.9138736724854,2,4,1,3,5,0,H+,1,4,1,0,1000,250.0,4,C31MC,317,test
544.4002151489258,2,4,1,3,5,0,H+,0,0,5,0,1000,250.0,2,C31MC,318,test
448.26793670654297,2,4,1,3,5,0,H+,1,2,0,0,1000,250.0,2,C31MC,319,test
400.5758762359619,2,4,1,3,5,0,H+,1,2,0,0,1000,250.0,2,C31MC,320,test
670.8099842071533,2,4,1,3,5,0,H+,0,4,1,0,1000,250.0,3,C31MC,321,test
577.0819187164307,2,4,1,3,5,0,H+,1,2,0,0,1000,250.0,2,C31MC,322,test
512.3770236968994,2,4,1,3,5,0,H+,1,5,4,0,1000,250.0,5,C31MC,323,test
560.338020324707,2,4,1,3,5,0,H+,1,4,1,0,1000,250.0,4,C31MC,324,test
640.5608654022217,2,4,1,3,5,0,H+,1,4,1,0,1000,250.0,4,C31MC,325,test
784.9349975585938,2,4,1,3,5,0,H+,1,0,5,0,1000,250.0,0,C31MC,326,test
768.4128284454346,2,4,1,3,5,0,H+,1,2,0,0,1000,250.0,2,C31MC,327,test
544.8839664459229,2,4,1,3,5,0,H+,1,2,0,0,1000,250.0,2,C31MC,328,test
720.4949855804443,2,4,1,3,5,0,H+,1,0,5,0,1000,250.0,0,C31MC,329,test
576.3001441955566,2,4,1,3,5,0,H+,1,1,2,0,1000,250.0,1,C31MC,330,test
480.3760051727295,2,4,1,3,5,0,H+,1,0,5,0,1000,250.0,0,C31MC,331,test
1151.4570713043213,2,4,1,3,5,0,H+,1,2,0,0,1000,250.0,2,C31MC,332,test
431.51402473449707,2,4,1,3,5,0,H+,1,2,0,0,1000,250.0,2,C31MC,333,test
560.3461265563965,2,4,1,3,5,0,H+,1,1,2,0,1000,250.0,1,C31MC,334,test
416.5380001068115,2,4,1,3,5,0,H+,1,1,2,0,1000,250.0,1,C31MC,335,test
624.3078708648682,2,4,1,3,5,0,H+,1,2,0,0,1000,250.0,2,C31MC,336,test
401.05295181274414,2,4,1,3,5,0,H+,1,2,0,0,1000,250.0,2,C31MC,337,test
512.8839015960693,2,4,1,3,5,0,H+,1,0,5,0,1000,250.0,0,C31MC,338,test
497.06292152404785,2,4,1,3,5,0,H+,1,2,0,0,1000,250.0,2,C31MC,339,test
560.2481365203857,2,4,1,3,5,0,H+,1,4,1,0,1000,250.0,4,C31MC,340,test
672.3060607910156,2,4,1,3,5,0,H+,1,3,3,0,1000,250.0,3,C31MC,341,test
529.2809009552002,2,4,1,3,5,0,H+,1,0,5,0,1000,250.0,0,C31MC,342,test
1088.979959487915,2,4,1,3,5,0,H+,1,2,0,0,1000,250.0,2,C31MC,343,test
672.2800731658936,2,4,1,3,5,0,H+,1,5,4,0,1000,250.0,5,C31MC,344,test
1584.0890407562256,2,4,1,3,5,0,H+,1,5,4,0,1000,250.0,5,C31MC,345,test
734.7180843353271,2,4,1,3,5,0,H+,1,0,5,0,1000,250.0,0,C31MC,346,test
816.8268203735352,2,4,1,3,5,0,H+,1,1,2,0,1000,250.0,1,C31MC,347,test
640.2490139007568,2,4,1,3,5,0,H+,1,3,3,0,1000,250.0,3,C31MC,348,test
528.8870334625244,2,4,1,3,5,0,H+,1,4,1,0,1000,250.0,4,C31MC,349,test
545.1810359954834,2,4,1,3,5,0,H+,1,2,0,0,1000,250.0,2,C31MC,350,test
497.09510803222656,2,4,1,3,5,0,H+,1,0,5,0,1000,250.0,0,C31MC,351,test
352.06079483032227,2,4,1,3,5,0,H+,1,0,5,0,1000,250.0,0,C31MC,352,test
513.0519866943359,2,4,1,3,5,0,H+,1,0,5,0,1000,250.0,0,C31MC,353,test
640.1069164276123,2,4,1,3,5,0,H+,1,3,3,0,1000,250.0,3,C31MC,354,test
496.2749481201172,2,4,1,3,5,0,H+,1,4,1,0,1000,250.0,4,C31MC,355,test
400.58302879333496,2,4,1,3,5,0,H+,1,4,1,0,1000,250.0,4,C31MC,356,test
544.2221164703369,2,4,1,3,5,0,H+,1,1,2,0,1000,250.0,1,C31MC,357,test
528.6209583282471,2,4,1,3,5,0,H+,1,2,0,0,1000,250.0,2,C31MC,358,test
656.4319133758545,2,4,1,3,5,0,H+,1,2,0,0,1000,250.0,2,C31MC,359,test
593.0769443511963,2,4,1,3,5,0,H+,1,1,2,0,1000,250.0,1,C31MC,360,test
480.0591468811035,2,4,1,3,5,0,H+,1,0,5,0,1000,250.0,0,C31MC,361,test
448.4689235687256,2,4,1,3,5,0,H+,1,4,1,0,1000,250.0,4,C31MC,362,test
479.8400402069092,2,4,1,3,5,0,H+,1,3,3,0,1000,250.0,3,C31MC,363,test
687.4871253967285,2,4,1,3,5,0,H+,1,3,3,0,1000,250.0,3,C31MC,364,test
608.1609725952148,2,4,1,3,5,0,H+,1,4,1,0,1000,250.0,4,C31MC,365,test
865.0860786437988,2,4,1,3,5,0,H+,1,3,3,0,1000,250.0,3,C31MC,366,test
529.0091037750244,2,4,1,3,5,0,H+,1,5,4,0,1000,250.0,5,C31MC,367,test
400.21204948425293,2,4,1,3,5,0,H+,1,5,4,0,1000,250.0,5,C31MC,368,test
544.234037399292,2,4,1,3,5,0,H+,1,1,2,0,1000,250.0,1,C31MC,369,test
688.9638900756836,2,4,1,3,5,0,H+,1,4,1,0,1000,250.0,4,C31MC,370,test
640.9308910369873,2,4,1,3,5,0,H+,1,3,3,0,1000,250.0,3,C31MC,371,test
944.2639350891113,2,4,1,3,5,0,H+,1,2,0,0,1000,250.0,2,C31MC,372,test
880.4051876068115,2,4,1,3,5,0,H+,1,2,0,0,1000,250.0,2,C31MC,373,test
544.3429946899414,2,4,1,3,5,0,H+,1,2,0,0,1000,250.0,2,C31MC,374,test
688.4198188781738,2,4,1,3,5,0,H+,1,0,5,0,1000,250.0,0,C31MC,375,test
576.2939453125,2,4,1,3,5,0,H+,1,1,2,0,1000,250.0,1,C31MC,376,test
447.93701171875,2,4,1,3,5,0,H+,1,1,2,0,1000,250.0,1,C31MC,377,test
560.0371360778809,2,4,1,3,5,0,H+,1,2,0,0,1000,250.0,2,C31MC,378,test
432.32202529907227,2,4,1,3,5,0,H+,1,0,5,0,1000,250.0,0,C31MC,379,test
576.167106628418,2,4,1,3,5,0,H+,1,5,4,0,1000,250.0,5,C31MC,380,test
479.4349670410156,2,4,1,3,5,0,H+,1,2,0,0,1000,250.0,2,C31MC,381,test
608.1719398498535,2,4,1,3,5,0,H+,1,4,1,0,1000,250.0,4,C31MC,382,test
766.5181159973145,2,4,1,3,5,0,H+,0,5,4,0,1000,250.0,2,C31MC,383,test
512.3109817504883,2,4,1,3,5,0,H+,1,0,5,0,1000,250.0,0,C31MC,384,test
480.32116889953613,2,4,1,3,5,0,H+,1,1,2,0,1000,250.0,1,C31MC,385,test
560.2271556854248,2,4,1,3,5,0,H+,1,2,0,0,1000,250.0,2,C31MC,386,test
496.08588218688965,2,4,1,3,5,0,H+,1,5,4,0,1000,250.0,5,C31MC,387,test
608.367919921875,2,4,1,3,5,0,H+,1,3,3,0,1000,250.0,3,C31MC,388,test
623.9161491394043,2,4,1,3,5,0,H+,1,1,2,0,1000,250.0,1,C31MC,389,test
608.5021495819092,2,4,1,3,5,0,H+,1,0,5,0,1000,250.0,0,C31MC,390,test
736.7770671844482,2,4,1,3,5,0,H+,1,2,0,0,1000,250.0,2,C31MC,391,test
912.999153137207,2,4,1,3,5,0,H+,0,1,2,0,1000,250.0,0,C31MC,392,test
769.028902053833,2,4,1,3,5,0,H+,0,3,3,0,1000,250.0,4,C31MC,393,test
545.0558662414551,2,4,1,3,5,0,H+,1,2,0,0,1000,250.0,2,C31MC,394,test
544.6610450744629,2,4,1,3,5,0,H+,1,0,5,0,1000,250.0,0,C31MC,395,test
672.4250316619873,2,4,1,3,5,0,H+,1,2,0,0,1000,250.0,2,C31MC,396,test
592.3480987548828,2,4,1,3,5,0,H+,1,3,3,0,1000,250.0,3,C31MC,397,test
624.3419647216797,2,4,1,3,5,0,H+,1,3,3,0,1000,250.0,3,C31MC,398,test
750.3647804260254,2,4,1,3,5,0,H+,1,5,4,0,1000,250.0,5,C31MC,399,test
608.5391044616699,2,4,1,3,5,0,H+,0,1,2,0,1000,250.0,0,C31MC,400,test
432.9071044921875,2,4,1,3,5,0,H+,1,1,2,0,1000,250.0,1,C31MC,401,test
608.6409091949463,2,4,1,3,5,0,H+,1,3,3,0,1000,250.0,3,C31MC,402,test
784.9729061126709,2,4,1,3,5,0,H+,1,0,5,0,1000,250.0,0,C31MC,403,test
494.9970245361328,2,4,1,3,5,0,H+,1,4,1,0,1000,250.0,4,C31MC,404,test
510.58483123779297,2,4,1,3,5,0,H+,1,0,5,0,1000,250.0,0,C31MC,405,test
592.9529666900635,2,4,1,3,5,0,H+,1,5,4,0,1000,250.0,5,C31MC,406,test
448.2300281524658,2,4,1,3,5,0,H+,1,5,4,0,1000,250.0,5,C31MC,407,test
464.81990814208984,2,4,1,3,5,0,H+,1,4,1,0,1000,250.0,4,C31MC,408,test
976.5150547027588,2,4,1,3,5,0,H+,1,3,3,0,1000,250.0,3,C31MC,409,test
1056.190013885498,2,4,1,3,5,0,H+,1,4,1,0,1000,250.0,4,C31MC,410,test
928.6129474639893,2,4,1,3,5,0,H+,1,0,5,0,1000,250.0,0,C31MC,411,test
1376.6529560089111,2,4,1,3,5,0,H+,0,2,0,0,1000,250.0,3,C31MC,412,test
480.604887008667,2,4,1,3,5,0,H+,1,4,1,0,1000,250.0,4,C31MC,413,test
1344.1808223724365,2,4,1,3,5,0,H+,1,2,0,0,1000,250.0,2,C31MC,414,test
479.7680377960205,2,4,1,3,5,0,H+,1,5,4,0,1000,250.0,5,C31MC,415,test
545.1200008392334,2,4,1,3,5,0,H+,1,0,5,0,1000,250.0,0,C31MC,416,test
432.82604217529297,2,4,1,3,5,0,H+,1,4,1,0,1000,250.0,4,C31MC,417,test
705.1370143890381,2,4,1,3,5,0,H+,1,2,0,0,1000,250.0,2,C31MC,418,test
544.9259281158447,2,4,1,3,5,0,H+,1,3,3,0,1000,250.0,3,C31MC,419,test
625.0619888305664,2,4,1,3,5,0,H+,1,2,0,0,1000,250.0,2,C31MC,420,test
465.4059410095215,2,4,1,3,5,0,H+,1,3,3,0,1000,250.0,3,C31MC,421,test
560.4279041290283,2,4,1,3,5,0,H+,1,0,5,0,1000,250.0,0,C31MC,422,test
400.5239009857178,2,4,1,3,5,0,H+,1,0,5,0,1000,250.0,0,C31MC,423,test
704.9441337585449,2,4,1,3,5,0,H+,1,5,4,0,1000,250.0,5,C31MC,424,test
576.2808322906494,2,4,1,3,5,0,H+,1,2,0,0,1000,250.0,2,C31MC,425,test
416.95690155029297,2,4,1,3,5,0,H+,1,4,1,0,1000,250.0,4,C31MC,426,test
816.4870738983154,2,4,1,3,5,0,H+,1,0,5,0,1000,250.0,0,C31MC,427,test
496.84810638427734,2,4,1,3,5,0,H+,1,4,1,0,1000,250.0,4,C31MC,428,test
784.4901084899902,2,4,1,3,5,0,H+,1,1,2,0,1000,250.0,1,C31MC,429,test
496.1659908294678,2,4,1,3,5,0,H+,1,5,4,0,1000,250.0,5,C31MC,430,test
544.3820953369141,2,4,1,3,5,0,H+,1,2,0,0,1000,250.0,2,C31MC,431,test
448.50802421569824,2,4,1,3,5,0,H+,1,2,0,0,1000,250.0,2,C31MC,432,test
493.4580326080322,2,4,1,3,5,0,H+,1,4,1,0,1000,250.0,4,C31MC,433,test
654.8140048980713,2,4,1,3,5,0,H+,1,0,5,0,1000,250.0,0,C31MC,434,test
494.7378635406494,2,4,1,3,5,0,H+,1,1,2,0,1000,250.0,1,C31MC,435,test
465.0390148162842,2,4,1,3,5,0,H+,1,5,4,0,1000,250.0,5,C31MC,436,test
512.3231410980225,2,4,1,3,5,0,H+,1,1,2,0,1000,250.0,1,C31MC,437,test
448.3060836791992,2,4,1,3,5,0,H+,1,2,0,0,1000,250.0,2,C31MC,438,test
481.0070991516113,2,4,1,3,5,0,H+,1,2,0,0,1000,250.0,2,C31MC,439,test
368.5760498046875,2,4,1,3,5,0,H+,1,2,0,0,1000,250.0,2,C31MC,440,test
465.2750492095947,2,4,1,3,5,0,H+,1,0,5,0,1000,250.0,0,C31MC,441,test
545.0999736785889,2,4,1,3,5,0,H+,1,1,2,0,1000,250.0,1,C31MC,442,test
496.2320327758789,2,4,1,3,5,0,H+,1,1,2,0,1000,250.0,1,C31MC,443,test
464.5698070526123,2,4,1,3,5,0,H+,1,3,3,0,1000,250.0,3,C31MC,444,test
497.0719814300537,2,4,1,3,5,0,H+,1,4,1,0,1000,250.0,4,C31MC,445,test
544.5301532745361,2,4,1,3,5,0,H+,1,0,5,0,1000,250.0,0,C31MC,446,test
512.9430294036865,2,4,1,3,5,0,H+,1,5,4,0,1000,250.0,5,C31MC,447,test
433.027982711792,2,4,1,3,5,0,H+,1,0,5,0,1000,250.0,0,C31MC,448,test
769.1571712493896,2,4,1,3,5,0,H+,1,2,0,0,1000,250.0,2,C31MC,449,test
496.6549873352051,2,4,1,3,5,0,H+,1,3,3,0,1000,250.0,3,C31MC,450,test
592.7159786224365,2,4,1,3,5,0,H+,1,2,0,0,1000,250.0,2,C31MC,451,test
464.33091163635254,2,4,1,3,5,0,H+,1,0,5,0,1000,250.0,0,C31MC,452,test
448.73905181884766,2,4,1,3,5,0,H+,1,1,2,0,1000,250.0,1,C31MC,453,test
352.8869152069092,2,4,1,3,5,0,H+,1,1,2,0,1000,250.0,1,C31MC,454,test
545.3970432281494,2,4,1,3,5,0,H+,1,2,0,0,1000,250.0,2,C31MC,455,test
544.213056564331,2,4,1,3,5,0,H+,1,5,4,0,1000,250.0,5,C31MC,456,test
624.3898868560791,2,4,1,3,5,0,H+,1,3,3,0,1000,250.0,3,C31MC,457,test
976.8829345703125,2,4,1,3,5,0,H+,1,5,4,0,1000,250.0,5,C31MC,458,test
575.4051208496094,2,4,1,3,5,0,H+,1,3,3,0,1000,250.0,3,C31MC,459,test
1168.7510013580322,2,4,1,3,5,0,H+,1,2,0,0,1000,250.0,2,C31MC,460,test
766.5760517120361,2,4,1,3,5,0,H+,1,4,1,0,1000,250.0,4,C31MC,461,test
560.8057975769043,2,4,1,3,5,0,H+,1,5,4,0,1000,250.0,5,C31MC,462,test
529.0758609771729,2,4,1,3,5,0,H+,1,4,1,0,1000,250.0,4,C31MC,463,test
528.3150672912598,2,4,1,3,5,0,H+,1,0,5,0,1000,250.0,0,C31MC,464,test
608.5319519042969,2,4,1,3,5,0,H+,1,2,0,0,1000,250.0,2,C31MC,465,test
512.3920440673828,2,4,1,3,5,0,H+,1,3,3,0,1000,250.0,3,C31MC,466,test
512.6349925994873,2,4,1,3,5,0,H+,1,5,4,0,1000,250.0,5,C31MC,467,test
560.6069564819336,2,4,1,3,5,0,H+,1,1,2,0,1000,250.0,1,C31MC,468,test
544.2218780517578,2,4,1,3,5,0,H+,1,5,4,0,1000,250.0,5,C31MC,469,test
432.5239658355713,2,4,1,3,5,0,H+,0,3,3,0,1000,250.0,2,C31MC,470,test
496.7079162597656,2,4,1,3,5,0,H+,1,3,3,0,1000,250.0,3,C31MC,471,test
465.29102325439453,2,4,1,3,5,0,H+,1,4,1,0,1000,250.0,4,C31MC,472,test
528.4779071807861,2,4,1,3,5,0,H+,1,0,5,0,1000,250.0,0,C31MC,473,test
384.706974029541,2,4,1,3,5,0,H+,1,0,5,0,1000,250.0,0,C31MC,474,test
465.8019542694092,2,4,1,3,5,0,H+,1,3,3,0,1000,250.0,3,C31MC,475,test
513.0600929260254,2,4,1,3,5,0,H+,1,5,4,0,1000,250.0,5,C31MC,476,test
560.884952545166,2,4,1,3,5,0,H+,1,3,3,0,1000,250.0,3,C31MC,477,test
448.4701156616211,2,4,1,3,5,0,H+,1,3,3,0,1000,250.0,3,C31MC,478,test
737.0748519897461,2,4,1,3,5,0,H+,1,3,3,0,1000,250.0,3,C31MC,479,test
512.9330158233643,2,4,1,3,5,0,H+,1,0,5,0,1000,250.0,0,C31MC,480,test
416.51105880737305,2,4,1,3,5,0,H+,1,2,0,0,1000,250.0,2,C31MC,481,test
432.4209690093994,2,4,1,3,5,0,H+,1,3,3,0,1000,250.0,3,C31MC,482,test
574.6738910675049,2,4,1,3,5,0,H+,1,1,2,0,1000,250.0,1,C31MC,483,test
368.47901344299316,2,4,1,3,5,0,H+,1,4,1,0,1000,250.0,4,C31MC,484,test
560.5630874633789,2,4,1,3,5,0,H+,1,3,3,0,1000,250.0,3,C31MC,485,test
448.1639862060547,2,4,1,3,5,0,H+,1,1,2,0,1000,250.0,1,C31MC,486,test
672.6818084716797,2,4,1,3,5,0,H+,0,2,0,0,1000,250.0,3,C31MC,487,test
465.0599956512451,2,4,1,3,5,0,H+,1,2,0,0,1000,250.0,2,C31MC,488,test
414.56103324890137,2,4,1,3,5,0,H+,1,3,3,0,1000,250.0,3,C31MC,489,test
528.1970500946045,2,4,1,3,5,0,H+,1,2,0,0,1000,250.0,2,C31MC,490,test
1120.46217918396,2,4,1,3,5,0,H+,1,2,0,0,1000,250.0,2,C31MC,491,test
400.8519649505615,2,4,1,3,5,0,H+,1,2,0,0,1000,250.0,2,C31MC,492,test
481.0640811920166,2,4,1,3,5,0,H+,1,2,0,0,1000,250.0,2,C31MC,493,test
528.4919738769531,2,4,1,3,5,0,H+,1,1,2,0,1000,250.0,1,C31MC,494,test
640.3579711914062,2,4,1,3,5,0,H+,1,5,4,0,1000,250.0,5,C31MC,495,test
704.226016998291,2,4,1,3,5,0,H+,1,5,4,0,1000,250.0,5,C31MC,496,test
497.3781108856201,2,4,1,3,5,0,H+,1,3,3,0,1000,250.0,3,C31MC,497,test
481.1069965362549,2,4,1,3,5,0,H+,1,5,4,0,1000,250.0,5,C31MC,498,test
464.9040699005127,2,4,1,3,5,0,H+,1,0,5,0,1000,250.0,0,C31MC,499,test
