RT,SRmap_0,SRmap_1,SRmap_2,SRmap_3,SRmap_4,SRmap_5,condition,correct,correct_response,curstim,ms-precue,ms-prestimblank,ntrials,response,subject,trial,type
6238.9280796051025,4,2,0,3,1,5,E+,1,5,5,400,600,250.0,5,e16bk,0,train
879.0779113769531,4,2,0,3,1,5,E+,1,5,5,400,600,250.0,5,e16bk,1,train
367.08998680114746,4,2,0,3,1,5,E+,1,1,4,400,600,250.0,1,e16bk,2,train
575.1750469207764,4,2,0,3,1,5,E+,1,0,2,400,600,250.0,0,e16bk,3,train
271.589994430542,4,2,0,3,1,5,E+,1,1,4,400,600,250.0,1,e16bk,4,train
367.46788024902344,4,2,0,3,1,5,E+,1,4,0,400,600,250.0,4,e16bk,5,train
255.1741600036621,4,2,0,3,1,5,E+,1,1,4,400,600,250.0,1,e16bk,6,train
335.2360725402832,4,2,0,3,1,5,E+,1,3,3,400,600,250.0,3,e16bk,7,train
255.2039623260498,4,2,0,3,1,5,E+,1,3,3,400,600,250.0,3,e16bk,8,train
255.34582138061523,4,2,0,3,1,5,E+,1,5,5,400,600,250.0,5,e16bk,9,train
255.32078742980957,4,2,0,3,1,5,E+,1,5,5,400,600,250.0,5,e16bk,10,train
511.37304306030273,4,2,0,3,1,5,E+,0,3,3,400,600,250.0,2,e16bk,11,train
367.2659397125244,4,2,0,3,1,5,E+,1,4,0,400,600,250.0,4,e16bk,12,train
207.21197128295898,4,2,0,3,1,5,E+,1,5,5,400,600,250.0,5,e16bk,13,train
239.3209934234619,4,2,0,3,1,5,E+,1,1,4,400,600,250.0,1,e16bk,14,train
271.10791206359863,4,2,0,3,1,5,E+,1,2,1,400,600,250.0,2,e16bk,15,train
255.21397590637207,4,2,0,3,1,5,E+,1,1,4,400,600,250.0,1,e16bk,16,train
335.30592918395996,4,2,0,3,1,5,E+,0,3,3,400,600,250.0,2,e16bk,17,train
223.18696975708008,4,2,0,3,1,5,E+,1,4,0,400,600,250.0,4,e16bk,18,train
335.24203300476074,4,2,0,3,1,5,E+,1,3,3,400,600,250.0,3,e16bk,19,train
319.17881965637207,4,2,0,3,1,5,E+,1,2,1,400,600,250.0,2,e16bk,20,train
111.2360954284668,4,2,0,3,1,5,E+,1,2,1,400,600,250.0,2,e16bk,21,train
95.2310562133789,4,2,0,3,1,5,E+,1,0,2,400,600,250.0,0,e16bk,22,train
271.1799144744873,4,2,0,3,1,5,E+,1,3,3,400,600,250.0,3,e16bk,23,train
111.30905151367188,4,2,0,3,1,5,E+,1,3,3,400,600,250.0,3,e16bk,24,train
127.2728443145752,4,2,0,3,1,5,E+,1,0,2,400,600,250.0,0,e16bk,25,train
79.2689323425293,4,2,0,3,1,5,E+,1,3,3,400,600,250.0,3,e16bk,26,train
335.2200984954834,4,2,0,3,1,5,E+,1,4,0,400,600,250.0,4,e16bk,27,train
142.49110221862793,4,2,0,3,1,5,E+,1,1,4,400,600,250.0,1,e16bk,28,train
559.2780113220215,4,2,0,3,1,5,E+,1,3,3,400,600,250.0,3,e16bk,29,train
127.38394737243652,4,2,0,3,1,5,E+,1,4,0,400,600,250.0,4,e16bk,30,train
95.42012214660645,4,2,0,3,1,5,E+,0,2,1,400,600,250.0,1,e16bk,31,train
175.27484893798828,4,2,0,3,1,5,E+,1,4,0,400,600,250.0,4,e16bk,32,train
127.23517417907715,4,2,0,3,1,5,E+,0,4,0,400,600,250.0,3,e16bk,33,train
271.320104598999,4,2,0,3,1,5,E+,1,5,5,400,600,250.0,5,e16bk,34,train
158.65397453308105,4,2,0,3,1,5,E+,1,1,4,400,600,250.0,1,e16bk,35,train
47.22285270690918,4,2,0,3,1,5,E+,1,0,2,400,600,250.0,0,e16bk,36,train
63.239097595214844,4,2,0,3,1,5,E+,1,4,0,400,600,250.0,4,e16bk,37,train
191.18809700012207,4,2,0,3,1,5,E+,1,2,1,400,600,250.0,2,e16bk,38,train
174.9589443206787,4,2,0,3,1,5,E+,1,0,2,400,600,250.0,0,e16bk,39,train
223.17099571228027,4,2,0,3,1,5,E+,1,0,2,400,600,250.0,0,e16bk,40,train
63.23695182800293,4,2,0,3,1,5,E+,1,1,4,400,600,250.0,1,e16bk,41,train
191.53785705566406,4,2,0,3,1,5,E+,1,5,5,400,600,250.0,5,e16bk,42,train
94.64883804321289,4,2,0,3,1,5,E+,1,4,0,400,600,250.0,4,e16bk,43,train
79.2229175567627,4,2,0,3,1,5,E+,1,4,0,400,600,250.0,4,e16bk,44,train
111.41180992126465,4,2,0,3,1,5,E+,1,4,0,400,600,250.0,4,e16bk,45,train
47.21689224243164,4,2,0,3,1,5,E+,1,0,2,400,600,250.0,0,e16bk,46,train
63.2321834564209,4,2,0,3,1,5,E+,1,3,3,400,600,250.0,3,e16bk,47,train
223.3560085296631,4,2,0,3,1,5,E+,1,5,5,400,600,250.0,5,e16bk,48,train
95.44920921325684,4,2,0,3,1,5,E+,1,3,3,400,600,250.0,3,e16bk,49,train
143.2640552520752,4,2,0,3,1,5,E+,1,2,1,400,600,250.0,2,e16bk,50,train
31.432151794433594,4,2,0,3,1,5,E+,1,2,1,400,600,250.0,2,e16bk,51,train
158.77485275268555,4,2,0,3,1,5,E+,1,2,1,400,600,250.0,2,e16bk,52,train
63.27104568481445,4,2,0,3,1,5,E+,1,2,1,400,600,250.0,2,e16bk,53,train
143.2180404663086,4,2,0,3,1,5,E+,1,5,5,400,600,250.0,5,e16bk,54,train
127.44498252868652,4,2,0,3,1,5,E+,0,3,3,400,600,250.0,2,e16bk,55,train
95.37315368652344,4,2,0,3,1,5,E+,1,3,3,400,600,250.0,3,e16bk,56,train
79.28681373596191,4,2,0,3,1,5,E+,1,0,2,400,600,250.0,0,e16bk,57,train
0.05602836608886719,4,2,0,3,1,5,E+,1,1,4,400,600,250.0,1,e16bk,58,train
271.27599716186523,4,2,0,3,1,5,E+,1,3,3,400,600,250.0,3,e16bk,59,train
271.3048458099365,4,2,0,3,1,5,E+,1,2,1,400,600,250.0,2,e16bk,60,train
1503.2031536102295,4,2,0,3,1,5,E+,1,1,4,400,600,250.0,1,e16bk,61,train
191.41006469726562,4,2,0,3,1,5,E+,1,3,3,400,600,250.0,3,e16bk,62,train
63.42792510986328,4,2,0,3,1,5,E+,1,2,1,400,600,250.0,2,e16bk,63,train
31.41307830810547,4,2,0,3,1,5,E+,0,4,0,400,600,250.0,3,e16bk,64,train
207.1990966796875,4,2,0,3,1,5,E+,1,2,1,400,600,250.0,2,e16bk,65,train
287.092924118042,4,2,0,3,1,5,E+,1,0,2,400,600,250.0,0,e16bk,66,train
223.1760025024414,4,2,0,3,1,5,E+,1,2,1,400,600,250.0,2,e16bk,67,train
79.4210433959961,4,2,0,3,1,5,E+,1,0,2,400,600,250.0,0,e16bk,68,train
159.21592712402344,4,2,0,3,1,5,E+,1,2,1,400,600,250.0,2,e16bk,69,train
127.2737979888916,4,2,0,3,1,5,E+,1,5,5,400,600,250.0,5,e16bk,70,train
78.71818542480469,4,2,0,3,1,5,E+,1,1,4,400,600,250.0,1,e16bk,71,train
15.278100967407227,4,2,0,3,1,5,E+,1,0,2,400,600,250.0,0,e16bk,72,train
159.18993949890137,4,2,0,3,1,5,E+,1,5,5,400,600,250.0,5,e16bk,73,train
31.43787384033203,4,2,0,3,1,5,E+,1,2,1,400,600,250.0,2,e16bk,74,train
222.72300720214844,4,2,0,3,1,5,E+,1,4,0,400,600,250.0,4,e16bk,75,train
79.2398452758789,4,2,0,3,1,5,E+,1,5,5,400,600,250.0,5,e16bk,76,train
79.30803298950195,4,2,0,3,1,5,E+,0,3,3,400,600,250.0,2,e16bk,77,train
31.176090240478516,4,2,0,3,1,5,E+,1,0,2,400,600,250.0,0,e16bk,78,train
95.2451229095459,4,2,0,3,1,5,E+,1,3,3,400,600,250.0,3,e16bk,79,train
63.421010971069336,4,2,0,3,1,5,E+,1,2,1,400,600,250.0,2,e16bk,80,train
191.3158893585205,4,2,0,3,1,5,E+,1,4,0,400,600,250.0,4,e16bk,81,train
415.1649475097656,4,2,0,3,1,5,E+,1,5,5,400,600,250.0,5,e16bk,82,train
47.46699333190918,4,2,0,3,1,5,E+,1,2,1,400,600,250.0,2,e16bk,83,train
255.32293319702148,4,2,0,3,1,5,E+,1,1,4,400,600,250.0,1,e16bk,84,train
159.29508209228516,4,2,0,3,1,5,E+,1,3,3,400,600,250.0,3,e16bk,85,train
479.1548252105713,4,2,0,3,1,5,E+,1,2,1,400,600,250.0,2,e16bk,86,train
222.49102592468262,4,2,0,3,1,5,E+,1,2,1,400,600,250.0,2,e16bk,87,train
63.42005729675293,4,2,0,3,1,5,E+,1,2,1,400,600,250.0,2,e16bk,88,train
431.2310218811035,4,2,0,3,1,5,E+,1,2,1,400,600,250.0,2,e16bk,89,train
95.19600868225098,4,2,0,3,1,5,E+,1,0,2,400,600,250.0,0,e16bk,90,train
223.3729362487793,4,2,0,3,1,5,E+,1,2,1,400,600,250.0,2,e16bk,91,train
143.41020584106445,4,2,0,3,1,5,E+,1,2,1,400,600,250.0,2,e16bk,92,train
79.37002182006836,4,2,0,3,1,5,E+,0,4,0,400,600,250.0,3,e16bk,93,train
191.3280487060547,4,2,0,3,1,5,E+,1,3,3,400,600,250.0,3,e16bk,94,train
31.300783157348633,4,2,0,3,1,5,E+,1,5,5,400,600,250.0,5,e16bk,95,train
47.30510711669922,4,2,0,3,1,5,E+,1,4,0,400,600,250.0,4,e16bk,96,train
47.271013259887695,4,2,0,3,1,5,E+,1,0,2,400,600,250.0,0,e16bk,97,train
95.19386291503906,4,2,0,3,1,5,E+,1,3,3,400,600,250.0,3,e16bk,98,train
111.40704154968262,4,2,0,3,1,5,E+,1,4,0,400,600,250.0,4,e16bk,99,train
63.4310245513916,4,2,0,3,1,5,E+,1,0,2,400,600,250.0,0,e16bk,100,train
95.43991088867188,4,2,0,3,1,5,E+,1,5,5,400,600,250.0,5,e16bk,101,train
0.050067901611328125,4,2,0,3,1,5,E+,1,0,2,400,600,250.0,0,e16bk,102,train
175.2181053161621,4,2,0,3,1,5,E+,1,5,5,400,600,250.0,5,e16bk,103,train
63.23814392089844,4,2,0,3,1,5,E+,1,3,3,400,600,250.0,3,e16bk,104,train
127.39300727844238,4,2,0,3,1,5,E+,1,2,1,400,600,250.0,2,e16bk,105,train
383.181095123291,4,2,0,3,1,5,E+,1,0,2,400,600,250.0,0,e16bk,106,train
111.4811897277832,4,2,0,3,1,5,E+,1,0,2,400,600,250.0,0,e16bk,107,train
255.3410530090332,4,2,0,3,1,5,E+,1,1,4,400,600,250.0,1,e16bk,108,train
95.22604942321777,4,2,0,3,1,5,E+,1,2,1,400,600,250.0,2,e16bk,109,train
111.17410659790039,4,2,0,3,1,5,E+,1,1,4,400,600,250.0,1,e16bk,110,train
79.45108413696289,4,2,0,3,1,5,E+,1,3,3,400,600,250.0,3,e16bk,111,train
143.341064453125,4,2,0,3,1,5,E+,1,3,3,400,600,250.0,3,e16bk,112,train
31.415939331054688,4,2,0,3,1,5,E+,1,4,0,400,600,250.0,4,e16bk,113,train
127.47907638549805,4,2,0,3,1,5,E+,0,3,3,400,600,250.0,2,e16bk,114,train
270.7390785217285,4,2,0,3,1,5,E+,1,4,0,400,600,250.0,4,e16bk,115,train
271.3658809661865,4,2,0,3,1,5,E+,1,1,4,400,600,250.0,1,e16bk,116,train
223.1922149658203,4,2,0,3,1,5,E+,1,5,5,400,600,250.0,5,e16bk,117,train
175.13298988342285,4,2,0,3,1,5,E+,1,5,5,400,600,250.0,5,e16bk,118,train
191.32089614868164,4,2,0,3,1,5,E+,1,0,2,400,600,250.0,0,e16bk,119,train
143.22400093078613,4,2,0,3,1,5,E+,1,3,3,400,600,250.0,3,e16bk,120,train
79.31709289550781,4,2,0,3,1,5,E+,1,4,0,400,600,250.0,4,e16bk,121,train
95.42584419250488,4,2,0,3,1,5,E+,1,0,2,400,600,250.0,0,e16bk,122,train
111.5109920501709,4,2,0,3,1,5,E+,1,5,5,400,600,250.0,5,e16bk,123,train
143.24092864990234,4,2,0,3,1,5,E+,1,2,1,400,600,250.0,2,e16bk,124,train
47.116994857788086,4,2,0,3,1,5,E+,1,2,1,400,600,250.0,2,e16bk,125,train
47.4390983581543,4,2,0,3,1,5,E+,1,2,1,400,600,250.0,2,e16bk,126,train
255.5079460144043,4,2,0,3,1,5,E+,1,3,3,400,600,250.0,3,e16bk,127,train
239.35317993164062,4,2,0,3,1,5,E+,1,4,0,400,600,250.0,4,e16bk,128,train
207.34000205993652,4,2,0,3,1,5,E+,1,5,5,400,600,250.0,5,e16bk,129,train
255.4469108581543,4,2,0,3,1,5,E+,1,3,3,400,600,250.0,3,e16bk,130,train
111.36698722839355,4,2,0,3,1,5,E+,1,5,5,400,600,250.0,5,e16bk,131,train
159.38401222229004,4,2,0,3,1,5,E+,1,5,5,400,600,250.0,5,e16bk,132,train
159.39807891845703,4,2,0,3,1,5,E+,1,5,5,400,600,250.0,5,e16bk,133,train
95.45207023620605,4,2,0,3,1,5,E+,1,5,5,400,600,250.0,5,e16bk,134,train
127.3658275604248,4,2,0,3,1,5,E+,1,0,2,400,600,250.0,0,e16bk,135,train
127.45118141174316,4,2,0,3,1,5,E+,1,2,1,400,600,250.0,2,e16bk,136,train
79.38098907470703,4,2,0,3,1,5,E+,1,5,5,400,600,250.0,5,e16bk,137,train
63.46702575683594,4,2,0,3,1,5,E+,0,4,0,400,600,250.0,3,e16bk,138,train
271.3351249694824,4,2,0,3,1,5,E+,1,3,3,400,600,250.0,3,e16bk,139,train
111.65499687194824,4,2,0,3,1,5,E+,1,1,4,400,600,250.0,1,e16bk,140,train
191.2238597869873,4,2,0,3,1,5,E+,1,4,0,400,600,250.0,4,e16bk,141,train
111.74201965332031,4,2,0,3,1,5,E+,1,1,4,400,600,250.0,1,e16bk,142,train
143.3708667755127,4,2,0,3,1,5,E+,1,0,2,400,600,250.0,0,e16bk,143,train
127.46691703796387,4,2,0,3,1,5,E+,1,1,4,400,600,250.0,1,e16bk,144,train
191.48683547973633,4,2,0,3,1,5,E+,1,2,1,400,600,250.0,2,e16bk,145,train
79.13994789123535,4,2,0,3,1,5,E+,1,5,5,400,600,250.0,5,e16bk,146,train
63.400983810424805,4,2,0,3,1,5,E+,1,5,5,400,600,250.0,5,e16bk,147,train
63.395023345947266,4,2,0,3,1,5,E+,1,0,2,400,600,250.0,0,e16bk,148,train
111.34004592895508,4,2,0,3,1,5,E+,1,1,4,400,600,250.0,1,e16bk,149,train
158.919095993042,4,2,0,3,1,5,E+,1,4,0,400,600,250.0,4,e16bk,150,train
255.3398609161377,4,2,0,3,1,5,E+,1,4,0,400,600,250.0,4,e16bk,151,train
95.37887573242188,4,2,0,3,1,5,E+,1,4,0,400,600,250.0,4,e16bk,152,train
143.36895942687988,4,2,0,3,1,5,E+,0,2,1,400,600,250.0,3,e16bk,153,train
239.7019863128662,4,2,0,3,1,5,E+,1,5,5,400,600,250.0,5,e16bk,154,train
47.47295379638672,4,2,0,3,1,5,E+,1,4,0,400,600,250.0,4,e16bk,155,train
111.65308952331543,4,2,0,3,1,5,E+,1,4,0,400,600,250.0,4,e16bk,156,train
175.34279823303223,4,2,0,3,1,5,E+,1,2,1,400,600,250.0,2,e16bk,157,train
63.20595741271973,4,2,0,3,1,5,E+,1,0,2,400,600,250.0,0,e16bk,158,train
191.47706031799316,4,2,0,3,1,5,E+,1,4,0,400,600,250.0,4,e16bk,159,train
127.52890586853027,4,2,0,3,1,5,E+,1,3,3,400,600,250.0,3,e16bk,160,train
31.440019607543945,4,2,0,3,1,5,E+,1,0,2,400,600,250.0,0,e16bk,161,train
127.3660659790039,4,2,0,3,1,5,E+,1,4,0,400,600,250.0,4,e16bk,162,train
63.459157943725586,4,2,0,3,1,5,E+,1,2,1,400,600,250.0,2,e16bk,163,train
31.455039978027344,4,2,0,3,1,5,E+,0,1,4,400,600,250.0,2,e16bk,164,train
159.3630313873291,4,2,0,3,1,5,E+,1,1,4,400,600,250.0,1,e16bk,165,train
159.2869758605957,4,2,0,3,1,5,E+,1,0,2,400,600,250.0,0,e16bk,166,train
207.39197731018066,4,2,0,3,1,5,E+,1,4,0,400,600,250.0,4,e16bk,167,train
79.47707176208496,4,2,0,3,1,5,E+,1,1,4,400,600,250.0,1,e16bk,168,train
47.489166259765625,4,2,0,3,1,5,E+,0,2,1,400,600,250.0,1,e16bk,169,train
207.5049877166748,4,2,0,3,1,5,E+,1,4,0,400,600,250.0,4,e16bk,170,train
111.44304275512695,4,2,0,3,1,5,E+,1,4,0,400,600,250.0,4,e16bk,171,train
47.39093780517578,4,2,0,3,1,5,E+,1,5,5,400,600,250.0,5,e16bk,172,train
63.446998596191406,4,2,0,3,1,5,E+,1,1,4,400,600,250.0,1,e16bk,173,train
255.34987449645996,4,2,0,3,1,5,E+,1,4,0,400,600,250.0,4,e16bk,174,train
15.431880950927734,4,2,0,3,1,5,E+,1,2,1,400,600,250.0,2,e16bk,175,train
15.39301872253418,4,2,0,3,1,5,E+,1,4,0,400,600,250.0,4,e16bk,176,train
15.477180480957031,4,2,0,3,1,5,E+,1,0,2,400,600,250.0,0,e16bk,177,train
159.3940258026123,4,2,0,3,1,5,E+,0,3,3,400,600,250.0,4,e16bk,178,train
207.2591781616211,4,2,0,3,1,5,E+,1,5,5,400,600,250.0,5,e16bk,179,train
223.52004051208496,4,2,0,3,1,5,E+,1,4,0,400,600,250.0,4,e16bk,180,train
143.35203170776367,4,2,0,3,1,5,E+,1,5,5,400,600,250.0,5,e16bk,181,train
143.45812797546387,4,2,0,3,1,5,E+,1,3,3,400,600,250.0,3,e16bk,182,train
111.39297485351562,4,2,0,3,1,5,E+,1,4,0,400,600,250.0,4,e16bk,183,train
111.46783828735352,4,2,0,3,1,5,E+,1,2,1,400,600,250.0,2,e16bk,184,train
79.37216758728027,4,2,0,3,1,5,E+,1,2,1,400,600,250.0,2,e16bk,185,train
47.45888710021973,4,2,0,3,1,5,E+,1,5,5,400,600,250.0,5,e16bk,186,train
31.409025192260742,4,2,0,3,1,5,E+,1,5,5,400,600,250.0,5,e16bk,187,train
111.21797561645508,4,2,0,3,1,5,E+,1,5,5,400,600,250.0,5,e16bk,188,train
47.46079444885254,4,2,0,3,1,5,E+,1,4,0,400,600,250.0,4,e16bk,189,train
95.46399116516113,4,2,0,3,1,5,E+,1,1,4,400,600,250.0,1,e16bk,190,train
143.33081245422363,4,2,0,3,1,5,E+,1,5,5,400,600,250.0,5,e16bk,191,train
191.35189056396484,4,2,0,3,1,5,E+,1,1,4,400,600,250.0,1,e16bk,192,train
31.399965286254883,4,2,0,3,1,5,E+,1,0,2,400,600,250.0,0,e16bk,193,train
95.44801712036133,4,2,0,3,1,5,E+,1,2,1,400,600,250.0,2,e16bk,194,train
31.436920166015625,4,2,0,3,1,5,E+,1,5,5,400,600,250.0,5,e16bk,195,train
239.46595191955566,4,2,0,3,1,5,E+,1,2,1,400,600,250.0,2,e16bk,196,train
223.30594062805176,4,2,0,3,1,5,E+,1,1,4,400,600,250.0,1,e16bk,197,train
111.42992973327637,4,2,0,3,1,5,E+,1,2,1,400,600,250.0,2,e16bk,198,train
175.42600631713867,4,2,0,3,1,5,E+,1,2,1,400,600,250.0,2,e16bk,199,train
47.43003845214844,4,2,0,3,1,5,E+,1,0,2,400,600,250.0,0,e16bk,200,train
191.39814376831055,4,2,0,3,1,5,E+,1,3,3,400,600,250.0,3,e16bk,201,train
95.33500671386719,4,2,0,3,1,5,E+,1,1,4,400,600,250.0,1,e16bk,202,train
143.39613914489746,4,2,0,3,1,5,E+,1,4,0,400,600,250.0,4,e16bk,203,train
95.41988372802734,4,2,0,3,1,5,E+,1,0,2,400,600,250.0,0,e16bk,204,train
95.43108940124512,4,2,0,3,1,5,E+,1,1,4,400,600,250.0,1,e16bk,205,train
207.34190940856934,4,2,0,3,1,5,E+,1,1,4,400,600,250.0,1,e16bk,206,train
143.42308044433594,4,2,0,3,1,5,E+,1,4,0,400,600,250.0,4,e16bk,207,train
79.4520378112793,4,2,0,3,1,5,E+,1,5,5,400,600,250.0,5,e16bk,208,train
207.2739601135254,4,2,0,3,1,5,E+,1,0,2,400,600,250.0,0,e16bk,209,train
79.39791679382324,4,2,0,3,1,5,E+,1,4,0,400,600,250.0,4,e16bk,210,train
63.413143157958984,4,2,0,3,1,5,E+,1,2,1,400,600,250.0,2,e16bk,211,train
79.40483093261719,4,2,0,3,1,5,E+,1,5,5,400,600,250.0,5,e16bk,212,train
47.45197296142578,4,2,0,3,1,5,E+,1,1,4,400,600,250.0,1,e16bk,213,train
191.37096405029297,4,2,0,3,1,5,E+,1,2,1,400,600,250.0,2,e16bk,214,train
95.45612335205078,4,2,0,3,1,5,E+,1,4,0,400,600,250.0,4,e16bk,215,train
143.2638168334961,4,2,0,3,1,5,E+,0,3,3,400,600,250.0,2,e16bk,216,train
191.38097763061523,4,2,0,3,1,5,E+,1,1,4,400,600,250.0,1,e16bk,217,train
79.46491241455078,4,2,0,3,1,5,E+,1,0,2,400,600,250.0,0,e16bk,218,train
175.45390129089355,4,2,0,3,1,5,E+,1,5,5,400,600,250.0,5,e16bk,219,train
95.42489051818848,4,2,0,3,1,5,E+,1,4,0,400,600,250.0,4,e16bk,220,train
79.45084571838379,4,2,0,3,1,5,E+,1,5,5,400,600,250.0,5,e16bk,221,train
191.3449764251709,4,2,0,3,1,5,E+,1,5,5,400,600,250.0,5,e16bk,222,train
127.39682197570801,4,2,0,3,1,5,E+,1,5,5,400,600,250.0,5,e16bk,223,train
95.46804428100586,4,2,0,3,1,5,E+,1,5,5,400,600,250.0,5,e16bk,224,train
143.4469223022461,4,2,0,3,1,5,E+,1,3,3,400,600,250.0,3,e16bk,225,train
95.78704833984375,4,2,0,3,1,5,E+,1,0,2,400,600,250.0,0,e16bk,226,train
207.3979377746582,4,2,0,3,1,5,E+,1,3,3,400,600,250.0,3,e16bk,227,train
159.1958999633789,4,2,0,3,1,5,E+,1,2,1,400,600,250.0,2,e16bk,228,train
63.436031341552734,4,2,0,3,1,5,E+,1,0,2,400,600,250.0,0,e16bk,229,train
127.46095657348633,4,2,0,3,1,5,E+,1,5,5,400,600,250.0,5,e16bk,230,train
95.43108940124512,4,2,0,3,1,5,E+,1,4,0,400,600,250.0,4,e16bk,231,train
95.43991088867188,4,2,0,3,1,5,E+,0,2,1,400,600,250.0,3,e16bk,232,train
95.40891647338867,4,2,0,3,1,5,E+,1,0,2,400,600,250.0,0,e16bk,233,train
95.46399116516113,4,2,0,3,1,5,E+,1,5,5,400,600,250.0,5,e16bk,234,train
79.43391799926758,4,2,0,3,1,5,E+,1,4,0,400,600,250.0,4,e16bk,235,train
111.96684837341309,4,2,0,3,1,5,E+,1,1,4,400,600,250.0,1,e16bk,236,train
128.03316116333008,4,2,0,3,1,5,E+,1,2,1,400,600,250.0,2,e16bk,237,train
64.04805183410645,4,2,0,3,1,5,E+,1,4,0,400,600,250.0,4,e16bk,238,train
175.86493492126465,4,2,0,3,1,5,E+,1,2,1,400,600,250.0,2,e16bk,239,train
175.89306831359863,4,2,0,3,1,5,E+,1,3,3,400,600,250.0,3,e16bk,240,train
367.88010597229004,4,2,0,3,1,5,E+,1,4,0,400,600,250.0,4,e16bk,241,train
111.92607879638672,4,2,0,3,1,5,E+,1,1,4,400,600,250.0,1,e16bk,242,train
143.49699020385742,4,2,0,3,1,5,E+,1,4,0,400,600,250.0,4,e16bk,243,train
95.96395492553711,4,2,0,3,1,5,E+,1,5,5,400,600,250.0,5,e16bk,244,train
63.98797035217285,4,2,0,3,1,5,E+,1,1,4,400,600,250.0,1,e16bk,245,train
191.9839382171631,4,2,0,3,1,5,E+,1,3,3,400,600,250.0,3,e16bk,246,train
152.4970531463623,4,2,0,3,1,5,E+,1,3,3,400,600,250.0,3,e16bk,247,train
63.97604942321777,4,2,0,3,1,5,E+,1,4,0,400,600,250.0,4,e16bk,248,train
47.770023345947266,4,2,0,3,1,5,E+,1,5,5,400,600,250.0,5,e16bk,249,train
608.5860729217529,4,2,0,3,1,5,E+,1,0,2,0,1000,250.0,0,e16bk,250,test
640.5730247497559,4,2,0,3,1,5,E+,1,2,1,0,1000,250.0,2,e16bk,251,test
560.6541633605957,4,2,0,3,1,5,E+,1,3,3,0,1000,250.0,3,e16bk,252,test
592.3929214477539,4,2,0,3,1,5,E+,1,0,2,0,1000,250.0,0,e16bk,253,test
720.6470966339111,4,2,0,3,1,5,E+,1,2,1,0,1000,250.0,2,e16bk,254,test
512.916088104248,4,2,0,3,1,5,E+,1,0,2,0,1000,250.0,0,e16bk,255,test
432.6188564300537,4,2,0,3,1,5,E+,1,2,1,0,1000,250.0,2,e16bk,256,test
512.9499435424805,4,2,0,3,1,5,E+,1,5,5,0,1000,250.0,5,e16bk,257,test
592.6120281219482,4,2,0,3,1,5,E+,1,2,1,0,1000,250.0,2,e16bk,258,test
480.64398765563965,4,2,0,3,1,5,E+,1,5,5,0,1000,250.0,5,e16bk,259,test
496.6568946838379,4,2,0,3,1,5,E+,1,4,0,0,1000,250.0,4,e16bk,260,test
384.9301338195801,4,2,0,3,1,5,E+,1,5,5,0,1000,250.0,5,e16bk,261,test
544.6450710296631,4,2,0,3,1,5,E+,1,2,1,0,1000,250.0,2,e16bk,262,test
496.40917778015137,4,2,0,3,1,5,E+,1,4,0,0,1000,250.0,4,e16bk,263,test
2336.686134338379,4,2,0,3,1,5,E+,1,1,4,0,1000,250.0,1,e16bk,264,test
464.60700035095215,4,2,0,3,1,5,E+,1,1,4,0,1000,250.0,1,e16bk,265,test
448.9128589630127,4,2,0,3,1,5,E+,1,2,1,0,1000,250.0,2,e16bk,266,test
401.05700492858887,4,2,0,3,1,5,E+,0,4,0,0,1000,250.0,0,e16bk,267,test
529.0999412536621,4,2,0,3,1,5,E+,1,4,0,0,1000,250.0,4,e16bk,268,test
512.9849910736084,4,2,0,3,1,5,E+,1,3,3,0,1000,250.0,3,e16bk,269,test
497.12419509887695,4,2,0,3,1,5,E+,1,1,4,0,1000,250.0,1,e16bk,270,test
464.5648002624512,4,2,0,3,1,5,E+,1,1,4,0,1000,250.0,1,e16bk,271,test
417.1280860900879,4,2,0,3,1,5,E+,1,3,3,0,1000,250.0,3,e16bk,272,test
321.12693786621094,4,2,0,3,1,5,E+,1,5,5,0,1000,250.0,5,e16bk,273,test
529.0851593017578,4,2,0,3,1,5,E+,1,3,3,0,1000,250.0,3,e16bk,274,test
496.7031478881836,4,2,0,3,1,5,E+,1,5,5,0,1000,250.0,5,e16bk,275,test
561.0840320587158,4,2,0,3,1,5,E+,1,4,0,0,1000,250.0,4,e16bk,276,test
513.1018161773682,4,2,0,3,1,5,E+,1,4,0,0,1000,250.0,4,e16bk,277,test
497.12204933166504,4,2,0,3,1,5,E+,1,1,4,0,1000,250.0,1,e16bk,278,test
416.7211055755615,4,2,0,3,1,5,E+,0,4,0,0,1000,250.0,1,e16bk,279,test
496.9480037689209,4,2,0,3,1,5,E+,1,3,3,0,1000,250.0,3,e16bk,280,test
401.0810852050781,4,2,0,3,1,5,E+,1,4,0,0,1000,250.0,4,e16bk,281,test
400.64406394958496,4,2,0,3,1,5,E+,0,3,3,0,1000,250.0,5,e16bk,282,test
497.06411361694336,4,2,0,3,1,5,E+,1,3,3,0,1000,250.0,3,e16bk,283,test
529.0069580078125,4,2,0,3,1,5,E+,1,1,4,0,1000,250.0,1,e16bk,284,test
513.0529403686523,4,2,0,3,1,5,E+,1,2,1,0,1000,250.0,2,e16bk,285,test
401.0810852050781,4,2,0,3,1,5,E+,1,0,2,0,1000,250.0,0,e16bk,286,test
513.0062103271484,4,2,0,3,1,5,E+,1,5,5,0,1000,250.0,5,e16bk,287,test
449.08714294433594,4,2,0,3,1,5,E+,0,0,2,0,1000,250.0,2,e16bk,288,test
481.1251163482666,4,2,0,3,1,5,E+,1,3,3,0,1000,250.0,3,e16bk,289,test
497.1280097961426,4,2,0,3,1,5,E+,1,0,2,0,1000,250.0,0,e16bk,290,test
433.05397033691406,4,2,0,3,1,5,E+,1,5,5,0,1000,250.0,5,e16bk,291,test
464.90979194641113,4,2,0,3,1,5,E+,1,3,3,0,1000,250.0,3,e16bk,292,test
432.9209327697754,4,2,0,3,1,5,E+,1,3,3,0,1000,250.0,3,e16bk,293,test
576.9128799438477,4,2,0,3,1,5,E+,1,1,4,0,1000,250.0,1,e16bk,294,test
528.9831161499023,4,2,0,3,1,5,E+,1,2,1,0,1000,250.0,2,e16bk,295,test
528.904914855957,4,2,0,3,1,5,E+,1,0,2,0,1000,250.0,0,e16bk,296,test
480.8821678161621,4,2,0,3,1,5,E+,0,1,4,0,1000,250.0,4,e16bk,297,test
496.67906761169434,4,2,0,3,1,5,E+,1,3,3,0,1000,250.0,3,e16bk,298,test
576.9460201263428,4,2,0,3,1,5,E+,1,4,0,0,1000,250.0,4,e16bk,299,test
496.96898460388184,4,2,0,3,1,5,E+,1,0,2,0,1000,250.0,0,e16bk,300,test
464.9641513824463,4,2,0,3,1,5,E+,1,5,5,0,1000,250.0,5,e16bk,301,test
576.9999027252197,4,2,0,3,1,5,E+,1,1,4,0,1000,250.0,1,e16bk,302,test
545.0000762939453,4,2,0,3,1,5,E+,1,0,2,0,1000,250.0,0,e16bk,303,test
544.5461273193359,4,2,0,3,1,5,E+,1,2,1,0,1000,250.0,2,e16bk,304,test
480.44300079345703,4,2,0,3,1,5,E+,1,5,5,0,1000,250.0,5,e16bk,305,test
608.576774597168,4,2,0,3,1,5,E+,1,2,1,0,1000,250.0,2,e16bk,306,test
560.6770515441895,4,2,0,3,1,5,E+,1,2,1,0,1000,250.0,2,e16bk,307,test
560.9309673309326,4,2,0,3,1,5,E+,1,1,4,0,1000,250.0,1,e16bk,308,test
448.9741325378418,4,2,0,3,1,5,E+,1,5,5,0,1000,250.0,5,e16bk,309,test
480.8201789855957,4,2,0,3,1,5,E+,1,4,0,0,1000,250.0,4,e16bk,310,test
752.4299621582031,4,2,0,3,1,5,E+,1,0,2,0,1000,250.0,0,e16bk,311,test
464.53309059143066,4,2,0,3,1,5,E+,0,0,2,0,1000,250.0,1,e16bk,312,test
1056.617021560669,4,2,0,3,1,5,E+,1,2,1,0,1000,250.0,2,e16bk,313,test
528.8791656494141,4,2,0,3,1,5,E+,1,3,3,0,1000,250.0,3,e16bk,314,test
384.9000930786133,4,2,0,3,1,5,E+,0,3,3,0,1000,250.0,2,e16bk,315,test
384.9449157714844,4,2,0,3,1,5,E+,1,3,3,0,1000,250.0,3,e16bk,316,test
448.98295402526855,4,2,0,3,1,5,E+,1,5,5,0,1000,250.0,5,e16bk,317,test
528.9521217346191,4,2,0,3,1,5,E+,1,0,2,0,1000,250.0,0,e16bk,318,test
545.0351238250732,4,2,0,3,1,5,E+,1,4,0,0,1000,250.0,4,e16bk,319,test
401.137113571167,4,2,0,3,1,5,E+,1,5,5,0,1000,250.0,5,e16bk,320,test
512.9439830780029,4,2,0,3,1,5,E+,1,4,0,0,1000,250.0,4,e16bk,321,test
688.9181137084961,4,2,0,3,1,5,E+,1,1,4,0,1000,250.0,1,e16bk,322,test
496.8581199645996,4,2,0,3,1,5,E+,1,0,2,0,1000,250.0,0,e16bk,323,test
352.8940677642822,4,2,0,3,1,5,E+,0,4,0,0,1000,250.0,0,e16bk,324,test
561.0170364379883,4,2,0,3,1,5,E+,1,4,0,0,1000,250.0,4,e16bk,325,test
608.9279651641846,4,2,0,3,1,5,E+,1,5,5,0,1000,250.0,5,e16bk,326,test
512.7890110015869,4,2,0,3,1,5,E+,1,0,2,0,1000,250.0,0,e16bk,327,test
513.1330490112305,4,2,0,3,1,5,E+,1,1,4,0,1000,250.0,1,e16bk,328,test
1360.9039783477783,4,2,0,3,1,5,E+,1,4,0,0,1000,250.0,4,e16bk,329,test
480.5769920349121,4,2,0,3,1,5,E+,1,0,2,0,1000,250.0,0,e16bk,330,test
673.1090545654297,4,2,0,3,1,5,E+,1,3,3,0,1000,250.0,3,e16bk,331,test
513.1301879882812,4,2,0,3,1,5,E+,0,2,1,0,1000,250.0,1,e16bk,332,test
592.8540229797363,4,2,0,3,1,5,E+,1,0,2,0,1000,250.0,0,e16bk,333,test
432.919979095459,4,2,0,3,1,5,E+,1,0,2,0,1000,250.0,0,e16bk,334,test
496.8860149383545,4,2,0,3,1,5,E+,1,3,3,0,1000,250.0,3,e16bk,335,test
416.903018951416,4,2,0,3,1,5,E+,1,5,5,0,1000,250.0,5,e16bk,336,test
496.92296981811523,4,2,0,3,1,5,E+,1,4,0,0,1000,250.0,4,e16bk,337,test
433.121919631958,4,2,0,3,1,5,E+,0,5,5,0,1000,250.0,3,e16bk,338,test
497.19715118408203,4,2,0,3,1,5,E+,1,4,0,0,1000,250.0,4,e16bk,339,test
448.9099979400635,4,2,0,3,1,5,E+,1,4,0,0,1000,250.0,4,e16bk,340,test
512.9330158233643,4,2,0,3,1,5,E+,1,0,2,0,1000,250.0,0,e16bk,341,test
512.9380226135254,4,2,0,3,1,5,E+,1,3,3,0,1000,250.0,3,e16bk,342,test
464.92886543273926,4,2,0,3,1,5,E+,1,4,0,0,1000,250.0,4,e16bk,343,test
416.93997383117676,4,2,0,3,1,5,E+,1,2,1,0,1000,250.0,2,e16bk,344,test
448.9259719848633,4,2,0,3,1,5,E+,1,4,0,0,1000,250.0,4,e16bk,345,test
528.6049842834473,4,2,0,3,1,5,E+,1,5,5,0,1000,250.0,5,e16bk,346,test
576.9190788269043,4,2,0,3,1,5,E+,1,0,2,0,1000,250.0,0,e16bk,347,test
208.7268829345703,4,2,0,3,1,5,E+,0,0,2,0,1000,250.0,2,e16bk,348,test
480.88598251342773,4,2,0,3,1,5,E+,1,0,2,0,1000,250.0,0,e16bk,349,test
400.88486671447754,4,2,0,3,1,5,E+,0,5,5,0,1000,250.0,0,e16bk,350,test
609.0939044952393,4,2,0,3,1,5,E+,1,1,4,0,1000,250.0,1,e16bk,351,test
448.86183738708496,4,2,0,3,1,5,E+,1,4,0,0,1000,250.0,4,e16bk,352,test
560.9328746795654,4,2,0,3,1,5,E+,1,2,1,0,1000,250.0,2,e16bk,353,test
592.8840637207031,4,2,0,3,1,5,E+,1,5,5,0,1000,250.0,5,e16bk,354,test
577.0161151885986,4,2,0,3,1,5,E+,1,1,4,0,1000,250.0,1,e16bk,355,test
497.114896774292,4,2,0,3,1,5,E+,1,5,5,0,1000,250.0,5,e16bk,356,test
400.93111991882324,4,2,0,3,1,5,E+,1,5,5,0,1000,250.0,5,e16bk,357,test
513.098955154419,4,2,0,3,1,5,E+,1,4,0,0,1000,250.0,4,e16bk,358,test
560.4848861694336,4,2,0,3,1,5,E+,1,3,3,0,1000,250.0,3,e16bk,359,test
720.6659317016602,4,2,0,3,1,5,E+,1,2,1,0,1000,250.0,2,e16bk,360,test
464.85400199890137,4,2,0,3,1,5,E+,0,1,4,0,1000,250.0,4,e16bk,361,test
480.694055557251,4,2,0,3,1,5,E+,1,2,1,0,1000,250.0,2,e16bk,362,test
480.5009365081787,4,2,0,3,1,5,E+,1,5,5,0,1000,250.0,5,e16bk,363,test
544.4159507751465,4,2,0,3,1,5,E+,1,1,4,0,1000,250.0,1,e16bk,364,test
544.4409847259521,4,2,0,3,1,5,E+,1,2,1,0,1000,250.0,2,e16bk,365,test
544.6629524230957,4,2,0,3,1,5,E+,1,3,3,0,1000,250.0,3,e16bk,366,test
528.6359786987305,4,2,0,3,1,5,E+,1,1,4,0,1000,250.0,1,e16bk,367,test
464.39504623413086,4,2,0,3,1,5,E+,0,0,2,0,1000,250.0,2,e16bk,368,test
576.7641067504883,4,2,0,3,1,5,E+,1,1,4,0,1000,250.0,1,e16bk,369,test
480.518102645874,4,2,0,3,1,5,E+,1,1,4,0,1000,250.0,1,e16bk,370,test
528.4600257873535,4,2,0,3,1,5,E+,1,5,5,0,1000,250.0,5,e16bk,371,test
496.60396575927734,4,2,0,3,1,5,E+,1,2,1,0,1000,250.0,2,e16bk,372,test
448.4579563140869,4,2,0,3,1,5,E+,1,1,4,0,1000,250.0,1,e16bk,373,test
480.4198741912842,4,2,0,3,1,5,E+,1,0,2,0,1000,250.0,0,e16bk,374,test
1008.6719989776611,4,2,0,3,1,5,E+,1,4,0,0,1000,250.0,4,e16bk,375,test
448.38404655456543,4,2,0,3,1,5,E+,0,1,4,0,1000,250.0,4,e16bk,376,test
544.5821285247803,4,2,0,3,1,5,E+,1,2,1,0,1000,250.0,2,e16bk,377,test
496.41895294189453,4,2,0,3,1,5,E+,1,3,3,0,1000,250.0,3,e16bk,378,test
560.5230331420898,4,2,0,3,1,5,E+,1,3,3,0,1000,250.0,3,e16bk,379,test
560.4510307312012,4,2,0,3,1,5,E+,1,0,2,0,1000,250.0,0,e16bk,380,test
672.6090908050537,4,2,0,3,1,5,E+,1,0,2,0,1000,250.0,0,e16bk,381,test
512.4449729919434,4,2,0,3,1,5,E+,1,2,1,0,1000,250.0,2,e16bk,382,test
544.5020198822021,4,2,0,3,1,5,E+,1,3,3,0,1000,250.0,3,e16bk,383,test
592.5109386444092,4,2,0,3,1,5,E+,1,4,0,0,1000,250.0,4,e16bk,384,test
592.1258926391602,4,2,0,3,1,5,E+,1,4,0,0,1000,250.0,4,e16bk,385,test
480.38506507873535,4,2,0,3,1,5,E+,1,3,3,0,1000,250.0,3,e16bk,386,test
496.5951442718506,4,2,0,3,1,5,E+,1,1,4,0,1000,250.0,1,e16bk,387,test
448.6050605773926,4,2,0,3,1,5,E+,1,5,5,0,1000,250.0,5,e16bk,388,test
544.4951057434082,4,2,0,3,1,5,E+,1,3,3,0,1000,250.0,3,e16bk,389,test
576.5101909637451,4,2,0,3,1,5,E+,1,1,4,0,1000,250.0,1,e16bk,390,test
608.4949970245361,4,2,0,3,1,5,E+,1,4,0,0,1000,250.0,4,e16bk,391,test
512.4220848083496,4,2,0,3,1,5,E+,1,5,5,0,1000,250.0,5,e16bk,392,test
480.6079864501953,4,2,0,3,1,5,E+,1,5,5,0,1000,250.0,5,e16bk,393,test
576.8740177154541,4,2,0,3,1,5,E+,1,2,1,0,1000,250.0,2,e16bk,394,test
512.4330520629883,4,2,0,3,1,5,E+,1,5,5,0,1000,250.0,5,e16bk,395,test
512.7270221710205,4,2,0,3,1,5,E+,1,0,2,0,1000,250.0,0,e16bk,396,test
400.60901641845703,4,2,0,3,1,5,E+,0,0,2,0,1000,250.0,2,e16bk,397,test
464.65587615966797,4,2,0,3,1,5,E+,1,5,5,0,1000,250.0,5,e16bk,398,test
400.4089832305908,4,2,0,3,1,5,E+,1,5,5,0,1000,250.0,5,e16bk,399,test
512.7649307250977,4,2,0,3,1,5,E+,1,3,3,0,1000,250.0,3,e16bk,400,test
448.46391677856445,4,2,0,3,1,5,E+,1,5,5,0,1000,250.0,5,e16bk,401,test
560.7388019561768,4,2,0,3,1,5,E+,1,1,4,0,1000,250.0,1,e16bk,402,test
432.44004249572754,4,2,0,3,1,5,E+,1,1,4,0,1000,250.0,1,e16bk,403,test
544.5308685302734,4,2,0,3,1,5,E+,1,2,1,0,1000,250.0,2,e16bk,404,test
368.3938980102539,4,2,0,3,1,5,E+,1,2,1,0,1000,250.0,2,e16bk,405,test
416.4319038391113,4,2,0,3,1,5,E+,1,2,1,0,1000,250.0,2,e16bk,406,test
448.72522354125977,4,2,0,3,1,5,E+,1,0,2,0,1000,250.0,0,e16bk,407,test
432.43408203125,4,2,0,3,1,5,E+,1,2,1,0,1000,250.0,2,e16bk,408,test
544.7361469268799,4,2,0,3,1,5,E+,1,3,3,0,1000,250.0,3,e16bk,409,test
384.45591926574707,4,2,0,3,1,5,E+,1,3,3,0,1000,250.0,3,e16bk,410,test
416.4080619812012,4,2,0,3,1,5,E+,1,5,5,0,1000,250.0,5,e16bk,411,test
224.40195083618164,4,2,0,3,1,5,E+,1,5,5,0,1000,250.0,5,e16bk,412,test
496.8218803405762,4,2,0,3,1,5,E+,1,0,2,0,1000,250.0,0,e16bk,413,test
256.3951015472412,4,2,0,3,1,5,E+,1,0,2,0,1000,250.0,0,e16bk,414,test
432.1417808532715,4,2,0,3,1,5,E+,1,0,2,0,1000,250.0,0,e16bk,415,test
464.62297439575195,4,2,0,3,1,5,E+,1,2,1,0,1000,250.0,2,e16bk,416,test
544.5559024810791,4,2,0,3,1,5,E+,1,4,0,0,1000,250.0,4,e16bk,417,test
432.3999881744385,4,2,0,3,1,5,E+,1,0,2,0,1000,250.0,0,e16bk,418,test
432.47103691101074,4,2,0,3,1,5,E+,1,0,2,0,1000,250.0,0,e16bk,419,test
432.4820041656494,4,2,0,3,1,5,E+,1,3,3,0,1000,250.0,3,e16bk,420,test
432.50393867492676,4,2,0,3,1,5,E+,1,5,5,0,1000,250.0,5,e16bk,421,test
512.6211643218994,4,2,0,3,1,5,E+,1,3,3,0,1000,250.0,3,e16bk,422,test
496.40917778015137,4,2,0,3,1,5,E+,1,0,2,0,1000,250.0,0,e16bk,423,test
512.4108791351318,4,2,0,3,1,5,E+,1,3,3,0,1000,250.0,3,e16bk,424,test
512.4430656433105,4,2,0,3,1,5,E+,1,4,0,0,1000,250.0,4,e16bk,425,test
416.3990020751953,4,2,0,3,1,5,E+,1,4,0,0,1000,250.0,4,e16bk,426,test
496.43492698669434,4,2,0,3,1,5,E+,1,1,4,0,1000,250.0,1,e16bk,427,test
352.71716117858887,4,2,0,3,1,5,E+,1,1,4,0,1000,250.0,1,e16bk,428,test
480.3900718688965,4,2,0,3,1,5,E+,1,4,0,0,1000,250.0,4,e16bk,429,test
336.52591705322266,4,2,0,3,1,5,E+,0,1,4,0,1000,250.0,4,e16bk,430,test
448.5430717468262,4,2,0,3,1,5,E+,0,4,0,0,1000,250.0,1,e16bk,431,test
528.5749435424805,4,2,0,3,1,5,E+,1,3,3,0,1000,250.0,3,e16bk,432,test
400.60901641845703,4,2,0,3,1,5,E+,0,4,0,0,1000,250.0,5,e16bk,433,test
496.6299533843994,4,2,0,3,1,5,E+,1,2,1,0,1000,250.0,2,e16bk,434,test
496.6001510620117,4,2,0,3,1,5,E+,1,0,2,0,1000,250.0,0,e16bk,435,test
496.45400047302246,4,2,0,3,1,5,E+,1,0,2,0,1000,250.0,0,e16bk,436,test
512.4437808990479,4,2,0,3,1,5,E+,1,5,5,0,1000,250.0,5,e16bk,437,test
448.3809471130371,4,2,0,3,1,5,E+,1,5,5,0,1000,250.0,5,e16bk,438,test
480.4530143737793,4,2,0,3,1,5,E+,1,0,2,0,1000,250.0,0,e16bk,439,test
512.6049518585205,4,2,0,3,1,5,E+,1,5,5,0,1000,250.0,5,e16bk,440,test
416.7039394378662,4,2,0,3,1,5,E+,1,5,5,0,1000,250.0,5,e16bk,441,test
384.41991806030273,4,2,0,3,1,5,E+,1,5,5,0,1000,250.0,5,e16bk,442,test
496.474027633667,4,2,0,3,1,5,E+,1,4,0,0,1000,250.0,4,e16bk,443,test
544.4850921630859,4,2,0,3,1,5,E+,1,1,4,0,1000,250.0,1,e16bk,444,test
512.2570991516113,4,2,0,3,1,5,E+,1,0,2,0,1000,250.0,0,e16bk,445,test
544.4209575653076,4,2,0,3,1,5,E+,1,2,1,0,1000,250.0,2,e16bk,446,test
512.516975402832,4,2,0,3,1,5,E+,1,3,3,0,1000,250.0,3,e16bk,447,test
432.5292110443115,4,2,0,3,1,5,E+,1,1,4,0,1000,250.0,1,e16bk,448,test
480.5178642272949,4,2,0,3,1,5,E+,1,4,0,0,1000,250.0,4,e16bk,449,test
464.6139144897461,4,2,0,3,1,5,E+,1,1,4,0,1000,250.0,1,e16bk,450,test
512.6039981842041,4,2,0,3,1,5,E+,1,3,3,0,1000,250.0,3,e16bk,451,test
432.4769973754883,4,2,0,3,1,5,E+,1,5,5,0,1000,250.0,5,e16bk,452,test
384.4280242919922,4,2,0,3,1,5,E+,0,3,3,0,1000,250.0,5,e16bk,453,test
448.9710330963135,4,2,0,3,1,5,E+,1,5,5,0,1000,250.0,5,e16bk,454,test
496.4890480041504,4,2,0,3,1,5,E+,1,5,5,0,1000,250.0,5,e16bk,455,test
336.5139961242676,4,2,0,3,1,5,E+,1,5,5,0,1000,250.0,5,e16bk,456,test
432.5599670410156,4,2,0,3,1,5,E+,1,2,1,0,1000,250.0,2,e16bk,457,test
528.4440517425537,4,2,0,3,1,5,E+,1,1,4,0,1000,250.0,1,e16bk,458,test
336.5299701690674,4,2,0,3,1,5,E+,1,1,4,0,1000,250.0,1,e16bk,459,test
496.4940547943115,4,2,0,3,1,5,E+,1,2,1,0,1000,250.0,2,e16bk,460,test
224.55501556396484,4,2,0,3,1,5,E+,0,1,4,0,1000,250.0,2,e16bk,461,test
528.6200046539307,4,2,0,3,1,5,E+,0,4,0,0,1000,250.0,1,e16bk,462,test
576.6289234161377,4,2,0,3,1,5,E+,1,0,2,0,1000,250.0,0,e16bk,463,test
384.60516929626465,4,2,0,3,1,5,E+,1,2,1,0,1000,250.0,2,e16bk,464,test
384.39202308654785,4,2,0,3,1,5,E+,0,3,3,0,1000,250.0,1,e16bk,465,test
496.4489936828613,4,2,0,3,1,5,E+,1,5,5,0,1000,250.0,5,e16bk,466,test
528.3670425415039,4,2,0,3,1,5,E+,1,1,4,0,1000,250.0,1,e16bk,467,test
544.619083404541,4,2,0,3,1,5,E+,1,5,5,0,1000,250.0,5,e16bk,468,test
560.5909824371338,4,2,0,3,1,5,E+,1,1,4,0,1000,250.0,1,e16bk,469,test
576.4570236206055,4,2,0,3,1,5,E+,1,1,4,0,1000,250.0,1,e16bk,470,test
480.4060459136963,4,2,0,3,1,5,E+,1,5,5,0,1000,250.0,5,e16bk,471,test
496.5100288391113,4,2,0,3,1,5,E+,1,2,1,0,1000,250.0,2,e16bk,472,test
560.5309009552002,4,2,0,3,1,5,E+,1,0,2,0,1000,250.0,0,e16bk,473,test
496.2489604949951,4,2,0,3,1,5,E+,1,3,3,0,1000,250.0,3,e16bk,474,test
528.3851623535156,4,2,0,3,1,5,E+,1,3,3,0,1000,250.0,3,e16bk,475,test
560.8341693878174,4,2,0,3,1,5,E+,1,2,1,0,1000,250.0,2,e16bk,476,test
528.5069942474365,4,2,0,3,1,5,E+,1,4,0,0,1000,250.0,4,e16bk,477,test
448.3909606933594,4,2,0,3,1,5,E+,1,5,5,0,1000,250.0,5,e16bk,478,test
528.4950733184814,4,2,0,3,1,5,E+,1,1,4,0,1000,250.0,1,e16bk,479,test
496.4768886566162,4,2,0,3,1,5,E+,1,2,1,0,1000,250.0,2,e16bk,480,test
512.5510692596436,4,2,0,3,1,5,E+,1,3,3,0,1000,250.0,3,e16bk,481,test
496.6301918029785,4,2,0,3,1,5,E+,1,0,2,0,1000,250.0,0,e16bk,482,test
576.5781402587891,4,2,0,3,1,5,E+,1,1,4,0,1000,250.0,1,e16bk,483,test
512.3450756072998,4,2,0,3,1,5,E+,1,0,2,0,1000,250.0,0,e16bk,484,test
496.54507637023926,4,2,0,3,1,5,E+,1,1,4,0,1000,250.0,1,e16bk,485,test
576.4150619506836,4,2,0,3,1,5,E+,1,1,4,0,1000,250.0,1,e16bk,486,test
560.3430271148682,4,2,0,3,1,5,E+,1,1,4,0,1000,250.0,1,e16bk,487,test
512.4809741973877,4,2,0,3,1,5,E+,1,0,2,0,1000,250.0,0,e16bk,488,test
480.44896125793457,4,2,0,3,1,5,E+,1,1,4,0,1000,250.0,1,e16bk,489,test
496.39081954956055,4,2,0,3,1,5,E+,1,2,1,0,1000,250.0,2,e16bk,490,test
480.56602478027344,4,2,0,3,1,5,E+,1,5,5,0,1000,250.0,5,e16bk,491,test
528.5279750823975,4,2,0,3,1,5,E+,1,1,4,0,1000,250.0,1,e16bk,492,test
608.4940433502197,4,2,0,3,1,5,E+,0,4,0,0,1000,250.0,1,e16bk,493,test
528.4590721130371,4,2,0,3,1,5,E+,0,4,0,0,1000,250.0,1,e16bk,494,test
432.3890209197998,4,2,0,3,1,5,E+,1,5,5,0,1000,250.0,5,e16bk,495,test
480.40080070495605,4,2,0,3,1,5,E+,1,3,3,0,1000,250.0,3,e16bk,496,test
384.71388816833496,4,2,0,3,1,5,E+,1,5,5,0,1000,250.0,5,e16bk,497,test
528.8050174713135,4,2,0,3,1,5,E+,1,1,4,0,1000,250.0,1,e16bk,498,test
528.4318923950195,4,2,0,3,1,5,E+,1,3,3,0,1000,250.0,3,e16bk,499,test
