RT,SRmap_0,SRmap_1,SRmap_2,SRmap_3,SRmap_4,SRmap_5,condition,correct,correct_response,curstim,ms-precue,ms-prestimblank,ntrials,response,subject,trial,type
2988.685131072998,4,5,2,0,3,1,H-,1,5,1,0,1000,250.0,5,D13JC,0,train
1665.0378704071045,4,5,2,0,3,1,H-,1,0,3,0,1000,250.0,0,D13JC,1,train
1728.8258075714111,4,5,2,0,3,1,H-,1,4,0,0,1000,250.0,4,D13JC,2,train
1232.903003692627,4,5,2,0,3,1,H-,1,3,4,0,1000,250.0,3,D13JC,3,train
1809.103012084961,4,5,2,0,3,1,H-,1,4,0,0,1000,250.0,4,D13JC,4,train
1329.0948867797852,4,5,2,0,3,1,H-,1,4,0,0,1000,250.0,4,D13JC,5,train
1024.9898433685303,4,5,2,0,3,1,H-,1,1,5,0,1000,250.0,1,D13JC,6,train
832.8671455383301,4,5,2,0,3,1,H-,1,0,3,0,1000,250.0,0,D13JC,7,train
1312.882900238037,4,5,2,0,3,1,H-,1,3,4,0,1000,250.0,3,D13JC,8,train
1008.8129043579102,4,5,2,0,3,1,H-,1,0,3,0,1000,250.0,0,D13JC,9,train
704.8189640045166,4,5,2,0,3,1,H-,1,1,5,0,1000,250.0,1,D13JC,10,train
944.8528289794922,4,5,2,0,3,1,H-,1,3,4,0,1000,250.0,3,D13JC,11,train
832.8649997711182,4,5,2,0,3,1,H-,1,3,4,0,1000,250.0,3,D13JC,12,train
1040.8909320831299,4,5,2,0,3,1,H-,1,3,4,0,1000,250.0,3,D13JC,13,train
624.8109340667725,4,5,2,0,3,1,H-,1,3,4,0,1000,250.0,3,D13JC,14,train
1841.0608768463135,4,5,2,0,3,1,H-,1,2,2,0,1000,250.0,2,D13JC,15,train
768.841028213501,4,5,2,0,3,1,H-,1,0,3,0,1000,250.0,0,D13JC,16,train
896.7819213867188,4,5,2,0,3,1,H-,1,3,4,0,1000,250.0,3,D13JC,17,train
880.7809352874756,4,5,2,0,3,1,H-,1,2,2,0,1000,250.0,2,D13JC,18,train
832.8249454498291,4,5,2,0,3,1,H-,1,3,4,0,1000,250.0,3,D13JC,19,train
704.7460079193115,4,5,2,0,3,1,H-,1,5,1,0,1000,250.0,5,D13JC,20,train
800.7919788360596,4,5,2,0,3,1,H-,1,3,4,0,1000,250.0,3,D13JC,21,train
832.7939510345459,4,5,2,0,3,1,H-,1,2,2,0,1000,250.0,2,D13JC,22,train
1456.8359851837158,4,5,2,0,3,1,H-,1,4,0,0,1000,250.0,4,D13JC,23,train
624.8409748077393,4,5,2,0,3,1,H-,1,4,0,0,1000,250.0,4,D13JC,24,train
592.8118228912354,4,5,2,0,3,1,H-,1,5,1,0,1000,250.0,5,D13JC,25,train
673.0408668518066,4,5,2,0,3,1,H-,1,0,3,0,1000,250.0,0,D13JC,26,train
641.1030292510986,4,5,2,0,3,1,H-,0,3,4,0,1000,250.0,4,D13JC,27,train
689.0249252319336,4,5,2,0,3,1,H-,1,5,1,0,1000,250.0,5,D13JC,28,train
961.1039161682129,4,5,2,0,3,1,H-,1,0,3,0,1000,250.0,0,D13JC,29,train
560.6029033660889,4,5,2,0,3,1,H-,0,0,3,0,1000,250.0,1,D13JC,30,train
928.8380146026611,4,5,2,0,3,1,H-,1,4,0,0,1000,250.0,4,D13JC,31,train
1504.706859588623,4,5,2,0,3,1,H-,1,3,4,0,1000,250.0,3,D13JC,32,train
1104.827880859375,4,5,2,0,3,1,H-,1,3,4,0,1000,250.0,3,D13JC,33,train
576.8530368804932,4,5,2,0,3,1,H-,1,3,4,0,1000,250.0,3,D13JC,34,train
832.8020572662354,4,5,2,0,3,1,H-,1,2,2,0,1000,250.0,2,D13JC,35,train
657.1011543273926,4,5,2,0,3,1,H-,1,1,5,0,1000,250.0,1,D13JC,36,train
544.9750423431396,4,5,2,0,3,1,H-,1,5,1,0,1000,250.0,5,D13JC,37,train
560.9939098358154,4,5,2,0,3,1,H-,1,1,5,0,1000,250.0,1,D13JC,38,train
640.9749984741211,4,5,2,0,3,1,H-,1,1,5,0,1000,250.0,1,D13JC,39,train
1377.0020008087158,4,5,2,0,3,1,H-,1,4,0,0,1000,250.0,4,D13JC,40,train
624.946117401123,4,5,2,0,3,1,H-,1,5,1,0,1000,250.0,5,D13JC,41,train
577.0981311798096,4,5,2,0,3,1,H-,1,5,1,0,1000,250.0,5,D13JC,42,train
673.0859279632568,4,5,2,0,3,1,H-,0,0,3,0,1000,250.0,1,D13JC,43,train
560.9731674194336,4,5,2,0,3,1,H-,1,0,3,0,1000,250.0,0,D13JC,44,train
736.7939949035645,4,5,2,0,3,1,H-,1,2,2,0,1000,250.0,2,D13JC,45,train
704.8301696777344,4,5,2,0,3,1,H-,1,3,4,0,1000,250.0,3,D13JC,46,train
560.7950687408447,4,5,2,0,3,1,H-,1,1,5,0,1000,250.0,1,D13JC,47,train
560.8489513397217,4,5,2,0,3,1,H-,0,2,2,0,1000,250.0,3,D13JC,48,train
1024.7859954833984,4,5,2,0,3,1,H-,1,1,5,0,1000,250.0,1,D13JC,49,train
576.7481327056885,4,5,2,0,3,1,H-,1,5,1,0,1000,250.0,5,D13JC,50,train
752.9089450836182,4,5,2,0,3,1,H-,1,0,3,0,1000,250.0,0,D13JC,51,train
1888.7720108032227,4,5,2,0,3,1,H-,1,4,0,0,1000,250.0,4,D13JC,52,train
561.0520839691162,4,5,2,0,3,1,H-,1,5,1,0,1000,250.0,5,D13JC,53,train
832.8311443328857,4,5,2,0,3,1,H-,1,0,3,0,1000,250.0,0,D13JC,54,train
688.8129711151123,4,5,2,0,3,1,H-,1,3,4,0,1000,250.0,3,D13JC,55,train
736.7990016937256,4,5,2,0,3,1,H-,1,3,4,0,1000,250.0,3,D13JC,56,train
544.8181629180908,4,5,2,0,3,1,H-,1,1,5,0,1000,250.0,1,D13JC,57,train
512.847900390625,4,5,2,0,3,1,H-,1,3,4,0,1000,250.0,3,D13JC,58,train
817.6529407501221,4,5,2,0,3,1,H-,1,1,5,0,1000,250.0,1,D13JC,59,train
464.83588218688965,4,5,2,0,3,1,H-,1,3,4,0,1000,250.0,3,D13JC,60,train
544.7998046875,4,5,2,0,3,1,H-,1,1,5,0,1000,250.0,1,D13JC,61,train
480.8199405670166,4,5,2,0,3,1,H-,1,1,5,0,1000,250.0,1,D13JC,62,train
544.7838306427002,4,5,2,0,3,1,H-,1,5,1,0,1000,250.0,5,D13JC,63,train
560.8351230621338,4,5,2,0,3,1,H-,1,5,1,0,1000,250.0,5,D13JC,64,train
560.866117477417,4,5,2,0,3,1,H-,1,5,1,0,1000,250.0,5,D13JC,65,train
992.8350448608398,4,5,2,0,3,1,H-,0,2,2,0,1000,250.0,1,D13JC,66,train
896.838903427124,4,5,2,0,3,1,H-,1,1,5,0,1000,250.0,1,D13JC,67,train
544.7828769683838,4,5,2,0,3,1,H-,1,1,5,0,1000,250.0,1,D13JC,68,train
544.8100566864014,4,5,2,0,3,1,H-,1,5,1,0,1000,250.0,5,D13JC,69,train
528.7809371948242,4,5,2,0,3,1,H-,1,5,1,0,1000,250.0,5,D13JC,70,train
800.7750511169434,4,5,2,0,3,1,H-,1,4,0,0,1000,250.0,4,D13JC,71,train
496.63496017456055,4,5,2,0,3,1,H-,1,5,1,0,1000,250.0,5,D13JC,72,train
545.1109409332275,4,5,2,0,3,1,H-,1,5,1,0,1000,250.0,5,D13JC,73,train
560.5161190032959,4,5,2,0,3,1,H-,1,5,1,0,1000,250.0,5,D13JC,74,train
672.713041305542,4,5,2,0,3,1,H-,1,2,2,0,1000,250.0,2,D13JC,75,train
576.3018131256104,4,5,2,0,3,1,H-,1,3,4,0,1000,250.0,3,D13JC,76,train
912.8658771514893,4,5,2,0,3,1,H-,1,1,5,0,1000,250.0,1,D13JC,77,train
512.8109455108643,4,5,2,0,3,1,H-,1,0,3,0,1000,250.0,0,D13JC,78,train
704.8399448394775,4,5,2,0,3,1,H-,0,0,3,0,1000,250.0,1,D13JC,79,train
656.790018081665,4,5,2,0,3,1,H-,0,4,0,0,1000,250.0,3,D13JC,80,train
960.9260559082031,4,5,2,0,3,1,H-,1,1,5,0,1000,250.0,1,D13JC,81,train
512.8700733184814,4,5,2,0,3,1,H-,1,5,1,0,1000,250.0,5,D13JC,82,train
704.7410011291504,4,5,2,0,3,1,H-,1,1,5,0,1000,250.0,1,D13JC,83,train
672.8570461273193,4,5,2,0,3,1,H-,1,0,3,0,1000,250.0,0,D13JC,84,train
656.8031311035156,4,5,2,0,3,1,H-,1,0,3,0,1000,250.0,0,D13JC,85,train
528.8097858428955,4,5,2,0,3,1,H-,1,5,1,0,1000,250.0,5,D13JC,86,train
864.9029731750488,4,5,2,0,3,1,H-,1,0,3,0,1000,250.0,0,D13JC,87,train
432.80982971191406,4,5,2,0,3,1,H-,1,5,1,0,1000,250.0,5,D13JC,88,train
752.9599666595459,4,5,2,0,3,1,H-,1,3,4,0,1000,250.0,3,D13JC,89,train
672.8110313415527,4,5,2,0,3,1,H-,1,3,4,0,1000,250.0,3,D13JC,90,train
816.8349266052246,4,5,2,0,3,1,H-,1,0,3,0,1000,250.0,0,D13JC,91,train
656.8379402160645,4,5,2,0,3,1,H-,1,2,2,0,1000,250.0,2,D13JC,92,train
560.7960224151611,4,5,2,0,3,1,H-,1,3,4,0,1000,250.0,3,D13JC,93,train
416.80312156677246,4,5,2,0,3,1,H-,1,3,4,0,1000,250.0,3,D13JC,94,train
464.8568630218506,4,5,2,0,3,1,H-,1,5,1,0,1000,250.0,5,D13JC,95,train
560.8949661254883,4,5,2,0,3,1,H-,0,1,5,0,1000,250.0,0,D13JC,96,train
544.809103012085,4,5,2,0,3,1,H-,1,0,3,0,1000,250.0,0,D13JC,97,train
784.8629951477051,4,5,2,0,3,1,H-,1,4,0,0,1000,250.0,4,D13JC,98,train
448.8251209259033,4,5,2,0,3,1,H-,1,2,2,0,1000,250.0,2,D13JC,99,train
576.801061630249,4,5,2,0,3,1,H-,1,0,3,0,1000,250.0,0,D13JC,100,train
624.7811317443848,4,5,2,0,3,1,H-,1,2,2,0,1000,250.0,2,D13JC,101,train
480.79705238342285,4,5,2,0,3,1,H-,1,5,1,0,1000,250.0,5,D13JC,102,train
768.4249877929688,4,5,2,0,3,1,H-,1,1,5,0,1000,250.0,1,D13JC,103,train
496.7951774597168,4,5,2,0,3,1,H-,1,5,1,0,1000,250.0,5,D13JC,104,train
496.8409538269043,4,5,2,0,3,1,H-,1,0,3,0,1000,250.0,0,D13JC,105,train
560.7709884643555,4,5,2,0,3,1,H-,1,3,4,0,1000,250.0,3,D13JC,106,train
544.8019504547119,4,5,2,0,3,1,H-,1,0,3,0,1000,250.0,0,D13JC,107,train
705.7318687438965,4,5,2,0,3,1,H-,1,4,0,0,1000,250.0,4,D13JC,108,train
544.8300838470459,4,5,2,0,3,1,H-,0,3,4,0,1000,250.0,4,D13JC,109,train
768.8660621643066,4,5,2,0,3,1,H-,1,1,5,0,1000,250.0,1,D13JC,110,train
496.72913551330566,4,5,2,0,3,1,H-,1,5,1,0,1000,250.0,5,D13JC,111,train
448.78101348876953,4,5,2,0,3,1,H-,1,5,1,0,1000,250.0,5,D13JC,112,train
720.5929756164551,4,5,2,0,3,1,H-,1,1,5,0,1000,250.0,1,D13JC,113,train
544.8200702667236,4,5,2,0,3,1,H-,1,5,1,0,1000,250.0,5,D13JC,114,train
544.7578430175781,4,5,2,0,3,1,H-,1,3,4,0,1000,250.0,3,D13JC,115,train
624.7951984405518,4,5,2,0,3,1,H-,0,0,3,0,1000,250.0,1,D13JC,116,train
480.8979034423828,4,5,2,0,3,1,H-,1,5,1,0,1000,250.0,5,D13JC,117,train
848.8829135894775,4,5,2,0,3,1,H-,1,4,0,0,1000,250.0,4,D13JC,118,train
913.0480289459229,4,5,2,0,3,1,H-,0,1,5,0,1000,250.0,0,D13JC,119,train
640.841007232666,4,5,2,0,3,1,H-,1,2,2,0,1000,250.0,2,D13JC,120,train
480.816125869751,4,5,2,0,3,1,H-,1,3,4,0,1000,250.0,3,D13JC,121,train
528.7251472473145,4,5,2,0,3,1,H-,1,4,0,0,1000,250.0,4,D13JC,122,train
672.8200912475586,4,5,2,0,3,1,H-,1,2,2,0,1000,250.0,2,D13JC,123,train
624.8300075531006,4,5,2,0,3,1,H-,1,2,2,0,1000,250.0,2,D13JC,124,train
369.5499897003174,4,5,2,0,3,1,H-,1,2,2,0,1000,250.0,2,D13JC,125,train
480.82900047302246,4,5,2,0,3,1,H-,1,5,1,0,1000,250.0,5,D13JC,126,train
560.8391761779785,4,5,2,0,3,1,H-,1,2,2,0,1000,250.0,2,D13JC,127,train
304.8279285430908,4,5,2,0,3,1,H-,1,5,1,0,1000,250.0,5,D13JC,128,train
288.79785537719727,4,5,2,0,3,1,H-,0,0,3,0,1000,250.0,2,D13JC,129,train
784.7900390625,4,5,2,0,3,1,H-,1,4,0,0,1000,250.0,4,D13JC,130,train
512.7859115600586,4,5,2,0,3,1,H-,1,4,0,0,1000,250.0,4,D13JC,131,train
1120.9208965301514,4,5,2,0,3,1,H-,1,0,3,0,1000,250.0,0,D13JC,132,train
416.8059825897217,4,5,2,0,3,1,H-,1,0,3,0,1000,250.0,0,D13JC,133,train
576.7738819122314,4,5,2,0,3,1,H-,1,3,4,0,1000,250.0,3,D13JC,134,train
416.7327880859375,4,5,2,0,3,1,H-,1,2,2,0,1000,250.0,2,D13JC,135,train
592.5278663635254,4,5,2,0,3,1,H-,1,4,0,0,1000,250.0,4,D13JC,136,train
545.1319217681885,4,5,2,0,3,1,H-,1,2,2,0,1000,250.0,2,D13JC,137,train
529.0420055389404,4,5,2,0,3,1,H-,1,1,5,0,1000,250.0,1,D13JC,138,train
513.139009475708,4,5,2,0,3,1,H-,1,5,1,0,1000,250.0,5,D13JC,139,train
385.0440979003906,4,5,2,0,3,1,H-,1,0,3,0,1000,250.0,0,D13JC,140,train
545.0260639190674,4,5,2,0,3,1,H-,1,4,0,0,1000,250.0,4,D13JC,141,train
417.0870780944824,4,5,2,0,3,1,H-,1,3,4,0,1000,250.0,3,D13JC,142,train
512.9299163818359,4,5,2,0,3,1,H-,1,3,4,0,1000,250.0,3,D13JC,143,train
513.0109786987305,4,5,2,0,3,1,H-,1,5,1,0,1000,250.0,5,D13JC,144,train
449.0950107574463,4,5,2,0,3,1,H-,1,3,4,0,1000,250.0,3,D13JC,145,train
448.83084297180176,4,5,2,0,3,1,H-,1,4,0,0,1000,250.0,4,D13JC,146,train
593.1079387664795,4,5,2,0,3,1,H-,1,3,4,0,1000,250.0,3,D13JC,147,train
432.7969551086426,4,5,2,0,3,1,H-,1,3,4,0,1000,250.0,3,D13JC,148,train
720.8559513092041,4,5,2,0,3,1,H-,1,4,0,0,1000,250.0,4,D13JC,149,train
464.8129940032959,4,5,2,0,3,1,H-,1,5,1,0,1000,250.0,5,D13JC,150,train
656.3229560852051,4,5,2,0,3,1,H-,1,1,5,0,1000,250.0,1,D13JC,151,train
480.91602325439453,4,5,2,0,3,1,H-,1,5,1,0,1000,250.0,5,D13JC,152,train
464.68496322631836,4,5,2,0,3,1,H-,1,5,1,0,1000,250.0,5,D13JC,153,train
560.8248710632324,4,5,2,0,3,1,H-,1,2,2,0,1000,250.0,2,D13JC,154,train
528.792142868042,4,5,2,0,3,1,H-,1,1,5,0,1000,250.0,1,D13JC,155,train
480.6408882141113,4,5,2,0,3,1,H-,1,1,5,0,1000,250.0,1,D13JC,156,train
384.7851753234863,4,5,2,0,3,1,H-,1,1,5,0,1000,250.0,1,D13JC,157,train
496.78587913513184,4,5,2,0,3,1,H-,1,3,4,0,1000,250.0,3,D13JC,158,train
400.7248878479004,4,5,2,0,3,1,H-,1,3,4,0,1000,250.0,3,D13JC,159,train
480.82709312438965,4,5,2,0,3,1,H-,1,2,2,0,1000,250.0,2,D13JC,160,train
528.5940170288086,4,5,2,0,3,1,H-,1,1,5,0,1000,250.0,1,D13JC,161,train
496.72412872314453,4,5,2,0,3,1,H-,1,3,4,0,1000,250.0,3,D13JC,162,train
496.7989921569824,4,5,2,0,3,1,H-,0,0,3,0,1000,250.0,1,D13JC,163,train
480.8619022369385,4,5,2,0,3,1,H-,1,2,2,0,1000,250.0,2,D13JC,164,train
496.7958927154541,4,5,2,0,3,1,H-,1,1,5,0,1000,250.0,1,D13JC,165,train
448.8229751586914,4,5,2,0,3,1,H-,1,5,1,0,1000,250.0,5,D13JC,166,train
464.78891372680664,4,5,2,0,3,1,H-,1,5,1,0,1000,250.0,5,D13JC,167,train
512.8319263458252,4,5,2,0,3,1,H-,1,3,4,0,1000,250.0,3,D13JC,168,train
544.8110103607178,4,5,2,0,3,1,H-,1,2,2,0,1000,250.0,2,D13JC,169,train
512.8159523010254,4,5,2,0,3,1,H-,1,5,1,0,1000,250.0,5,D13JC,170,train
544.7909832000732,4,5,2,0,3,1,H-,1,2,2,0,1000,250.0,2,D13JC,171,train
592.7820205688477,4,5,2,0,3,1,H-,1,4,0,0,1000,250.0,4,D13JC,172,train
320.6970691680908,4,5,2,0,3,1,H-,1,4,0,0,1000,250.0,4,D13JC,173,train
464.8599624633789,4,5,2,0,3,1,H-,1,5,1,0,1000,250.0,5,D13JC,174,train
592.8270816802979,4,5,2,0,3,1,H-,1,0,3,0,1000,250.0,0,D13JC,175,train
528.8388729095459,4,5,2,0,3,1,H-,1,1,5,0,1000,250.0,1,D13JC,176,train
448.7907886505127,4,5,2,0,3,1,H-,1,4,0,0,1000,250.0,4,D13JC,177,train
528.8410186767578,4,5,2,0,3,1,H-,1,3,4,0,1000,250.0,3,D13JC,178,train
768.8498497009277,4,5,2,0,3,1,H-,1,0,3,0,1000,250.0,0,D13JC,179,train
480.60083389282227,4,5,2,0,3,1,H-,0,2,2,0,1000,250.0,3,D13JC,180,train
512.3751163482666,4,5,2,0,3,1,H-,1,3,4,0,1000,250.0,3,D13JC,181,train
625.0300407409668,4,5,2,0,3,1,H-,1,1,5,0,1000,250.0,1,D13JC,182,train
480.8070659637451,4,5,2,0,3,1,H-,1,5,1,0,1000,250.0,5,D13JC,183,train
512.8030776977539,4,5,2,0,3,1,H-,1,0,3,0,1000,250.0,0,D13JC,184,train
528.7399291992188,4,5,2,0,3,1,H-,1,0,3,0,1000,250.0,0,D13JC,185,train
528.8279056549072,4,5,2,0,3,1,H-,1,3,4,0,1000,250.0,3,D13JC,186,train
512.8269195556641,4,5,2,0,3,1,H-,1,3,4,0,1000,250.0,3,D13JC,187,train
640.7699584960938,4,5,2,0,3,1,H-,1,4,0,0,1000,250.0,4,D13JC,188,train
432.7521324157715,4,5,2,0,3,1,H-,1,4,0,0,1000,250.0,4,D13JC,189,train
512.1850967407227,4,5,2,0,3,1,H-,1,0,3,0,1000,250.0,0,D13JC,190,train
528.7909507751465,4,5,2,0,3,1,H-,1,1,5,0,1000,250.0,1,D13JC,191,train
592.8540229797363,4,5,2,0,3,1,H-,1,2,2,0,1000,250.0,2,D13JC,192,train
480.7419776916504,4,5,2,0,3,1,H-,1,2,2,0,1000,250.0,2,D13JC,193,train
800.8379936218262,4,5,2,0,3,1,H-,1,4,0,0,1000,250.0,4,D13JC,194,train
448.7919807434082,4,5,2,0,3,1,H-,1,4,0,0,1000,250.0,4,D13JC,195,train
512.8319263458252,4,5,2,0,3,1,H-,1,3,4,0,1000,250.0,3,D13JC,196,train
496.7041015625,4,5,2,0,3,1,H-,1,0,3,0,1000,250.0,0,D13JC,197,train
480.82518577575684,4,5,2,0,3,1,H-,1,5,1,0,1000,250.0,5,D13JC,198,train
464.77198600769043,4,5,2,0,3,1,H-,0,3,4,0,1000,250.0,4,D13JC,199,train
512.8159523010254,4,5,2,0,3,1,H-,1,2,2,0,1000,250.0,2,D13JC,200,train
496.75703048706055,4,5,2,0,3,1,H-,1,4,0,0,1000,250.0,4,D13JC,201,train
448.8711357116699,4,5,2,0,3,1,H-,1,2,2,0,1000,250.0,2,D13JC,202,train
576.8239498138428,4,5,2,0,3,1,H-,0,1,5,0,1000,250.0,0,D13JC,203,train
624.8140335083008,4,5,2,0,3,1,H-,0,4,0,0,1000,250.0,3,D13JC,204,train
1088.8538360595703,4,5,2,0,3,1,H-,1,0,3,0,1000,250.0,0,D13JC,205,train
576.7669677734375,4,5,2,0,3,1,H-,1,3,4,0,1000,250.0,3,D13JC,206,train
496.7679977416992,4,5,2,0,3,1,H-,1,3,4,0,1000,250.0,3,D13JC,207,train
512.8359794616699,4,5,2,0,3,1,H-,1,3,4,0,1000,250.0,3,D13JC,208,train
704.8180103302002,4,5,2,0,3,1,H-,1,3,4,0,1000,250.0,3,D13JC,209,train
1200.7780075073242,4,5,2,0,3,1,H-,1,1,5,0,1000,250.0,1,D13JC,210,train
560.8119964599609,4,5,2,0,3,1,H-,1,0,3,0,1000,250.0,0,D13JC,211,train
592.8010940551758,4,5,2,0,3,1,H-,0,4,0,0,1000,250.0,3,D13JC,212,train
624.7470378875732,4,5,2,0,3,1,H-,1,2,2,0,1000,250.0,2,D13JC,213,train
464.799165725708,4,5,2,0,3,1,H-,1,2,2,0,1000,250.0,2,D13JC,214,train
704.8280239105225,4,5,2,0,3,1,H-,1,4,0,0,1000,250.0,4,D13JC,215,train
608.8051795959473,4,5,2,0,3,1,H-,1,2,2,0,1000,250.0,2,D13JC,216,train
560.7049465179443,4,5,2,0,3,1,H-,1,0,3,0,1000,250.0,0,D13JC,217,train
464.6940231323242,4,5,2,0,3,1,H-,0,2,2,0,1000,250.0,0,D13JC,218,train
720.815896987915,4,5,2,0,3,1,H-,1,3,4,0,1000,250.0,3,D13JC,219,train
576.9939422607422,4,5,2,0,3,1,H-,1,2,2,0,1000,250.0,2,D13JC,220,train
704.9648761749268,4,5,2,0,3,1,H-,1,4,0,0,1000,250.0,4,D13JC,221,train
561.0570907592773,4,5,2,0,3,1,H-,1,4,0,0,1000,250.0,4,D13JC,222,train
545.0999736785889,4,5,2,0,3,1,H-,1,5,1,0,1000,250.0,5,D13JC,223,train
465.06714820861816,4,5,2,0,3,1,H-,1,5,1,0,1000,250.0,5,D13JC,224,train
608.9348793029785,4,5,2,0,3,1,H-,1,0,3,0,1000,250.0,0,D13JC,225,train
400.93278884887695,4,5,2,0,3,1,H-,1,0,3,0,1000,250.0,0,D13JC,226,train
384.7630023956299,4,5,2,0,3,1,H-,1,0,3,0,1000,250.0,0,D13JC,227,train
464.90001678466797,4,5,2,0,3,1,H-,1,5,1,0,1000,250.0,5,D13JC,228,train
624.81689453125,4,5,2,0,3,1,H-,1,1,5,0,1000,250.0,1,D13JC,229,train
1072.8161334991455,4,5,2,0,3,1,H-,1,3,4,0,1000,250.0,3,D13JC,230,train
672.8560924530029,4,5,2,0,3,1,H-,1,4,0,0,1000,250.0,4,D13JC,231,train
480.8170795440674,4,5,2,0,3,1,H-,1,5,1,0,1000,250.0,5,D13JC,232,train
528.7840366363525,4,5,2,0,3,1,H-,1,0,3,0,1000,250.0,0,D13JC,233,train
528.7401676177979,4,5,2,0,3,1,H-,1,0,3,0,1000,250.0,0,D13JC,234,train
544.7258949279785,4,5,2,0,3,1,H-,1,2,2,0,1000,250.0,2,D13JC,235,train
496.7041015625,4,5,2,0,3,1,H-,1,0,3,0,1000,250.0,0,D13JC,236,train
608.834981918335,4,5,2,0,3,1,H-,1,0,3,0,1000,250.0,0,D13JC,237,train
672.8591918945312,4,5,2,0,3,1,H-,1,4,0,0,1000,250.0,4,D13JC,238,train
593.4538841247559,4,5,2,0,3,1,H-,1,2,2,0,1000,250.0,2,D13JC,239,train
608.7820529937744,4,5,2,0,3,1,H-,1,3,4,0,1000,250.0,3,D13JC,240,train
512.8459930419922,4,5,2,0,3,1,H-,1,0,3,0,1000,250.0,0,D13JC,241,train
448.7800598144531,4,5,2,0,3,1,H-,1,1,5,0,1000,250.0,1,D13JC,242,train
544.827938079834,4,5,2,0,3,1,H-,1,2,2,0,1000,250.0,2,D13JC,243,train
512.814998626709,4,5,2,0,3,1,H-,1,2,2,0,1000,250.0,2,D13JC,244,train
608.8628768920898,4,5,2,0,3,1,H-,1,1,5,0,1000,250.0,1,D13JC,245,train
496.779203414917,4,5,2,0,3,1,H-,1,2,2,0,1000,250.0,2,D13JC,246,train
432.7969551086426,4,5,2,0,3,1,H-,1,0,3,0,1000,250.0,0,D13JC,247,train
464.7707939147949,4,5,2,0,3,1,H-,1,0,3,0,1000,250.0,0,D13JC,248,train
384.8237991333008,4,5,2,0,3,1,H-,1,1,5,0,1000,250.0,1,D13JC,249,train
1472.764015197754,4,3,5,1,0,2,H-,1,3,1,0,1000,250.0,3,D13JC,250,test
832.8659534454346,4,3,5,1,0,2,H-,1,2,5,0,1000,250.0,2,D13JC,251,test
816.8718814849854,4,3,5,1,0,2,H-,1,2,5,0,1000,250.0,2,D13JC,252,test
800.8639812469482,4,3,5,1,0,2,H-,1,4,0,0,1000,250.0,4,D13JC,253,test
1472.7017879486084,4,3,5,1,0,2,H-,1,5,2,0,1000,250.0,5,D13JC,254,test
608.8271141052246,4,3,5,1,0,2,H-,1,3,1,0,1000,250.0,3,D13JC,255,test
656.8548679351807,4,3,5,1,0,2,H-,1,4,0,0,1000,250.0,4,D13JC,256,test
608.8569164276123,4,3,5,1,0,2,H-,0,3,1,0,1000,250.0,5,D13JC,257,test
992.8009510040283,4,3,5,1,0,2,H-,1,5,2,0,1000,250.0,5,D13JC,258,test
912.8990173339844,4,3,5,1,0,2,H-,1,2,5,0,1000,250.0,2,D13JC,259,test
1248.852014541626,4,3,5,1,0,2,H-,1,5,2,0,1000,250.0,5,D13JC,260,test
768.6560153961182,4,3,5,1,0,2,H-,1,1,3,0,1000,250.0,1,D13JC,261,test
1104.849100112915,4,3,5,1,0,2,H-,1,5,2,0,1000,250.0,5,D13JC,262,test
960.7598781585693,4,3,5,1,0,2,H-,0,0,4,0,1000,250.0,4,D13JC,263,test
784.7681045532227,4,3,5,1,0,2,H-,1,0,4,0,1000,250.0,0,D13JC,264,test
592.8170680999756,4,3,5,1,0,2,H-,1,2,5,0,1000,250.0,2,D13JC,265,test
913.1529331207275,4,3,5,1,0,2,H-,1,4,0,0,1000,250.0,4,D13JC,266,test
641.118049621582,4,3,5,1,0,2,H-,1,3,1,0,1000,250.0,3,D13JC,267,test
737.0498180389404,4,3,5,1,0,2,H-,1,4,0,0,1000,250.0,4,D13JC,268,test
705.1379680633545,4,3,5,1,0,2,H-,1,3,1,0,1000,250.0,3,D13JC,269,test
1201.0369300842285,4,3,5,1,0,2,H-,1,0,4,0,1000,250.0,0,D13JC,270,test
944.8859691619873,4,3,5,1,0,2,H-,1,4,0,0,1000,250.0,4,D13JC,271,test
544.7788238525391,4,3,5,1,0,2,H-,0,4,0,0,1000,250.0,5,D13JC,272,test
928.79319190979,4,3,5,1,0,2,H-,1,0,4,0,1000,250.0,0,D13JC,273,test
896.8081474304199,4,3,5,1,0,2,H-,1,2,5,0,1000,250.0,2,D13JC,274,test
992.9249286651611,4,3,5,1,0,2,H-,1,1,3,0,1000,250.0,1,D13JC,275,test
688.8861656188965,4,3,5,1,0,2,H-,1,2,5,0,1000,250.0,2,D13JC,276,test
944.9048042297363,4,3,5,1,0,2,H-,1,5,2,0,1000,250.0,5,D13JC,277,test
560.791015625,4,3,5,1,0,2,H-,1,5,2,0,1000,250.0,5,D13JC,278,test
448.81701469421387,4,3,5,1,0,2,H-,1,5,2,0,1000,250.0,5,D13JC,279,test
1040.8670902252197,4,3,5,1,0,2,H-,1,0,4,0,1000,250.0,0,D13JC,280,test
480.6971549987793,4,3,5,1,0,2,H-,1,1,3,0,1000,250.0,1,D13JC,281,test
576.7421722412109,4,3,5,1,0,2,H-,0,3,1,0,1000,250.0,5,D13JC,282,test
608.7939739227295,4,3,5,1,0,2,H-,0,2,5,0,1000,250.0,1,D13JC,283,test
544.7688102722168,4,3,5,1,0,2,H-,1,2,5,0,1000,250.0,2,D13JC,284,test
464.8630619049072,4,3,5,1,0,2,H-,0,1,3,0,1000,250.0,0,D13JC,285,test
1008.8300704956055,4,3,5,1,0,2,H-,1,5,2,0,1000,250.0,5,D13JC,286,test
640.841007232666,4,3,5,1,0,2,H-,1,5,2,0,1000,250.0,5,D13JC,287,test
576.7388343811035,4,3,5,1,0,2,H-,1,3,1,0,1000,250.0,3,D13JC,288,test
1024.7340202331543,4,3,5,1,0,2,H-,1,2,5,0,1000,250.0,2,D13JC,289,test
1744.8158264160156,4,3,5,1,0,2,H-,1,4,0,0,1000,250.0,4,D13JC,290,test
624.7949600219727,4,3,5,1,0,2,H-,1,0,4,0,1000,250.0,0,D13JC,291,test
752.8350353240967,4,3,5,1,0,2,H-,1,4,0,0,1000,250.0,4,D13JC,292,test
704.8590183258057,4,3,5,1,0,2,H-,1,1,3,0,1000,250.0,1,D13JC,293,test
640.9280300140381,4,3,5,1,0,2,H-,0,5,2,0,1000,250.0,3,D13JC,294,test
672.8389263153076,4,3,5,1,0,2,H-,1,3,1,0,1000,250.0,3,D13JC,295,test
832.8020572662354,4,3,5,1,0,2,H-,1,4,0,0,1000,250.0,4,D13JC,296,test
880.8810710906982,4,3,5,1,0,2,H-,1,0,4,0,1000,250.0,0,D13JC,297,test
1312.8559589385986,4,3,5,1,0,2,H-,1,5,2,0,1000,250.0,5,D13JC,298,test
608.8299751281738,4,3,5,1,0,2,H-,1,5,2,0,1000,250.0,5,D13JC,299,test
464.68615531921387,4,3,5,1,0,2,H-,1,5,2,0,1000,250.0,5,D13JC,300,test
688.8139247894287,4,3,5,1,0,2,H-,1,5,2,0,1000,250.0,5,D13JC,301,test
592.9019451141357,4,3,5,1,0,2,H-,1,3,1,0,1000,250.0,3,D13JC,302,test
496.85192108154297,4,3,5,1,0,2,H-,1,3,1,0,1000,250.0,3,D13JC,303,test
816.8890476226807,4,3,5,1,0,2,H-,1,1,3,0,1000,250.0,1,D13JC,304,test
480.8359146118164,4,3,5,1,0,2,H-,1,2,5,0,1000,250.0,2,D13JC,305,test
992.7291870117188,4,3,5,1,0,2,H-,1,4,0,0,1000,250.0,4,D13JC,306,test
608.860969543457,4,3,5,1,0,2,H-,1,2,5,0,1000,250.0,2,D13JC,307,test
432.67202377319336,4,3,5,1,0,2,H-,1,2,5,0,1000,250.0,2,D13JC,308,test
960.8678817749023,4,3,5,1,0,2,H-,1,5,2,0,1000,250.0,5,D13JC,309,test
560.8410835266113,4,3,5,1,0,2,H-,1,3,1,0,1000,250.0,3,D13JC,310,test
752.8491020202637,4,3,5,1,0,2,H-,1,2,5,0,1000,250.0,2,D13JC,311,test
560.7941150665283,4,3,5,1,0,2,H-,1,1,3,0,1000,250.0,1,D13JC,312,test
416.81694984436035,4,3,5,1,0,2,H-,1,0,4,0,1000,250.0,0,D13JC,313,test
704.55002784729,4,3,5,1,0,2,H-,1,2,5,0,1000,250.0,2,D13JC,314,test
752.784013748169,4,3,5,1,0,2,H-,1,0,4,0,1000,250.0,0,D13JC,315,test
624.8071193695068,4,3,5,1,0,2,H-,1,4,0,0,1000,250.0,4,D13JC,316,test
544.762134552002,4,3,5,1,0,2,H-,1,5,2,0,1000,250.0,5,D13JC,317,test
640.7699584960938,4,3,5,1,0,2,H-,1,4,0,0,1000,250.0,4,D13JC,318,test
704.8640251159668,4,3,5,1,0,2,H-,1,5,2,0,1000,250.0,5,D13JC,319,test
624.8300075531006,4,3,5,1,0,2,H-,1,5,2,0,1000,250.0,5,D13JC,320,test
592.8809642791748,4,3,5,1,0,2,H-,1,4,0,0,1000,250.0,4,D13JC,321,test
560.8749389648438,4,3,5,1,0,2,H-,1,0,4,0,1000,250.0,0,D13JC,322,test
512.794017791748,4,3,5,1,0,2,H-,1,0,4,0,1000,250.0,0,D13JC,323,test
512.861967086792,4,3,5,1,0,2,H-,1,3,1,0,1000,250.0,3,D13JC,324,test
560.62912940979,4,3,5,1,0,2,H-,1,5,2,0,1000,250.0,5,D13JC,325,test
592.8349494934082,4,3,5,1,0,2,H-,0,1,3,0,1000,250.0,0,D13JC,326,test
1040.7791137695312,4,3,5,1,0,2,H-,1,4,0,0,1000,250.0,4,D13JC,327,test
576.8089294433594,4,3,5,1,0,2,H-,1,0,4,0,1000,250.0,0,D13JC,328,test
704.8249244689941,4,3,5,1,0,2,H-,1,3,1,0,1000,250.0,3,D13JC,329,test
512.7670764923096,4,3,5,1,0,2,H-,1,0,4,0,1000,250.0,0,D13JC,330,test
1184.8399639129639,4,3,5,1,0,2,H-,1,0,4,0,1000,250.0,0,D13JC,331,test
464.48802947998047,4,3,5,1,0,2,H-,1,1,3,0,1000,250.0,1,D13JC,332,test
448.7190246582031,4,3,5,1,0,2,H-,0,1,3,0,1000,250.0,2,D13JC,333,test
736.8378639221191,4,3,5,1,0,2,H-,0,4,0,0,1000,250.0,5,D13JC,334,test
496.73008918762207,4,3,5,1,0,2,H-,1,4,0,0,1000,250.0,4,D13JC,335,test
609.0469360351562,4,3,5,1,0,2,H-,1,0,4,0,1000,250.0,0,D13JC,336,test
721.0328578948975,4,3,5,1,0,2,H-,1,3,1,0,1000,250.0,3,D13JC,337,test
641.1218643188477,4,3,5,1,0,2,H-,1,2,5,0,1000,250.0,2,D13JC,338,test
689.0559196472168,4,3,5,1,0,2,H-,1,5,2,0,1000,250.0,5,D13JC,339,test
609.1351509094238,4,3,5,1,0,2,H-,1,2,5,0,1000,250.0,2,D13JC,340,test
593.0240154266357,4,3,5,1,0,2,H-,1,2,5,0,1000,250.0,2,D13JC,341,test
625.1461505889893,4,3,5,1,0,2,H-,1,5,2,0,1000,250.0,5,D13JC,342,test
496.8130588531494,4,3,5,1,0,2,H-,1,5,2,0,1000,250.0,5,D13JC,343,test
384.6900463104248,4,3,5,1,0,2,H-,1,5,2,0,1000,250.0,5,D13JC,344,test
768.9590454101562,4,3,5,1,0,2,H-,1,1,3,0,1000,250.0,1,D13JC,345,test
560.8110427856445,4,3,5,1,0,2,H-,1,5,2,0,1000,250.0,5,D13JC,346,test
620.7418441772461,4,3,5,1,0,2,H-,1,3,1,0,1000,250.0,3,D13JC,347,test
496.85192108154297,4,3,5,1,0,2,H-,1,5,2,0,1000,250.0,5,D13JC,348,test
608.8099479675293,4,3,5,1,0,2,H-,1,1,3,0,1000,250.0,1,D13JC,349,test
448.90904426574707,4,3,5,1,0,2,H-,1,1,3,0,1000,250.0,1,D13JC,350,test
656.0258865356445,4,3,5,1,0,2,H-,1,3,1,0,1000,250.0,3,D13JC,351,test
592.8177833557129,4,3,5,1,0,2,H-,0,2,5,0,1000,250.0,1,D13JC,352,test
720.8259105682373,4,3,5,1,0,2,H-,1,1,3,0,1000,250.0,1,D13JC,353,test
512.8519535064697,4,3,5,1,0,2,H-,1,1,3,0,1000,250.0,1,D13JC,354,test
608.7801456451416,4,3,5,1,0,2,H-,1,5,2,0,1000,250.0,5,D13JC,355,test
656.7859649658203,4,3,5,1,0,2,H-,1,1,3,0,1000,250.0,1,D13JC,356,test
976.8729209899902,4,3,5,1,0,2,H-,1,4,0,0,1000,250.0,4,D13JC,357,test
640.8450603485107,4,3,5,1,0,2,H-,1,0,4,0,1000,250.0,0,D13JC,358,test
913.2261276245117,4,3,5,1,0,2,H-,1,2,5,0,1000,250.0,2,D13JC,359,test
560.7879161834717,4,3,5,1,0,2,H-,1,1,3,0,1000,250.0,1,D13JC,360,test
624.5357990264893,4,3,5,1,0,2,H-,1,1,3,0,1000,250.0,1,D13JC,361,test
560.8439445495605,4,3,5,1,0,2,H-,1,0,4,0,1000,250.0,0,D13JC,362,test
528.745174407959,4,3,5,1,0,2,H-,0,0,4,0,1000,250.0,1,D13JC,363,test
640.7628059387207,4,3,5,1,0,2,H-,0,4,0,0,1000,250.0,5,D13JC,364,test
720.7379341125488,4,3,5,1,0,2,H-,1,3,1,0,1000,250.0,3,D13JC,365,test
928.8120269775391,4,3,5,1,0,2,H-,1,1,3,0,1000,250.0,1,D13JC,366,test
1616.8739795684814,4,3,5,1,0,2,H-,1,3,1,0,1000,250.0,3,D13JC,367,test
800.8449077606201,4,3,5,1,0,2,H-,1,3,1,0,1000,250.0,3,D13JC,368,test
816.8280124664307,4,3,5,1,0,2,H-,1,2,5,0,1000,250.0,2,D13JC,369,test
672.7969646453857,4,3,5,1,0,2,H-,1,0,4,0,1000,250.0,0,D13JC,370,test
736.9239330291748,4,3,5,1,0,2,H-,1,2,5,0,1000,250.0,2,D13JC,371,test
912.8901958465576,4,3,5,1,0,2,H-,1,4,0,0,1000,250.0,4,D13JC,372,test
816.868782043457,4,3,5,1,0,2,H-,1,1,3,0,1000,250.0,1,D13JC,373,test
1456.7949771881104,4,3,5,1,0,2,H-,1,0,4,0,1000,250.0,0,D13JC,374,test
640.8159732818604,4,3,5,1,0,2,H-,1,2,5,0,1000,250.0,2,D13JC,375,test
832.8709602355957,4,3,5,1,0,2,H-,1,4,0,0,1000,250.0,4,D13JC,376,test
736.8249893188477,4,3,5,1,0,2,H-,1,3,1,0,1000,250.0,3,D13JC,377,test
848.8388061523438,4,3,5,1,0,2,H-,1,2,5,0,1000,250.0,2,D13JC,378,test
784.8491668701172,4,3,5,1,0,2,H-,1,5,2,0,1000,250.0,5,D13JC,379,test
816.8139457702637,4,3,5,1,0,2,H-,1,2,5,0,1000,250.0,2,D13JC,380,test
672.8329658508301,4,3,5,1,0,2,H-,1,2,5,0,1000,250.0,2,D13JC,381,test
544.8720455169678,4,3,5,1,0,2,H-,1,2,5,0,1000,250.0,2,D13JC,382,test
736.8621826171875,4,3,5,1,0,2,H-,1,3,1,0,1000,250.0,3,D13JC,383,test
592.8411483764648,4,3,5,1,0,2,H-,1,2,5,0,1000,250.0,2,D13JC,384,test
512.7689838409424,4,3,5,1,0,2,H-,1,3,1,0,1000,250.0,3,D13JC,385,test
768.902063369751,4,3,5,1,0,2,H-,1,5,2,0,1000,250.0,5,D13JC,386,test
784.783124923706,4,3,5,1,0,2,H-,1,2,5,0,1000,250.0,2,D13JC,387,test
800.8840084075928,4,3,5,1,0,2,H-,0,3,1,0,1000,250.0,5,D13JC,388,test
720.8459377288818,4,3,5,1,0,2,H-,1,4,0,0,1000,250.0,4,D13JC,389,test
544.8830127716064,4,3,5,1,0,2,H-,1,4,0,0,1000,250.0,4,D13JC,390,test
656.8689346313477,4,3,5,1,0,2,H-,1,2,5,0,1000,250.0,2,D13JC,391,test
497.12085723876953,4,3,5,1,0,2,H-,1,2,5,0,1000,250.0,2,D13JC,392,test
545.1188087463379,4,3,5,1,0,2,H-,0,5,2,0,1000,250.0,3,D13JC,393,test
769.1030502319336,4,3,5,1,0,2,H-,1,3,1,0,1000,250.0,3,D13JC,394,test
929.1510581970215,4,3,5,1,0,2,H-,1,1,3,0,1000,250.0,1,D13JC,395,test
817.1200752258301,4,3,5,1,0,2,H-,1,5,2,0,1000,250.0,5,D13JC,396,test
449.10693168640137,4,3,5,1,0,2,H-,1,3,1,0,1000,250.0,3,D13JC,397,test
577.0950317382812,4,3,5,1,0,2,H-,0,4,0,0,1000,250.0,3,D13JC,398,test
529.0679931640625,4,3,5,1,0,2,H-,1,4,0,0,1000,250.0,4,D13JC,399,test
769.08278465271,4,3,5,1,0,2,H-,1,5,2,0,1000,250.0,5,D13JC,400,test
657.055139541626,4,3,5,1,0,2,H-,1,2,5,0,1000,250.0,2,D13JC,401,test
545.1412200927734,4,3,5,1,0,2,H-,1,4,0,0,1000,250.0,4,D13JC,402,test
513.0879878997803,4,3,5,1,0,2,H-,1,4,0,0,1000,250.0,4,D13JC,403,test
737.0619773864746,4,3,5,1,0,2,H-,1,1,3,0,1000,250.0,1,D13JC,404,test
593.0600166320801,4,3,5,1,0,2,H-,1,3,1,0,1000,250.0,3,D13JC,405,test
737.0140552520752,4,3,5,1,0,2,H-,1,1,3,0,1000,250.0,1,D13JC,406,test
609.1101169586182,4,3,5,1,0,2,H-,1,5,2,0,1000,250.0,5,D13JC,407,test
561.042070388794,4,3,5,1,0,2,H-,1,4,0,0,1000,250.0,4,D13JC,408,test
817.1968460083008,4,3,5,1,0,2,H-,1,0,4,0,1000,250.0,0,D13JC,409,test
609.1840267181396,4,3,5,1,0,2,H-,1,5,2,0,1000,250.0,5,D13JC,410,test
945.0838565826416,4,3,5,1,0,2,H-,1,3,1,0,1000,250.0,3,D13JC,411,test
977.0181179046631,4,3,5,1,0,2,H-,1,2,5,0,1000,250.0,2,D13JC,412,test
529.0539264678955,4,3,5,1,0,2,H-,1,3,1,0,1000,250.0,3,D13JC,413,test
641.0949230194092,4,3,5,1,0,2,H-,1,4,0,0,1000,250.0,4,D13JC,414,test
592.8750038146973,4,3,5,1,0,2,H-,1,4,0,0,1000,250.0,4,D13JC,415,test
800.8699417114258,4,3,5,1,0,2,H-,1,5,2,0,1000,250.0,5,D13JC,416,test
656.8770408630371,4,3,5,1,0,2,H-,1,4,0,0,1000,250.0,4,D13JC,417,test
640.7911777496338,4,3,5,1,0,2,H-,1,1,3,0,1000,250.0,1,D13JC,418,test
1089.022159576416,4,3,5,1,0,2,H-,1,0,4,0,1000,250.0,0,D13JC,419,test
624.8290538787842,4,3,5,1,0,2,H-,1,2,5,0,1000,250.0,2,D13JC,420,test
464.7178649902344,4,3,5,1,0,2,H-,1,2,5,0,1000,250.0,2,D13JC,421,test
961.4241123199463,4,3,5,1,0,2,H-,1,3,1,0,1000,250.0,3,D13JC,422,test
976.8171310424805,4,3,5,1,0,2,H-,1,0,4,0,1000,250.0,0,D13JC,423,test
592.8859710693359,4,3,5,1,0,2,H-,1,2,5,0,1000,250.0,2,D13JC,424,test
544.788122177124,4,3,5,1,0,2,H-,1,1,3,0,1000,250.0,1,D13JC,425,test
512.7120018005371,4,3,5,1,0,2,H-,1,2,5,0,1000,250.0,2,D13JC,426,test
752.8259754180908,4,3,5,1,0,2,H-,1,4,0,0,1000,250.0,4,D13JC,427,test
608.8619232177734,4,3,5,1,0,2,H-,1,1,3,0,1000,250.0,1,D13JC,428,test
688.8749599456787,4,3,5,1,0,2,H-,1,5,2,0,1000,250.0,5,D13JC,429,test
560.8930587768555,4,3,5,1,0,2,H-,1,5,2,0,1000,250.0,5,D13JC,430,test
576.9069194793701,4,3,5,1,0,2,H-,1,3,1,0,1000,250.0,3,D13JC,431,test
512.8340721130371,4,3,5,1,0,2,H-,1,2,5,0,1000,250.0,2,D13JC,432,test
544.8060035705566,4,3,5,1,0,2,H-,1,4,0,0,1000,250.0,4,D13JC,433,test
832.2210311889648,4,3,5,1,0,2,H-,1,1,3,0,1000,250.0,1,D13JC,434,test
544.3980693817139,4,3,5,1,0,2,H-,1,5,2,0,1000,250.0,5,D13JC,435,test
497.04813957214355,4,3,5,1,0,2,H-,1,2,5,0,1000,250.0,2,D13JC,436,test
513.1418704986572,4,3,5,1,0,2,H-,1,5,2,0,1000,250.0,5,D13JC,437,test
561.1560344696045,4,3,5,1,0,2,H-,1,4,0,0,1000,250.0,4,D13JC,438,test
561.147928237915,4,3,5,1,0,2,H-,1,1,3,0,1000,250.0,1,D13JC,439,test
464.8621082305908,4,3,5,1,0,2,H-,1,1,3,0,1000,250.0,1,D13JC,440,test
576.7889022827148,4,3,5,1,0,2,H-,1,5,2,0,1000,250.0,5,D13JC,441,test
720.7999229431152,4,3,5,1,0,2,H-,1,3,1,0,1000,250.0,3,D13JC,442,test
544.8141098022461,4,3,5,1,0,2,H-,1,2,5,0,1000,250.0,2,D13JC,443,test
1056.90598487854,4,3,5,1,0,2,H-,1,0,4,0,1000,250.0,0,D13JC,444,test
592.8559303283691,4,3,5,1,0,2,H-,1,3,1,0,1000,250.0,3,D13JC,445,test
544.7959899902344,4,3,5,1,0,2,H-,1,1,3,0,1000,250.0,1,D13JC,446,test
560.7419013977051,4,3,5,1,0,2,H-,0,0,4,0,1000,250.0,4,D13JC,447,test
544.7878837585449,4,3,5,1,0,2,H-,1,1,3,0,1000,250.0,1,D13JC,448,test
816.7879581451416,4,3,5,1,0,2,H-,1,0,4,0,1000,250.0,0,D13JC,449,test
672.8060245513916,4,3,5,1,0,2,H-,1,2,5,0,1000,250.0,2,D13JC,450,test
1120.798110961914,4,3,5,1,0,2,H-,1,4,0,0,1000,250.0,4,D13JC,451,test
1024.9462127685547,4,3,5,1,0,2,H-,1,0,4,0,1000,250.0,0,D13JC,452,test
912.8220081329346,4,3,5,1,0,2,H-,1,4,0,0,1000,250.0,4,D13JC,453,test
716.8371677398682,4,3,5,1,0,2,H-,1,3,1,0,1000,250.0,3,D13JC,454,test
432.71708488464355,4,3,5,1,0,2,H-,1,3,1,0,1000,250.0,3,D13JC,455,test
576.8458843231201,4,3,5,1,0,2,H-,1,4,0,0,1000,250.0,4,D13JC,456,test
544.8331832885742,4,3,5,1,0,2,H-,1,1,3,0,1000,250.0,1,D13JC,457,test
784.9109172821045,4,3,5,1,0,2,H-,1,5,2,0,1000,250.0,5,D13JC,458,test
608.8259220123291,4,3,5,1,0,2,H-,1,1,3,0,1000,250.0,1,D13JC,459,test
784.8289012908936,4,3,5,1,0,2,H-,0,0,4,0,1000,250.0,4,D13JC,460,test
576.8001079559326,4,3,5,1,0,2,H-,1,1,3,0,1000,250.0,1,D13JC,461,test
832.9160213470459,4,3,5,1,0,2,H-,1,0,4,0,1000,250.0,0,D13JC,462,test
560.8391761779785,4,3,5,1,0,2,H-,1,3,1,0,1000,250.0,3,D13JC,463,test
768.8310146331787,4,3,5,1,0,2,H-,1,2,5,0,1000,250.0,2,D13JC,464,test
528.9731025695801,4,3,5,1,0,2,H-,1,5,2,0,1000,250.0,5,D13JC,465,test
752.8579235076904,4,3,5,1,0,2,H-,1,4,0,0,1000,250.0,4,D13JC,466,test
528.8629531860352,4,3,5,1,0,2,H-,1,3,1,0,1000,250.0,3,D13JC,467,test
512.8200054168701,4,3,5,1,0,2,H-,1,4,0,0,1000,250.0,4,D13JC,468,test
560.4441165924072,4,3,5,1,0,2,H-,1,0,4,0,1000,250.0,0,D13JC,469,test
576.9188404083252,4,3,5,1,0,2,H-,1,4,0,0,1000,250.0,4,D13JC,470,test
496.9308376312256,4,3,5,1,0,2,H-,1,1,3,0,1000,250.0,1,D13JC,471,test
640.7930850982666,4,3,5,1,0,2,H-,1,5,2,0,1000,250.0,5,D13JC,472,test
608.8740825653076,4,3,5,1,0,2,H-,1,3,1,0,1000,250.0,3,D13JC,473,test
608.8619232177734,4,3,5,1,0,2,H-,1,1,3,0,1000,250.0,1,D13JC,474,test
928.7538528442383,4,3,5,1,0,2,H-,1,5,2,0,1000,250.0,5,D13JC,475,test
816.8900012969971,4,3,5,1,0,2,H-,1,2,5,0,1000,250.0,2,D13JC,476,test
672.8100776672363,4,3,5,1,0,2,H-,1,5,2,0,1000,250.0,5,D13JC,477,test
432.7731132507324,4,3,5,1,0,2,H-,1,2,5,0,1000,250.0,2,D13JC,478,test
736.7920875549316,4,3,5,1,0,2,H-,1,1,3,0,1000,250.0,1,D13JC,479,test
528.8281440734863,4,3,5,1,0,2,H-,1,5,2,0,1000,250.0,5,D13JC,480,test
608.7989807128906,4,3,5,1,0,2,H-,1,4,0,0,1000,250.0,4,D13JC,481,test
592.818021774292,4,3,5,1,0,2,H-,1,1,3,0,1000,250.0,1,D13JC,482,test
464.7970199584961,4,3,5,1,0,2,H-,1,2,5,0,1000,250.0,2,D13JC,483,test
752.9158592224121,4,3,5,1,0,2,H-,1,0,4,0,1000,250.0,0,D13JC,484,test
560.6849193572998,4,3,5,1,0,2,H-,1,0,4,0,1000,250.0,0,D13JC,485,test
688.9340877532959,4,3,5,1,0,2,H-,1,0,4,0,1000,250.0,0,D13JC,486,test
576.6780376434326,4,3,5,1,0,2,H-,1,5,2,0,1000,250.0,5,D13JC,487,test
592.7901268005371,4,3,5,1,0,2,H-,1,3,1,0,1000,250.0,3,D13JC,488,test
544.842004776001,4,3,5,1,0,2,H-,1,2,5,0,1000,250.0,2,D13JC,489,test
640.8278942108154,4,3,5,1,0,2,H-,1,5,2,0,1000,250.0,5,D13JC,490,test
752.8431415557861,4,3,5,1,0,2,H-,1,1,3,0,1000,250.0,1,D13JC,491,test
608.8368892669678,4,3,5,1,0,2,H-,1,5,2,0,1000,250.0,5,D13JC,492,test
400.82716941833496,4,3,5,1,0,2,H-,1,5,2,0,1000,250.0,5,D13JC,493,test
736.8519306182861,4,3,5,1,0,2,H-,1,0,4,0,1000,250.0,0,D13JC,494,test
576.927900314331,4,3,5,1,0,2,H-,1,1,3,0,1000,250.0,1,D13JC,495,test
768.9018249511719,4,3,5,1,0,2,H-,1,4,0,0,1000,250.0,4,D13JC,496,test
560.8248710632324,4,3,5,1,0,2,H-,1,5,2,0,1000,250.0,5,D13JC,497,test
528.7799835205078,4,3,5,1,0,2,H-,1,1,3,0,1000,250.0,1,D13JC,498,test
624.6521472930908,4,3,5,1,0,2,H-,1,3,1,0,1000,250.0,3,D13JC,499,test
