RT,SRmap_0,SRmap_1,SRmap_2,SRmap_3,SRmap_4,SRmap_5,condition,correct,correct_response,curstim,ms-precue,ms-prestimblank,ntrials,response,subject,trial,type
3312.696933746338,4,0,1,3,2,5,H-,1,5,5,0,1000,250.0,5,C20JN,0,train
1793.4699058532715,4,0,1,3,2,5,H-,0,1,2,0,1000,250.0,0,C20JN,1,train
1217.297077178955,4,0,1,3,2,5,H-,1,5,5,0,1000,250.0,5,C20JN,2,train
929.3019771575928,4,0,1,3,2,5,H-,1,5,5,0,1000,250.0,5,C20JN,3,train
897.5131511688232,4,0,1,3,2,5,H-,1,5,5,0,1000,250.0,5,C20JN,4,train
1937.2479915618896,4,0,1,3,2,5,H-,1,2,4,0,1000,250.0,2,C20JN,5,train
1329.211950302124,4,0,1,3,2,5,H-,1,3,3,0,1000,250.0,3,C20JN,6,train
1313.3080005645752,4,0,1,3,2,5,H-,1,4,0,0,1000,250.0,4,C20JN,7,train
1169.1789627075195,4,0,1,3,2,5,H-,1,3,3,0,1000,250.0,3,C20JN,8,train
769.4671154022217,4,0,1,3,2,5,H-,1,3,3,0,1000,250.0,3,C20JN,9,train
497.344970703125,4,0,1,3,2,5,H-,1,3,3,0,1000,250.0,3,C20JN,10,train
1488.861083984375,4,0,1,3,2,5,H-,1,2,4,0,1000,250.0,2,C20JN,11,train
1105.0589084625244,4,0,1,3,2,5,H-,1,2,4,0,1000,250.0,2,C20JN,12,train
641.3631439208984,4,0,1,3,2,5,H-,1,0,1,0,1000,250.0,0,C20JN,13,train
1217.236042022705,4,0,1,3,2,5,H-,1,4,0,0,1000,250.0,4,C20JN,14,train
1041.179895401001,4,0,1,3,2,5,H-,1,4,0,0,1000,250.0,4,C20JN,15,train
544.8691844940186,4,0,1,3,2,5,H-,1,5,5,0,1000,250.0,5,C20JN,16,train
529.2859077453613,4,0,1,3,2,5,H-,1,0,1,0,1000,250.0,0,C20JN,17,train
913.201093673706,4,0,1,3,2,5,H-,1,4,0,0,1000,250.0,4,C20JN,18,train
545.32790184021,4,0,1,3,2,5,H-,1,5,5,0,1000,250.0,5,C20JN,19,train
1137.2129917144775,4,0,1,3,2,5,H-,1,3,3,0,1000,250.0,3,C20JN,20,train
577.6281356811523,4,0,1,3,2,5,H-,1,0,1,0,1000,250.0,0,C20JN,21,train
1041.524887084961,4,0,1,3,2,5,H-,1,4,0,0,1000,250.0,4,C20JN,22,train
529.3819904327393,4,0,1,3,2,5,H-,1,0,1,0,1000,250.0,0,C20JN,23,train
848.9241600036621,4,0,1,3,2,5,H-,1,2,4,0,1000,250.0,2,C20JN,24,train
561.3970756530762,4,0,1,3,2,5,H-,1,0,1,0,1000,250.0,0,C20JN,25,train
1793.1840419769287,4,0,1,3,2,5,H-,1,3,3,0,1000,250.0,3,C20JN,26,train
640.9649848937988,4,0,1,3,2,5,H-,0,1,2,0,1000,250.0,0,C20JN,27,train
1632.9500675201416,4,0,1,3,2,5,H-,1,3,3,0,1000,250.0,3,C20JN,28,train
592.3471450805664,4,0,1,3,2,5,H-,1,0,1,0,1000,250.0,0,C20JN,29,train
609.2321872711182,4,0,1,3,2,5,H-,1,1,2,0,1000,250.0,1,C20JN,30,train
881.2229633331299,4,0,1,3,2,5,H-,1,3,3,0,1000,250.0,3,C20JN,31,train
769.4768905639648,4,0,1,3,2,5,H-,1,1,2,0,1000,250.0,1,C20JN,32,train
801.1200428009033,4,0,1,3,2,5,H-,1,4,0,0,1000,250.0,4,C20JN,33,train
929.5601844787598,4,0,1,3,2,5,H-,1,2,4,0,1000,250.0,2,C20JN,34,train
545.5501079559326,4,0,1,3,2,5,H-,1,5,5,0,1000,250.0,5,C20JN,35,train
1105.6029796600342,4,0,1,3,2,5,H-,1,2,4,0,1000,250.0,2,C20JN,36,train
1153.367042541504,4,0,1,3,2,5,H-,1,4,0,0,1000,250.0,4,C20JN,37,train
689.7158622741699,4,0,1,3,2,5,H-,1,1,2,0,1000,250.0,1,C20JN,38,train
481.3380241394043,4,0,1,3,2,5,H-,1,1,2,0,1000,250.0,1,C20JN,39,train
1217.043161392212,4,0,1,3,2,5,H-,1,3,3,0,1000,250.0,3,C20JN,40,train
737.3180389404297,4,0,1,3,2,5,H-,1,1,2,0,1000,250.0,1,C20JN,41,train
961.414098739624,4,0,1,3,2,5,H-,1,3,3,0,1000,250.0,3,C20JN,42,train
1457.5550556182861,4,0,1,3,2,5,H-,1,2,4,0,1000,250.0,2,C20JN,43,train
1313.2429122924805,4,0,1,3,2,5,H-,1,5,5,0,1000,250.0,5,C20JN,44,train
1089.1680717468262,4,0,1,3,2,5,H-,1,3,3,0,1000,250.0,3,C20JN,45,train
721.5218544006348,4,0,1,3,2,5,H-,1,5,5,0,1000,250.0,5,C20JN,46,train
705.4259777069092,4,0,1,3,2,5,H-,1,3,3,0,1000,250.0,3,C20JN,47,train
1009.4320774078369,4,0,1,3,2,5,H-,1,4,0,0,1000,250.0,4,C20JN,48,train
641.3440704345703,4,0,1,3,2,5,H-,1,5,5,0,1000,250.0,5,C20JN,49,train
929.1079044342041,4,0,1,3,2,5,H-,1,5,5,0,1000,250.0,5,C20JN,50,train
577.064037322998,4,0,1,3,2,5,H-,1,0,1,0,1000,250.0,0,C20JN,51,train
993.319034576416,4,0,1,3,2,5,H-,1,5,5,0,1000,250.0,5,C20JN,52,train
609.4949245452881,4,0,1,3,2,5,H-,1,1,2,0,1000,250.0,1,C20JN,53,train
753.2718181610107,4,0,1,3,2,5,H-,1,4,0,0,1000,250.0,4,C20JN,54,train
609.2691421508789,4,0,1,3,2,5,H-,1,1,2,0,1000,250.0,1,C20JN,55,train
641.3321495056152,4,0,1,3,2,5,H-,1,5,5,0,1000,250.0,5,C20JN,56,train
705.1620483398438,4,0,1,3,2,5,H-,1,5,5,0,1000,250.0,5,C20JN,57,train
497.6849555969238,4,0,1,3,2,5,H-,1,4,0,0,1000,250.0,4,C20JN,58,train
737.4579906463623,4,0,1,3,2,5,H-,1,4,0,0,1000,250.0,4,C20JN,59,train
610.260009765625,4,0,1,3,2,5,H-,1,1,2,0,1000,250.0,1,C20JN,60,train
513.4189128875732,4,0,1,3,2,5,H-,1,0,1,0,1000,250.0,0,C20JN,61,train
945.5890655517578,4,0,1,3,2,5,H-,0,2,4,0,1000,250.0,4,C20JN,62,train
673.2590198516846,4,0,1,3,2,5,H-,1,1,2,0,1000,250.0,1,C20JN,63,train
2273.447036743164,4,0,1,3,2,5,H-,1,2,4,0,1000,250.0,2,C20JN,64,train
609.2860698699951,4,0,1,3,2,5,H-,1,1,2,0,1000,250.0,1,C20JN,65,train
1297.569990158081,4,0,1,3,2,5,H-,0,3,3,0,1000,250.0,4,C20JN,66,train
673.3250617980957,4,0,1,3,2,5,H-,1,0,1,0,1000,250.0,0,C20JN,67,train
1489.062786102295,4,0,1,3,2,5,H-,1,2,4,0,1000,250.0,2,C20JN,68,train
593.3818817138672,4,0,1,3,2,5,H-,1,1,2,0,1000,250.0,1,C20JN,69,train
481.45318031311035,4,0,1,3,2,5,H-,1,1,2,0,1000,250.0,1,C20JN,70,train
559.3140125274658,4,0,1,3,2,5,H-,1,0,1,0,1000,250.0,0,C20JN,71,train
737.2419834136963,4,0,1,3,2,5,H-,1,5,5,0,1000,250.0,5,C20JN,72,train
529.2601585388184,4,0,1,3,2,5,H-,1,0,1,0,1000,250.0,0,C20JN,73,train
1201.1661529541016,4,0,1,3,2,5,H-,1,3,3,0,1000,250.0,3,C20JN,74,train
817.363977432251,4,0,1,3,2,5,H-,1,4,0,0,1000,250.0,4,C20JN,75,train
1457.3161602020264,4,0,1,3,2,5,H-,1,2,4,0,1000,250.0,2,C20JN,76,train
513.2060050964355,4,0,1,3,2,5,H-,1,1,2,0,1000,250.0,1,C20JN,77,train
1135.4999542236328,4,0,1,3,2,5,H-,1,2,4,0,1000,250.0,2,C20JN,78,train
625.2069473266602,4,0,1,3,2,5,H-,1,3,3,0,1000,250.0,3,C20JN,79,train
849.5728969573975,4,0,1,3,2,5,H-,1,2,4,0,1000,250.0,2,C20JN,80,train
863.2588386535645,4,0,1,3,2,5,H-,1,3,3,0,1000,250.0,3,C20JN,81,train
497.21503257751465,4,0,1,3,2,5,H-,1,0,1,0,1000,250.0,0,C20JN,82,train
769.5238590240479,4,0,1,3,2,5,H-,1,2,4,0,1000,250.0,2,C20JN,83,train
513.4940147399902,4,0,1,3,2,5,H-,1,0,1,0,1000,250.0,0,C20JN,84,train
513.3159160614014,4,0,1,3,2,5,H-,1,0,1,0,1000,250.0,0,C20JN,85,train
849.4300842285156,4,0,1,3,2,5,H-,1,4,0,0,1000,250.0,4,C20JN,86,train
625.2329349517822,4,0,1,3,2,5,H-,1,2,4,0,1000,250.0,2,C20JN,87,train
481.5070629119873,4,0,1,3,2,5,H-,1,1,2,0,1000,250.0,1,C20JN,88,train
753.6201477050781,4,0,1,3,2,5,H-,1,3,3,0,1000,250.0,3,C20JN,89,train
609.5030307769775,4,0,1,3,2,5,H-,1,2,4,0,1000,250.0,2,C20JN,90,train
833.3370685577393,4,0,1,3,2,5,H-,1,5,5,0,1000,250.0,5,C20JN,91,train
449.1879940032959,4,0,1,3,2,5,H-,1,0,1,0,1000,250.0,0,C20JN,92,train
497.4989891052246,4,0,1,3,2,5,H-,1,0,1,0,1000,250.0,0,C20JN,93,train
497.2050189971924,4,0,1,3,2,5,H-,1,1,2,0,1000,250.0,1,C20JN,94,train
465.55399894714355,4,0,1,3,2,5,H-,0,5,5,0,1000,250.0,3,C20JN,95,train
657.526969909668,4,0,1,3,2,5,H-,0,1,2,0,1000,250.0,0,C20JN,96,train
625.3399848937988,4,0,1,3,2,5,H-,1,2,4,0,1000,250.0,2,C20JN,97,train
737.3039722442627,4,0,1,3,2,5,H-,1,3,3,0,1000,250.0,3,C20JN,98,train
543.8058376312256,4,0,1,3,2,5,H-,1,0,1,0,1000,250.0,0,C20JN,99,train
865.2920722961426,4,0,1,3,2,5,H-,1,4,0,0,1000,250.0,4,C20JN,100,train
561.3389015197754,4,0,1,3,2,5,H-,1,0,1,0,1000,250.0,0,C20JN,101,train
527.5149345397949,4,0,1,3,2,5,H-,1,0,1,0,1000,250.0,0,C20JN,102,train
561.521053314209,4,0,1,3,2,5,H-,1,1,2,0,1000,250.0,1,C20JN,103,train
641.3259506225586,4,0,1,3,2,5,H-,1,2,4,0,1000,250.0,2,C20JN,104,train
753.4360885620117,4,0,1,3,2,5,H-,1,5,5,0,1000,250.0,5,C20JN,105,train
545.1738834381104,4,0,1,3,2,5,H-,1,5,5,0,1000,250.0,5,C20JN,106,train
721.5900421142578,4,0,1,3,2,5,H-,1,4,0,0,1000,250.0,4,C20JN,107,train
689.3711090087891,4,0,1,3,2,5,H-,1,0,1,0,1000,250.0,0,C20JN,108,train
641.3509845733643,4,0,1,3,2,5,H-,1,1,2,0,1000,250.0,1,C20JN,109,train
801.0101318359375,4,0,1,3,2,5,H-,1,3,3,0,1000,250.0,3,C20JN,110,train
641.4978504180908,4,0,1,3,2,5,H-,1,0,1,0,1000,250.0,0,C20JN,111,train
913.1159782409668,4,0,1,3,2,5,H-,1,5,5,0,1000,250.0,5,C20JN,112,train
465.15893936157227,4,0,1,3,2,5,H-,1,0,1,0,1000,250.0,0,C20JN,113,train
1121.3431358337402,4,0,1,3,2,5,H-,1,5,5,0,1000,250.0,5,C20JN,114,train
641.3187980651855,4,0,1,3,2,5,H-,1,1,2,0,1000,250.0,1,C20JN,115,train
561.4700317382812,4,0,1,3,2,5,H-,1,1,2,0,1000,250.0,1,C20JN,116,train
753.1988620758057,4,0,1,3,2,5,H-,1,2,4,0,1000,250.0,2,C20JN,117,train
641.3710117340088,4,0,1,3,2,5,H-,1,0,1,0,1000,250.0,0,C20JN,118,train
609.7838878631592,4,0,1,3,2,5,H-,1,1,2,0,1000,250.0,1,C20JN,119,train
561.3670349121094,4,0,1,3,2,5,H-,1,2,4,0,1000,250.0,2,C20JN,120,train
928.1198978424072,4,0,1,3,2,5,H-,1,4,0,0,1000,250.0,4,C20JN,121,train
625.5378723144531,4,0,1,3,2,5,H-,1,5,5,0,1000,250.0,5,C20JN,122,train
1105.1390171051025,4,0,1,3,2,5,H-,1,5,5,0,1000,250.0,5,C20JN,123,train
895.9319591522217,4,0,1,3,2,5,H-,1,5,5,0,1000,250.0,5,C20JN,124,train
785.5448722839355,4,0,1,3,2,5,H-,1,3,3,0,1000,250.0,3,C20JN,125,train
625.2188682556152,4,0,1,3,2,5,H-,1,0,1,0,1000,250.0,0,C20JN,126,train
513.4129524230957,4,0,1,3,2,5,H-,1,0,1,0,1000,250.0,0,C20JN,127,train
369.30298805236816,4,0,1,3,2,5,H-,1,0,1,0,1000,250.0,0,C20JN,128,train
800.4851341247559,4,0,1,3,2,5,H-,1,4,0,0,1000,250.0,4,C20JN,129,train
769.1130638122559,4,0,1,3,2,5,H-,1,5,5,0,1000,250.0,5,C20JN,130,train
513.6699676513672,4,0,1,3,2,5,H-,1,0,1,0,1000,250.0,0,C20JN,131,train
545.5400943756104,4,0,1,3,2,5,H-,1,1,2,0,1000,250.0,1,C20JN,132,train
737.3712062835693,4,0,1,3,2,5,H-,1,3,3,0,1000,250.0,3,C20JN,133,train
1073.2579231262207,4,0,1,3,2,5,H-,1,5,5,0,1000,250.0,5,C20JN,134,train
561.6199970245361,4,0,1,3,2,5,H-,1,2,4,0,1000,250.0,2,C20JN,135,train
511.00683212280273,4,0,1,3,2,5,H-,1,5,5,0,1000,250.0,5,C20JN,136,train
497.59411811828613,4,0,1,3,2,5,H-,1,2,4,0,1000,250.0,2,C20JN,137,train
545.2840328216553,4,0,1,3,2,5,H-,1,4,0,0,1000,250.0,4,C20JN,138,train
593.5969352722168,4,0,1,3,2,5,H-,1,0,1,0,1000,250.0,0,C20JN,139,train
497.4799156188965,4,0,1,3,2,5,H-,1,1,2,0,1000,250.0,1,C20JN,140,train
720.4179763793945,4,0,1,3,2,5,H-,1,4,0,0,1000,250.0,4,C20JN,141,train
497.1461296081543,4,0,1,3,2,5,H-,1,1,2,0,1000,250.0,1,C20JN,142,train
1057.59596824646,4,0,1,3,2,5,H-,1,5,5,0,1000,250.0,5,C20JN,143,train
977.3809909820557,4,0,1,3,2,5,H-,1,3,3,0,1000,250.0,3,C20JN,144,train
689.2180442810059,4,0,1,3,2,5,H-,1,2,4,0,1000,250.0,2,C20JN,145,train
528.9309024810791,4,0,1,3,2,5,H-,1,0,1,0,1000,250.0,0,C20JN,146,train
577.3429870605469,4,0,1,3,2,5,H-,1,2,4,0,1000,250.0,2,C20JN,147,train
385.5857849121094,4,0,1,3,2,5,H-,1,0,1,0,1000,250.0,0,C20JN,148,train
721.4078903198242,4,0,1,3,2,5,H-,1,5,5,0,1000,250.0,5,C20JN,149,train
625.7221698760986,4,0,1,3,2,5,H-,1,5,5,0,1000,250.0,5,C20JN,150,train
561.4709854125977,4,0,1,3,2,5,H-,1,2,4,0,1000,250.0,2,C20JN,151,train
1281.2130451202393,4,0,1,3,2,5,H-,1,5,5,0,1000,250.0,5,C20JN,152,train
721.5039730072021,4,0,1,3,2,5,H-,1,4,0,0,1000,250.0,4,C20JN,153,train
817.5501823425293,4,0,1,3,2,5,H-,1,1,2,0,1000,250.0,1,C20JN,154,train
577.7649879455566,4,0,1,3,2,5,H-,1,2,4,0,1000,250.0,2,C20JN,155,train
607.4800491333008,4,0,1,3,2,5,H-,1,1,2,0,1000,250.0,1,C20JN,156,train
673.2089519500732,4,0,1,3,2,5,H-,1,1,2,0,1000,250.0,1,C20JN,157,train
896.914005279541,4,0,1,3,2,5,H-,1,4,0,0,1000,250.0,4,C20JN,158,train
672.9700565338135,4,0,1,3,2,5,H-,1,3,3,0,1000,250.0,3,C20JN,159,train
705.2900791168213,4,0,1,3,2,5,H-,1,3,3,0,1000,250.0,3,C20JN,160,train
561.486005783081,4,0,1,3,2,5,H-,1,2,4,0,1000,250.0,2,C20JN,161,train
672.652006149292,4,0,1,3,2,5,H-,1,3,3,0,1000,250.0,3,C20JN,162,train
721.1689949035645,4,0,1,3,2,5,H-,1,4,0,0,1000,250.0,4,C20JN,163,train
577.5299072265625,4,0,1,3,2,5,H-,1,2,4,0,1000,250.0,2,C20JN,164,train
513.6778354644775,4,0,1,3,2,5,H-,1,0,1,0,1000,250.0,0,C20JN,165,train
449.5811462402344,4,0,1,3,2,5,H-,0,1,2,0,1000,250.0,0,C20JN,166,train
705.1689624786377,4,0,1,3,2,5,H-,1,4,0,0,1000,250.0,4,C20JN,167,train
561.4550113677979,4,0,1,3,2,5,H-,1,4,0,0,1000,250.0,4,C20JN,168,train
705.4879665374756,4,0,1,3,2,5,H-,1,5,5,0,1000,250.0,5,C20JN,169,train
497.0669746398926,4,0,1,3,2,5,H-,1,0,1,0,1000,250.0,0,C20JN,170,train
513.3030414581299,4,0,1,3,2,5,H-,1,1,2,0,1000,250.0,1,C20JN,171,train
705.3020000457764,4,0,1,3,2,5,H-,1,3,3,0,1000,250.0,3,C20JN,172,train
560.6441497802734,4,0,1,3,2,5,H-,1,1,2,0,1000,250.0,1,C20JN,173,train
625.187873840332,4,0,1,3,2,5,H-,1,2,4,0,1000,250.0,2,C20JN,174,train
433.35413932800293,4,0,1,3,2,5,H-,1,2,4,0,1000,250.0,2,C20JN,175,train
529.2019844055176,4,0,1,3,2,5,H-,1,0,1,0,1000,250.0,0,C20JN,176,train
559.1721534729004,4,0,1,3,2,5,H-,1,3,3,0,1000,250.0,3,C20JN,177,train
529.278039932251,4,0,1,3,2,5,H-,1,2,4,0,1000,250.0,2,C20JN,178,train
593.519926071167,4,0,1,3,2,5,H-,1,1,2,0,1000,250.0,1,C20JN,179,train
545.2899932861328,4,0,1,3,2,5,H-,1,2,4,0,1000,250.0,2,C20JN,180,train
545.3400611877441,4,0,1,3,2,5,H-,1,2,4,0,1000,250.0,2,C20JN,181,train
511.4610195159912,4,0,1,3,2,5,H-,1,3,3,0,1000,250.0,3,C20JN,182,train
481.5869331359863,4,0,1,3,2,5,H-,1,1,2,0,1000,250.0,1,C20JN,183,train
689.0430450439453,4,0,1,3,2,5,H-,1,5,5,0,1000,250.0,5,C20JN,184,train
417.27304458618164,4,0,1,3,2,5,H-,1,5,5,0,1000,250.0,5,C20JN,185,train
593.2319164276123,4,0,1,3,2,5,H-,1,1,2,0,1000,250.0,1,C20JN,186,train
449.36203956604004,4,0,1,3,2,5,H-,1,1,2,0,1000,250.0,1,C20JN,187,train
529.5908451080322,4,0,1,3,2,5,H-,1,0,1,0,1000,250.0,0,C20JN,188,train
575.4539966583252,4,0,1,3,2,5,H-,1,2,4,0,1000,250.0,2,C20JN,189,train
577.2171020507812,4,0,1,3,2,5,H-,1,3,3,0,1000,250.0,3,C20JN,190,train
465.1200771331787,4,0,1,3,2,5,H-,1,0,1,0,1000,250.0,0,C20JN,191,train
465.17109870910645,4,0,1,3,2,5,H-,1,1,2,0,1000,250.0,1,C20JN,192,train
561.1860752105713,4,0,1,3,2,5,H-,1,3,3,0,1000,250.0,3,C20JN,193,train
481.24194145202637,4,0,1,3,2,5,H-,1,3,3,0,1000,250.0,3,C20JN,194,train
449.3138790130615,4,0,1,3,2,5,H-,1,3,3,0,1000,250.0,3,C20JN,195,train
465.7168388366699,4,0,1,3,2,5,H-,1,1,2,0,1000,250.0,1,C20JN,196,train
353.4669876098633,4,0,1,3,2,5,H-,1,1,2,0,1000,250.0,1,C20JN,197,train
672.3759174346924,4,0,1,3,2,5,H-,1,1,2,0,1000,250.0,1,C20JN,198,train
369.09985542297363,4,0,1,3,2,5,H-,1,1,2,0,1000,250.0,1,C20JN,199,train
289.3948554992676,4,0,1,3,2,5,H-,1,1,2,0,1000,250.0,1,C20JN,200,train
720.9360599517822,4,0,1,3,2,5,H-,1,3,3,0,1000,250.0,3,C20JN,201,train
481.20999336242676,4,0,1,3,2,5,H-,1,1,2,0,1000,250.0,1,C20JN,202,train
769.5140838623047,4,0,1,3,2,5,H-,1,3,3,0,1000,250.0,3,C20JN,203,train
719.167947769165,4,0,1,3,2,5,H-,1,4,0,0,1000,250.0,4,C20JN,204,train
593.487024307251,4,0,1,3,2,5,H-,1,5,5,0,1000,250.0,5,C20JN,205,train
529.5040607452393,4,0,1,3,2,5,H-,1,3,3,0,1000,250.0,3,C20JN,206,train
688.8878345489502,4,0,1,3,2,5,H-,1,5,5,0,1000,250.0,5,C20JN,207,train
561.3272190093994,4,0,1,3,2,5,H-,1,4,0,0,1000,250.0,4,C20JN,208,train
1057.210922241211,4,0,1,3,2,5,H-,0,2,4,0,1000,250.0,4,C20JN,209,train
945.2688694000244,4,0,1,3,2,5,H-,1,1,2,0,1000,250.0,1,C20JN,210,train
609.3640327453613,4,0,1,3,2,5,H-,1,4,0,0,1000,250.0,4,C20JN,211,train
657.3340892791748,4,0,1,3,2,5,H-,1,2,4,0,1000,250.0,2,C20JN,212,train
1121.4678287506104,4,0,1,3,2,5,H-,1,1,2,0,1000,250.0,1,C20JN,213,train
991.4560317993164,4,0,1,3,2,5,H-,1,3,3,0,1000,250.0,3,C20JN,214,train
593.2919979095459,4,0,1,3,2,5,H-,0,2,4,0,1000,250.0,1,C20JN,215,train
576.4110088348389,4,0,1,3,2,5,H-,1,1,2,0,1000,250.0,1,C20JN,216,train
593.4720039367676,4,0,1,3,2,5,H-,1,2,4,0,1000,250.0,2,C20JN,217,train
769.3829536437988,4,0,1,3,2,5,H-,1,3,3,0,1000,250.0,3,C20JN,218,train
641.3640975952148,4,0,1,3,2,5,H-,1,5,5,0,1000,250.0,5,C20JN,219,train
433.31003189086914,4,0,1,3,2,5,H-,1,3,3,0,1000,250.0,3,C20JN,220,train
529.2811393737793,4,0,1,3,2,5,H-,1,3,3,0,1000,250.0,3,C20JN,221,train
705.3439617156982,4,0,1,3,2,5,H-,1,5,5,0,1000,250.0,5,C20JN,222,train
1217.3490524291992,4,0,1,3,2,5,H-,1,2,4,0,1000,250.0,2,C20JN,223,train
801.1260032653809,4,0,1,3,2,5,H-,1,5,5,0,1000,250.0,5,C20JN,224,train
641.2668228149414,4,0,1,3,2,5,H-,1,1,2,0,1000,250.0,1,C20JN,225,train
753.9660930633545,4,0,1,3,2,5,H-,1,3,3,0,1000,250.0,3,C20JN,226,train
465.64507484436035,4,0,1,3,2,5,H-,1,3,3,0,1000,250.0,3,C20JN,227,train
641.03102684021,4,0,1,3,2,5,H-,1,4,0,0,1000,250.0,4,C20JN,228,train
497.6010322570801,4,0,1,3,2,5,H-,1,2,4,0,1000,250.0,2,C20JN,229,train
513.1227970123291,4,0,1,3,2,5,H-,1,3,3,0,1000,250.0,3,C20JN,230,train
481.4138412475586,4,0,1,3,2,5,H-,1,2,4,0,1000,250.0,2,C20JN,231,train
561.2168312072754,4,0,1,3,2,5,H-,1,5,5,0,1000,250.0,5,C20JN,232,train
465.27695655822754,4,0,1,3,2,5,H-,1,4,0,0,1000,250.0,4,C20JN,233,train
513.5459899902344,4,0,1,3,2,5,H-,1,0,1,0,1000,250.0,0,C20JN,234,train
1023.4270095825195,4,0,1,3,2,5,H-,1,4,0,0,1000,250.0,4,C20JN,235,train
609.3101501464844,4,0,1,3,2,5,H-,1,5,5,0,1000,250.0,5,C20JN,236,train
593.6601161956787,4,0,1,3,2,5,H-,1,1,2,0,1000,250.0,1,C20JN,237,train
545.3200340270996,4,0,1,3,2,5,H-,1,3,3,0,1000,250.0,3,C20JN,238,train
561.3689422607422,4,0,1,3,2,5,H-,1,5,5,0,1000,250.0,5,C20JN,239,train
1009.364128112793,4,0,1,3,2,5,H-,1,4,0,0,1000,250.0,4,C20JN,240,train
592.674970626831,4,0,1,3,2,5,H-,1,4,0,0,1000,250.0,4,C20JN,241,train
575.524091720581,4,0,1,3,2,5,H-,1,1,2,0,1000,250.0,1,C20JN,242,train
609.2789173126221,4,0,1,3,2,5,H-,1,5,5,0,1000,250.0,5,C20JN,243,train
1617.3338890075684,4,0,1,3,2,5,H-,1,2,4,0,1000,250.0,2,C20JN,244,train
577.2860050201416,4,0,1,3,2,5,H-,1,2,4,0,1000,250.0,2,C20JN,245,train
705.5528163909912,4,0,1,3,2,5,H-,1,3,3,0,1000,250.0,3,C20JN,246,train
961.2879753112793,4,0,1,3,2,5,H-,1,4,0,0,1000,250.0,4,C20JN,247,train
609.2219352722168,4,0,1,3,2,5,H-,1,2,4,0,1000,250.0,2,C20JN,248,train
529.149055480957,4,0,1,3,2,5,H-,1,0,1,0,1000,250.0,0,C20JN,249,train
1393.1798934936523,5,4,1,2,3,0,H-,1,4,1,0,1000,250.0,4,C20JN,250,test
545.5970764160156,5,4,1,2,3,0,H-,1,4,1,0,1000,250.0,4,C20JN,251,test
1233.3660125732422,5,4,1,2,3,0,H-,1,5,0,0,1000,250.0,5,C20JN,252,test
577.6090621948242,5,4,1,2,3,0,H-,1,0,5,0,1000,250.0,0,C20JN,253,test
817.6829814910889,5,4,1,2,3,0,H-,1,0,5,0,1000,250.0,0,C20JN,254,test
513.2400989532471,5,4,1,2,3,0,H-,1,0,5,0,1000,250.0,0,C20JN,255,test
1329.3490409851074,5,4,1,2,3,0,H-,1,2,3,0,1000,250.0,2,C20JN,256,test
657.0789813995361,5,4,1,2,3,0,H-,1,2,3,0,1000,250.0,2,C20JN,257,test
1073.46510887146,5,4,1,2,3,0,H-,1,5,0,0,1000,250.0,5,C20JN,258,test
545.2921390533447,5,4,1,2,3,0,H-,0,1,2,0,1000,250.0,2,C20JN,259,test
977.4339199066162,5,4,1,2,3,0,H-,1,4,1,0,1000,250.0,4,C20JN,260,test
625.5371570587158,5,4,1,2,3,0,H-,0,2,3,0,1000,250.0,0,C20JN,261,test
1025.2690315246582,5,4,1,2,3,0,H-,1,5,0,0,1000,250.0,5,C20JN,262,test
753.4270286560059,5,4,1,2,3,0,H-,1,5,0,0,1000,250.0,5,C20JN,263,test
863.4920120239258,5,4,1,2,3,0,H-,1,1,2,0,1000,250.0,1,C20JN,264,test
1313.4500980377197,5,4,1,2,3,0,H-,1,3,4,0,1000,250.0,3,C20JN,265,test
753.3969879150391,5,4,1,2,3,0,H-,1,4,1,0,1000,250.0,4,C20JN,266,test
897.3119258880615,5,4,1,2,3,0,H-,1,3,4,0,1000,250.0,3,C20JN,267,test
465.23094177246094,5,4,1,2,3,0,H-,1,1,2,0,1000,250.0,1,C20JN,268,test
417.47188568115234,5,4,1,2,3,0,H-,1,1,2,0,1000,250.0,1,C20JN,269,test
817.3608779907227,5,4,1,2,3,0,H-,1,3,4,0,1000,250.0,3,C20JN,270,test
369.1139221191406,5,4,1,2,3,0,H-,1,1,2,0,1000,250.0,1,C20JN,271,test
337.77594566345215,5,4,1,2,3,0,H-,1,1,2,0,1000,250.0,1,C20JN,272,test
801.1038303375244,5,4,1,2,3,0,H-,1,0,5,0,1000,250.0,0,C20JN,273,test
657.0210456848145,5,4,1,2,3,0,H-,1,2,3,0,1000,250.0,2,C20JN,274,test
673.5930442810059,5,4,1,2,3,0,H-,1,0,5,0,1000,250.0,0,C20JN,275,test
1057.224988937378,5,4,1,2,3,0,H-,1,3,4,0,1000,250.0,3,C20JN,276,test
609.4529628753662,5,4,1,2,3,0,H-,1,0,5,0,1000,250.0,0,C20JN,277,test
593.2331085205078,5,4,1,2,3,0,H-,1,4,1,0,1000,250.0,4,C20JN,278,test
657.4690341949463,5,4,1,2,3,0,H-,0,4,1,0,1000,250.0,5,C20JN,279,test
689.2249584197998,5,4,1,2,3,0,H-,1,1,2,0,1000,250.0,1,C20JN,280,test
673.2230186462402,5,4,1,2,3,0,H-,1,2,3,0,1000,250.0,2,C20JN,281,test
801.0909557342529,5,4,1,2,3,0,H-,1,2,3,0,1000,250.0,2,C20JN,282,test
657.4110984802246,5,4,1,2,3,0,H-,1,5,0,0,1000,250.0,5,C20JN,283,test
609.1709136962891,5,4,1,2,3,0,H-,0,3,4,0,1000,250.0,5,C20JN,284,test
481.3389778137207,5,4,1,2,3,0,H-,1,3,4,0,1000,250.0,3,C20JN,285,test
1153.0678272247314,5,4,1,2,3,0,H-,1,5,0,0,1000,250.0,5,C20JN,286,test
465.15417098999023,5,4,1,2,3,0,H-,1,5,0,0,1000,250.0,5,C20JN,287,test
689.3219947814941,5,4,1,2,3,0,H-,1,0,5,0,1000,250.0,0,C20JN,288,test
417.2701835632324,5,4,1,2,3,0,H-,1,0,5,0,1000,250.0,0,C20JN,289,test
657.397985458374,5,4,1,2,3,0,H-,1,1,2,0,1000,250.0,1,C20JN,290,test
545.274019241333,5,4,1,2,3,0,H-,1,0,5,0,1000,250.0,0,C20JN,291,test
801.0468482971191,5,4,1,2,3,0,H-,1,4,1,0,1000,250.0,4,C20JN,292,test
833.0519199371338,5,4,1,2,3,0,H-,1,2,3,0,1000,250.0,2,C20JN,293,test
526.9918441772461,5,4,1,2,3,0,H-,1,4,1,0,1000,250.0,4,C20JN,294,test
401.14593505859375,5,4,1,2,3,0,H-,1,4,1,0,1000,250.0,4,C20JN,295,test
465.2900695800781,5,4,1,2,3,0,H-,0,0,5,0,1000,250.0,2,C20JN,296,test
417.6771640777588,5,4,1,2,3,0,H-,1,0,5,0,1000,250.0,0,C20JN,297,test
593.4560298919678,5,4,1,2,3,0,H-,1,1,2,0,1000,250.0,1,C20JN,298,test
481.3511371612549,5,4,1,2,3,0,H-,1,0,5,0,1000,250.0,0,C20JN,299,test
401.6380310058594,5,4,1,2,3,0,H-,1,0,5,0,1000,250.0,0,C20JN,300,test
1105.2379608154297,5,4,1,2,3,0,H-,1,3,4,0,1000,250.0,3,C20JN,301,test
433.6259365081787,5,4,1,2,3,0,H-,1,3,4,0,1000,250.0,3,C20JN,302,test
689.4791126251221,5,4,1,2,3,0,H-,1,4,1,0,1000,250.0,4,C20JN,303,test
593.3220386505127,5,4,1,2,3,0,H-,1,2,3,0,1000,250.0,2,C20JN,304,test
497.13706970214844,5,4,1,2,3,0,H-,1,0,5,0,1000,250.0,0,C20JN,305,test
353.74903678894043,5,4,1,2,3,0,H-,1,0,5,0,1000,250.0,0,C20JN,306,test
608.9470386505127,5,4,1,2,3,0,H-,1,4,1,0,1000,250.0,4,C20JN,307,test
513.4649276733398,5,4,1,2,3,0,H-,0,3,4,0,1000,250.0,2,C20JN,308,test
593.0311679840088,5,4,1,2,3,0,H-,1,1,2,0,1000,250.0,1,C20JN,309,test
929.2051792144775,5,4,1,2,3,0,H-,1,2,3,0,1000,250.0,2,C20JN,310,test
833.2850933074951,5,4,1,2,3,0,H-,1,5,0,0,1000,250.0,5,C20JN,311,test
657.2949886322021,5,4,1,2,3,0,H-,1,0,5,0,1000,250.0,0,C20JN,312,test
1153.1469821929932,5,4,1,2,3,0,H-,1,3,4,0,1000,250.0,3,C20JN,313,test
801.1519908905029,5,4,1,2,3,0,H-,1,3,4,0,1000,250.0,3,C20JN,314,test
479.5260429382324,5,4,1,2,3,0,H-,1,3,4,0,1000,250.0,3,C20JN,315,test
751.3811588287354,5,4,1,2,3,0,H-,1,5,0,0,1000,250.0,5,C20JN,316,test
672.5330352783203,5,4,1,2,3,0,H-,1,2,3,0,1000,250.0,2,C20JN,317,test
769.1941261291504,5,4,1,2,3,0,H-,1,5,0,0,1000,250.0,5,C20JN,318,test
433.37202072143555,5,4,1,2,3,0,H-,1,5,0,0,1000,250.0,5,C20JN,319,test
385.2651119232178,5,4,1,2,3,0,H-,1,5,0,0,1000,250.0,5,C20JN,320,test
641.6828632354736,5,4,1,2,3,0,H-,1,1,2,0,1000,250.0,1,C20JN,321,test
896.9829082489014,5,4,1,2,3,0,H-,0,3,4,0,1000,250.0,5,C20JN,322,test
801.0268211364746,5,4,1,2,3,0,H-,1,5,0,0,1000,250.0,5,C20JN,323,test
575.1159191131592,5,4,1,2,3,0,H-,1,4,1,0,1000,250.0,4,C20JN,324,test
593.4951305389404,5,4,1,2,3,0,H-,0,2,3,0,1000,250.0,0,C20JN,325,test
593.2340621948242,5,4,1,2,3,0,H-,1,4,1,0,1000,250.0,4,C20JN,326,test
609.1649532318115,5,4,1,2,3,0,H-,1,0,5,0,1000,250.0,0,C20JN,327,test
737.3731136322021,5,4,1,2,3,0,H-,0,3,4,0,1000,250.0,5,C20JN,328,test
544.950008392334,5,4,1,2,3,0,H-,1,1,2,0,1000,250.0,1,C20JN,329,test
608.8829040527344,5,4,1,2,3,0,H-,1,4,1,0,1000,250.0,4,C20JN,330,test
1089.1761779785156,5,4,1,2,3,0,H-,1,5,0,0,1000,250.0,5,C20JN,331,test
543.0419445037842,5,4,1,2,3,0,H-,1,0,5,0,1000,250.0,0,C20JN,332,test
513.6539936065674,5,4,1,2,3,0,H-,1,1,2,0,1000,250.0,1,C20JN,333,test
592.7870273590088,5,4,1,2,3,0,H-,1,0,5,0,1000,250.0,0,C20JN,334,test
785.5570316314697,5,4,1,2,3,0,H-,1,4,1,0,1000,250.0,4,C20JN,335,test
800.2409934997559,5,4,1,2,3,0,H-,1,3,4,0,1000,250.0,3,C20JN,336,test
513.2930278778076,5,4,1,2,3,0,H-,1,0,5,0,1000,250.0,0,C20JN,337,test
769.6709632873535,5,4,1,2,3,0,H-,1,4,1,0,1000,250.0,4,C20JN,338,test
1297.7559566497803,5,4,1,2,3,0,H-,1,3,4,0,1000,250.0,3,C20JN,339,test
1489.2139434814453,5,4,1,2,3,0,H-,1,2,3,0,1000,250.0,2,C20JN,340,test
721.5750217437744,5,4,1,2,3,0,H-,1,4,1,0,1000,250.0,4,C20JN,341,test
657.1509838104248,5,4,1,2,3,0,H-,0,2,3,0,1000,250.0,0,C20JN,342,test
561.042070388794,5,4,1,2,3,0,H-,1,1,2,0,1000,250.0,1,C20JN,343,test
608.8860034942627,5,4,1,2,3,0,H-,1,4,1,0,1000,250.0,4,C20JN,344,test
689.49294090271,5,4,1,2,3,0,H-,1,3,4,0,1000,250.0,3,C20JN,345,test
721.5940952301025,5,4,1,2,3,0,H-,1,5,0,0,1000,250.0,5,C20JN,346,test
737.6279830932617,5,4,1,2,3,0,H-,1,4,1,0,1000,250.0,4,C20JN,347,test
753.432035446167,5,4,1,2,3,0,H-,1,1,2,0,1000,250.0,1,C20JN,348,test
561.6300106048584,5,4,1,2,3,0,H-,1,3,4,0,1000,250.0,3,C20JN,349,test
657.3269367218018,5,4,1,2,3,0,H-,1,2,3,0,1000,250.0,2,C20JN,350,test
465.6820297241211,5,4,1,2,3,0,H-,1,0,5,0,1000,250.0,0,C20JN,351,test
529.1831493377686,5,4,1,2,3,0,H-,1,5,0,0,1000,250.0,5,C20JN,352,test
545.039176940918,5,4,1,2,3,0,H-,0,3,4,0,1000,250.0,2,C20JN,353,test
561.4960193634033,5,4,1,2,3,0,H-,1,5,0,0,1000,250.0,5,C20JN,354,test
1041.3990020751953,5,4,1,2,3,0,H-,1,3,4,0,1000,250.0,3,C20JN,355,test
433.1059455871582,5,4,1,2,3,0,H-,1,3,4,0,1000,250.0,3,C20JN,356,test
529.188871383667,5,4,1,2,3,0,H-,1,0,5,0,1000,250.0,0,C20JN,357,test
609.184980392456,5,4,1,2,3,0,H-,1,5,0,0,1000,250.0,5,C20JN,358,test
593.5440063476562,5,4,1,2,3,0,H-,1,5,0,0,1000,250.0,5,C20JN,359,test
353.09720039367676,5,4,1,2,3,0,H-,1,5,0,0,1000,250.0,5,C20JN,360,test
529.4668674468994,5,4,1,2,3,0,H-,1,1,2,0,1000,250.0,1,C20JN,361,test
961.3189697265625,5,4,1,2,3,0,H-,1,2,3,0,1000,250.0,2,C20JN,362,test
449.2311477661133,5,4,1,2,3,0,H-,1,0,5,0,1000,250.0,0,C20JN,363,test
448.98390769958496,5,4,1,2,3,0,H-,0,2,3,0,1000,250.0,0,C20JN,364,test
721.4069366455078,5,4,1,2,3,0,H-,1,3,4,0,1000,250.0,3,C20JN,365,test
513.2060050964355,5,4,1,2,3,0,H-,1,5,0,0,1000,250.0,5,C20JN,366,test
497.33519554138184,5,4,1,2,3,0,H-,1,0,5,0,1000,250.0,0,C20JN,367,test
623.3348846435547,5,4,1,2,3,0,H-,1,4,1,0,1000,250.0,4,C20JN,368,test
511.2760066986084,5,4,1,2,3,0,H-,1,1,2,0,1000,250.0,1,C20JN,369,test
529.6568870544434,5,4,1,2,3,0,H-,1,1,2,0,1000,250.0,1,C20JN,370,test
1201.0610103607178,5,4,1,2,3,0,H-,1,5,0,0,1000,250.0,5,C20JN,371,test
640.449047088623,5,4,1,2,3,0,H-,1,2,3,0,1000,250.0,2,C20JN,372,test
609.6539497375488,5,4,1,2,3,0,H-,0,3,4,0,1000,250.0,2,C20JN,373,test
481.24003410339355,5,4,1,2,3,0,H-,1,0,5,0,1000,250.0,0,C20JN,374,test
737.166166305542,5,4,1,2,3,0,H-,1,2,3,0,1000,250.0,2,C20JN,375,test
513.5838985443115,5,4,1,2,3,0,H-,1,1,2,0,1000,250.0,1,C20JN,376,test
481.4310073852539,5,4,1,2,3,0,H-,1,4,1,0,1000,250.0,4,C20JN,377,test
545.3732013702393,5,4,1,2,3,0,H-,1,5,0,0,1000,250.0,5,C20JN,378,test
415.3101444244385,5,4,1,2,3,0,H-,1,4,1,0,1000,250.0,4,C20JN,379,test
450.05202293395996,5,4,1,2,3,0,H-,1,4,1,0,1000,250.0,4,C20JN,380,test
337.5720977783203,5,4,1,2,3,0,H-,1,4,1,0,1000,250.0,4,C20JN,381,test
1359.079122543335,5,4,1,2,3,0,H-,1,2,3,0,1000,250.0,2,C20JN,382,test
465.5129909515381,5,4,1,2,3,0,H-,1,1,2,0,1000,250.0,1,C20JN,383,test
527.3840427398682,5,4,1,2,3,0,H-,1,0,5,0,1000,250.0,0,C20JN,384,test
465.3627872467041,5,4,1,2,3,0,H-,1,1,2,0,1000,250.0,1,C20JN,385,test
497.69091606140137,5,4,1,2,3,0,H-,1,4,1,0,1000,250.0,4,C20JN,386,test
703.369140625,5,4,1,2,3,0,H-,1,2,3,0,1000,250.0,2,C20JN,387,test
385.47801971435547,5,4,1,2,3,0,H-,1,2,3,0,1000,250.0,2,C20JN,388,test
577.2020816802979,5,4,1,2,3,0,H-,1,0,5,0,1000,250.0,0,C20JN,389,test
609.1220378875732,5,4,1,2,3,0,H-,1,3,4,0,1000,250.0,3,C20JN,390,test
609.1151237487793,5,4,1,2,3,0,H-,1,5,0,0,1000,250.0,5,C20JN,391,test
769.3560123443604,5,4,1,2,3,0,H-,1,2,3,0,1000,250.0,2,C20JN,392,test
593.0981636047363,5,4,1,2,3,0,H-,0,3,4,0,1000,250.0,2,C20JN,393,test
721.0590839385986,5,4,1,2,3,0,H-,1,2,3,0,1000,250.0,2,C20JN,394,test
641.6020393371582,5,4,1,2,3,0,H-,1,3,4,0,1000,250.0,3,C20JN,395,test
465.2070999145508,5,4,1,2,3,0,H-,1,5,0,0,1000,250.0,5,C20JN,396,test
577.3279666900635,5,4,1,2,3,0,H-,1,1,2,0,1000,250.0,1,C20JN,397,test
401.19004249572754,5,4,1,2,3,0,H-,1,1,2,0,1000,250.0,1,C20JN,398,test
369.3380355834961,5,4,1,2,3,0,H-,1,1,2,0,1000,250.0,1,C20JN,399,test
530.0841331481934,5,4,1,2,3,0,H-,1,0,5,0,1000,250.0,0,C20JN,400,test
721.074104309082,5,4,1,2,3,0,H-,1,3,4,0,1000,250.0,3,C20JN,401,test
561.2471103668213,5,4,1,2,3,0,H-,1,4,1,0,1000,250.0,4,C20JN,402,test
929.3649196624756,5,4,1,2,3,0,H-,1,5,0,0,1000,250.0,5,C20JN,403,test
481.56189918518066,5,4,1,2,3,0,H-,1,0,5,0,1000,250.0,0,C20JN,404,test
593.189001083374,5,4,1,2,3,0,H-,1,2,3,0,1000,250.0,2,C20JN,405,test
513.1270885467529,5,4,1,2,3,0,H-,1,3,4,0,1000,250.0,3,C20JN,406,test
881.55198097229,5,4,1,2,3,0,H-,1,2,3,0,1000,250.0,2,C20JN,407,test
545.0809001922607,5,4,1,2,3,0,H-,1,4,1,0,1000,250.0,4,C20JN,408,test
641.2270069122314,5,4,1,2,3,0,H-,1,3,4,0,1000,250.0,3,C20JN,409,test
561.2790584564209,5,4,1,2,3,0,H-,1,4,1,0,1000,250.0,4,C20JN,410,test
847.3811149597168,5,4,1,2,3,0,H-,1,1,2,0,1000,250.0,1,C20JN,411,test
831.3541412353516,5,4,1,2,3,0,H-,1,0,5,0,1000,250.0,0,C20JN,412,test
784.8069667816162,5,4,1,2,3,0,H-,1,3,4,0,1000,250.0,3,C20JN,413,test
785.6380939483643,5,4,1,2,3,0,H-,1,0,5,0,1000,250.0,0,C20JN,414,test
705.1539421081543,5,4,1,2,3,0,H-,1,3,4,0,1000,250.0,3,C20JN,415,test
769.5128917694092,5,4,1,2,3,0,H-,1,1,2,0,1000,250.0,1,C20JN,416,test
591.1159515380859,5,4,1,2,3,0,H-,1,2,3,0,1000,250.0,2,C20JN,417,test
721.7879295349121,5,4,1,2,3,0,H-,1,3,4,0,1000,250.0,3,C20JN,418,test
609.0059280395508,5,4,1,2,3,0,H-,1,2,3,0,1000,250.0,2,C20JN,419,test
480.1068305969238,5,4,1,2,3,0,H-,1,4,1,0,1000,250.0,4,C20JN,420,test
577.6350498199463,5,4,1,2,3,0,H-,1,5,0,0,1000,250.0,5,C20JN,421,test
513.1759643554688,5,4,1,2,3,0,H-,1,5,0,0,1000,250.0,5,C20JN,422,test
481.79006576538086,5,4,1,2,3,0,H-,1,5,0,0,1000,250.0,5,C20JN,423,test
752.9890537261963,5,4,1,2,3,0,H-,1,3,4,0,1000,250.0,3,C20JN,424,test
721.1320400238037,5,4,1,2,3,0,H-,1,2,3,0,1000,250.0,2,C20JN,425,test
607.3129177093506,5,4,1,2,3,0,H-,1,5,0,0,1000,250.0,5,C20JN,426,test
449.786901473999,5,4,1,2,3,0,H-,1,5,0,0,1000,250.0,5,C20JN,427,test
657.1738719940186,5,4,1,2,3,0,H-,1,0,5,0,1000,250.0,0,C20JN,428,test
497.24793434143066,5,4,1,2,3,0,H-,1,4,1,0,1000,250.0,4,C20JN,429,test
689.2690658569336,5,4,1,2,3,0,H-,1,0,5,0,1000,250.0,0,C20JN,430,test
481.55903816223145,5,4,1,2,3,0,H-,1,3,4,0,1000,250.0,3,C20JN,431,test
464.97201919555664,5,4,1,2,3,0,H-,0,4,1,0,1000,250.0,5,C20JN,432,test
577.1670341491699,5,4,1,2,3,0,H-,1,3,4,0,1000,250.0,3,C20JN,433,test
720.3249931335449,5,4,1,2,3,0,H-,1,5,0,0,1000,250.0,5,C20JN,434,test
577.2559642791748,5,4,1,2,3,0,H-,0,2,3,0,1000,250.0,0,C20JN,435,test
513.4720802307129,5,4,1,2,3,0,H-,1,4,1,0,1000,250.0,4,C20JN,436,test
561.5711212158203,5,4,1,2,3,0,H-,1,5,0,0,1000,250.0,5,C20JN,437,test
511.31391525268555,5,4,1,2,3,0,H-,1,4,1,0,1000,250.0,4,C20JN,438,test
609.2350482940674,5,4,1,2,3,0,H-,1,0,5,0,1000,250.0,0,C20JN,439,test
769.1769599914551,5,4,1,2,3,0,H-,1,1,2,0,1000,250.0,1,C20JN,440,test
689.4271373748779,5,4,1,2,3,0,H-,1,0,5,0,1000,250.0,0,C20JN,441,test
417.2039031982422,5,4,1,2,3,0,H-,1,0,5,0,1000,250.0,0,C20JN,442,test
607.2440147399902,5,4,1,2,3,0,H-,1,3,4,0,1000,250.0,3,C20JN,443,test
480.95703125,5,4,1,2,3,0,H-,1,4,1,0,1000,250.0,4,C20JN,444,test
641.671895980835,5,4,1,2,3,0,H-,1,3,4,0,1000,250.0,3,C20JN,445,test
433.23612213134766,5,4,1,2,3,0,H-,1,3,4,0,1000,250.0,3,C20JN,446,test
465.35301208496094,5,4,1,2,3,0,H-,1,1,2,0,1000,250.0,1,C20JN,447,test
529.1061401367188,5,4,1,2,3,0,H-,1,4,1,0,1000,250.0,4,C20JN,448,test
513.5831832885742,5,4,1,2,3,0,H-,1,4,1,0,1000,250.0,4,C20JN,449,test
543.5149669647217,5,4,1,2,3,0,H-,1,5,0,0,1000,250.0,5,C20JN,450,test
528.5961627960205,5,4,1,2,3,0,H-,1,5,0,0,1000,250.0,5,C20JN,451,test
529.7131538391113,5,4,1,2,3,0,H-,1,0,5,0,1000,250.0,0,C20JN,452,test
609.184980392456,5,4,1,2,3,0,H-,1,5,0,0,1000,250.0,5,C20JN,453,test
929.171085357666,5,4,1,2,3,0,H-,1,2,3,0,1000,250.0,2,C20JN,454,test
449.0818977355957,5,4,1,2,3,0,H-,1,5,0,0,1000,250.0,5,C20JN,455,test
433.042049407959,5,4,1,2,3,0,H-,0,4,1,0,1000,250.0,5,C20JN,456,test
641.1139965057373,5,4,1,2,3,0,H-,1,0,5,0,1000,250.0,0,C20JN,457,test
528.9738178253174,5,4,1,2,3,0,H-,1,0,5,0,1000,250.0,0,C20JN,458,test
609.2441082000732,5,4,1,2,3,0,H-,0,3,4,0,1000,250.0,2,C20JN,459,test
577.2929191589355,5,4,1,2,3,0,H-,1,4,1,0,1000,250.0,4,C20JN,460,test
561.0151290893555,5,4,1,2,3,0,H-,1,1,2,0,1000,250.0,1,C20JN,461,test
497.70116806030273,5,4,1,2,3,0,H-,1,1,2,0,1000,250.0,1,C20JN,462,test
769.1640853881836,5,4,1,2,3,0,H-,1,2,3,0,1000,250.0,2,C20JN,463,test
529.2329788208008,5,4,1,2,3,0,H-,1,4,1,0,1000,250.0,4,C20JN,464,test
561.1279010772705,5,4,1,2,3,0,H-,1,5,0,0,1000,250.0,5,C20JN,465,test
737.6871109008789,5,4,1,2,3,0,H-,1,0,5,0,1000,250.0,0,C20JN,466,test
1536.9279384613037,5,4,1,2,3,0,H-,1,3,4,0,1000,250.0,3,C20JN,467,test
642.117977142334,5,4,1,2,3,0,H-,1,2,3,0,1000,250.0,2,C20JN,468,test
640.4790878295898,5,4,1,2,3,0,H-,1,2,3,0,1000,250.0,2,C20JN,469,test
1073.577880859375,5,4,1,2,3,0,H-,1,0,5,0,1000,250.0,0,C20JN,470,test
401.386022567749,5,4,1,2,3,0,H-,0,2,3,0,1000,250.0,0,C20JN,471,test
896.8141078948975,5,4,1,2,3,0,H-,1,5,0,0,1000,250.0,5,C20JN,472,test
689.3749237060547,5,4,1,2,3,0,H-,1,3,4,0,1000,250.0,3,C20JN,473,test
513.5478973388672,5,4,1,2,3,0,H-,1,3,4,0,1000,250.0,3,C20JN,474,test
482.50389099121094,5,4,1,2,3,0,H-,1,4,1,0,1000,250.0,4,C20JN,475,test
865.2360439300537,5,4,1,2,3,0,H-,1,0,5,0,1000,250.0,0,C20JN,476,test
849.0309715270996,5,4,1,2,3,0,H-,1,3,4,0,1000,250.0,3,C20JN,477,test
577.3208141326904,5,4,1,2,3,0,H-,1,4,1,0,1000,250.0,4,C20JN,478,test
641.3259506225586,5,4,1,2,3,0,H-,1,2,3,0,1000,250.0,2,C20JN,479,test
401.58700942993164,5,4,1,2,3,0,H-,1,3,4,0,1000,250.0,3,C20JN,480,test
865.1659488677979,5,4,1,2,3,0,H-,1,5,0,0,1000,250.0,5,C20JN,481,test
945.1379776000977,5,4,1,2,3,0,H-,1,0,5,0,1000,250.0,0,C20JN,482,test
545.6368923187256,5,4,1,2,3,0,H-,1,3,4,0,1000,250.0,3,C20JN,483,test
399.2328643798828,5,4,1,2,3,0,H-,1,3,4,0,1000,250.0,3,C20JN,484,test
497.1909523010254,5,4,1,2,3,0,H-,1,4,1,0,1000,250.0,4,C20JN,485,test
448.8639831542969,5,4,1,2,3,0,H-,0,5,0,0,1000,250.0,3,C20JN,486,test
576.9119262695312,5,4,1,2,3,0,H-,1,1,2,0,1000,250.0,1,C20JN,487,test
656.9428443908691,5,4,1,2,3,0,H-,1,3,4,0,1000,250.0,3,C20JN,488,test
897.1331119537354,5,4,1,2,3,0,H-,1,1,2,0,1000,250.0,1,C20JN,489,test
849.2751121520996,5,4,1,2,3,0,H-,1,5,0,0,1000,250.0,5,C20JN,490,test
1103.186845779419,5,4,1,2,3,0,H-,1,5,0,0,1000,250.0,5,C20JN,491,test
1024.9240398406982,5,4,1,2,3,0,H-,1,2,3,0,1000,250.0,2,C20JN,492,test
641.2830352783203,5,4,1,2,3,0,H-,1,0,5,0,1000,250.0,0,C20JN,493,test
721.2378978729248,5,4,1,2,3,0,H-,1,4,1,0,1000,250.0,4,C20JN,494,test
608.6008548736572,5,4,1,2,3,0,H-,1,0,5,0,1000,250.0,0,C20JN,495,test
577.1489143371582,5,4,1,2,3,0,H-,1,2,3,0,1000,250.0,2,C20JN,496,test
673.2418537139893,5,4,1,2,3,0,H-,1,1,2,0,1000,250.0,1,C20JN,497,test
880.4819583892822,5,4,1,2,3,0,H-,1,2,3,0,1000,250.0,2,C20JN,498,test
497.3568916320801,5,4,1,2,3,0,H-,1,2,3,0,1000,250.0,2,C20JN,499,test
