RT,SRmap_0,SRmap_1,SRmap_2,SRmap_3,SRmap_4,SRmap_5,condition,correct,correct_response,curstim,ms-precue,ms-prestimblank,ntrials,response,subject,trial,type
8320.815086364746,0,1,2,5,4,3,H-,1,3,5,0,1000,250.0,3,C36MT,0,train
1856.6310405731201,0,1,2,5,4,3,H-,1,5,3,0,1000,250.0,5,C36MT,1,train
1505.0368309020996,0,1,2,5,4,3,H-,1,3,5,0,1000,250.0,3,C36MT,2,train
1456.942081451416,0,1,2,5,4,3,H-,1,4,4,0,1000,250.0,4,C36MT,3,train
1568.9270496368408,0,1,2,5,4,3,H-,1,0,0,0,1000,250.0,0,C36MT,4,train
1248.5089302062988,0,1,2,5,4,3,H-,1,3,5,0,1000,250.0,3,C36MT,5,train
800.8220195770264,0,1,2,5,4,3,H-,1,0,0,0,1000,250.0,0,C36MT,6,train
1105.057954788208,0,1,2,5,4,3,H-,1,3,5,0,1000,250.0,3,C36MT,7,train
960.8709812164307,0,1,2,5,4,3,H-,1,1,1,0,1000,250.0,1,C36MT,8,train
785.1438522338867,0,1,2,5,4,3,H-,1,3,5,0,1000,250.0,3,C36MT,9,train
673.1481552124023,0,1,2,5,4,3,H-,1,3,5,0,1000,250.0,3,C36MT,10,train
1009.0022087097168,0,1,2,5,4,3,H-,1,5,3,0,1000,250.0,5,C36MT,11,train
528.5840034484863,0,1,2,5,4,3,H-,1,0,0,0,1000,250.0,0,C36MT,12,train
993.1530952453613,0,1,2,5,4,3,H-,1,2,2,0,1000,250.0,2,C36MT,13,train
736.7839813232422,0,1,2,5,4,3,H-,1,4,4,0,1000,250.0,4,C36MT,14,train
496.76513671875,0,1,2,5,4,3,H-,1,0,0,0,1000,250.0,0,C36MT,15,train
848.8020896911621,0,1,2,5,4,3,H-,1,5,3,0,1000,250.0,5,C36MT,16,train
609.752893447876,0,1,2,5,4,3,H-,1,4,4,0,1000,250.0,4,C36MT,17,train
512.8228664398193,0,1,2,5,4,3,H-,1,1,1,0,1000,250.0,1,C36MT,18,train
608.6909770965576,0,1,2,5,4,3,H-,1,2,2,0,1000,250.0,2,C36MT,19,train
833.1851959228516,0,1,2,5,4,3,H-,1,3,5,0,1000,250.0,3,C36MT,20,train
624.7940063476562,0,1,2,5,4,3,H-,1,0,0,0,1000,250.0,0,C36MT,21,train
768.6290740966797,0,1,2,5,4,3,H-,0,3,5,0,1000,250.0,2,C36MT,22,train
784.6548557281494,0,1,2,5,4,3,H-,1,4,4,0,1000,250.0,4,C36MT,23,train
752.4471282958984,0,1,2,5,4,3,H-,1,1,1,0,1000,250.0,1,C36MT,24,train
768.7108516693115,0,1,2,5,4,3,H-,0,0,0,0,1000,250.0,3,C36MT,25,train
705.0600051879883,0,1,2,5,4,3,H-,1,2,2,0,1000,250.0,2,C36MT,26,train
734.982967376709,0,1,2,5,4,3,H-,1,1,1,0,1000,250.0,1,C36MT,27,train
880.8319568634033,0,1,2,5,4,3,H-,1,3,5,0,1000,250.0,3,C36MT,28,train
705.1849365234375,0,1,2,5,4,3,H-,1,2,2,0,1000,250.0,2,C36MT,29,train
640.8219337463379,0,1,2,5,4,3,H-,1,1,1,0,1000,250.0,1,C36MT,30,train
785.0110530853271,0,1,2,5,4,3,H-,1,3,5,0,1000,250.0,3,C36MT,31,train
720.9641933441162,0,1,2,5,4,3,H-,1,1,1,0,1000,250.0,1,C36MT,32,train
641.0658359527588,0,1,2,5,4,3,H-,1,4,4,0,1000,250.0,4,C36MT,33,train
544.4321632385254,0,1,2,5,4,3,H-,1,3,5,0,1000,250.0,3,C36MT,34,train
576.7500400543213,0,1,2,5,4,3,H-,1,3,5,0,1000,250.0,3,C36MT,35,train
624.945878982544,0,1,2,5,4,3,H-,1,3,5,0,1000,250.0,3,C36MT,36,train
704.8799991607666,0,1,2,5,4,3,H-,1,1,1,0,1000,250.0,1,C36MT,37,train
672.7230548858643,0,1,2,5,4,3,H-,1,0,0,0,1000,250.0,0,C36MT,38,train
640.7651901245117,0,1,2,5,4,3,H-,1,1,1,0,1000,250.0,1,C36MT,39,train
689.0060901641846,0,1,2,5,4,3,H-,1,5,3,0,1000,250.0,5,C36MT,40,train
640.5501365661621,0,1,2,5,4,3,H-,1,1,1,0,1000,250.0,1,C36MT,41,train
513.1189823150635,0,1,2,5,4,3,H-,1,2,2,0,1000,250.0,2,C36MT,42,train
768.9108848571777,0,1,2,5,4,3,H-,0,0,0,0,1000,250.0,3,C36MT,43,train
640.812873840332,0,1,2,5,4,3,H-,1,1,1,0,1000,250.0,1,C36MT,44,train
592.7801132202148,0,1,2,5,4,3,H-,1,3,5,0,1000,250.0,3,C36MT,45,train
704.9479484558105,0,1,2,5,4,3,H-,1,4,4,0,1000,250.0,4,C36MT,46,train
657.0038795471191,0,1,2,5,4,3,H-,1,1,1,0,1000,250.0,1,C36MT,47,train
577.1310329437256,0,1,2,5,4,3,H-,1,5,3,0,1000,250.0,5,C36MT,48,train
638.9060020446777,0,1,2,5,4,3,H-,1,4,4,0,1000,250.0,4,C36MT,49,train
576.8699645996094,0,1,2,5,4,3,H-,1,1,1,0,1000,250.0,1,C36MT,50,train
529.6919345855713,0,1,2,5,4,3,H-,1,4,4,0,1000,250.0,4,C36MT,51,train
592.5478935241699,0,1,2,5,4,3,H-,1,0,0,0,1000,250.0,0,C36MT,52,train
560.9300136566162,0,1,2,5,4,3,H-,1,5,3,0,1000,250.0,5,C36MT,53,train
704.8318386077881,0,1,2,5,4,3,H-,1,2,2,0,1000,250.0,2,C36MT,54,train
720.8139896392822,0,1,2,5,4,3,H-,1,0,0,0,1000,250.0,0,C36MT,55,train
576.848030090332,0,1,2,5,4,3,H-,1,5,3,0,1000,250.0,5,C36MT,56,train
608.975887298584,0,1,2,5,4,3,H-,1,4,4,0,1000,250.0,4,C36MT,57,train
590.7018184661865,0,1,2,5,4,3,H-,1,3,5,0,1000,250.0,3,C36MT,58,train
656.8748950958252,0,1,2,5,4,3,H-,1,0,0,0,1000,250.0,0,C36MT,59,train
608.8409423828125,0,1,2,5,4,3,H-,1,1,1,0,1000,250.0,1,C36MT,60,train
736.691951751709,0,1,2,5,4,3,H-,0,0,0,0,1000,250.0,3,C36MT,61,train
640.7010555267334,0,1,2,5,4,3,H-,1,2,2,0,1000,250.0,2,C36MT,62,train
640.859842300415,0,1,2,5,4,3,H-,1,4,4,0,1000,250.0,4,C36MT,63,train
704.2310237884521,0,1,2,5,4,3,H-,1,1,1,0,1000,250.0,1,C36MT,64,train
609.0469360351562,0,1,2,5,4,3,H-,1,4,4,0,1000,250.0,4,C36MT,65,train
544.6059703826904,0,1,2,5,4,3,H-,1,5,3,0,1000,250.0,5,C36MT,66,train
608.8399887084961,0,1,2,5,4,3,H-,1,1,1,0,1000,250.0,1,C36MT,67,train
558.6578845977783,0,1,2,5,4,3,H-,1,1,1,0,1000,250.0,1,C36MT,68,train
655.3299427032471,0,1,2,5,4,3,H-,1,1,1,0,1000,250.0,1,C36MT,69,train
576.7049789428711,0,1,2,5,4,3,H-,1,3,5,0,1000,250.0,3,C36MT,70,train
1168.666124343872,0,1,2,5,4,3,H-,1,4,4,0,1000,250.0,4,C36MT,71,train
592.8599834442139,0,1,2,5,4,3,H-,1,4,4,0,1000,250.0,4,C36MT,72,train
688.0958080291748,0,1,2,5,4,3,H-,1,0,0,0,1000,250.0,0,C36MT,73,train
848.8740921020508,0,1,2,5,4,3,H-,1,5,3,0,1000,250.0,5,C36MT,74,train
576.9259929656982,0,1,2,5,4,3,H-,1,1,1,0,1000,250.0,1,C36MT,75,train
737.0080947875977,0,1,2,5,4,3,H-,1,1,1,0,1000,250.0,1,C36MT,76,train
720.7279205322266,0,1,2,5,4,3,H-,1,0,0,0,1000,250.0,0,C36MT,77,train
496.65093421936035,0,1,2,5,4,3,H-,1,3,5,0,1000,250.0,3,C36MT,78,train
480.44705390930176,0,1,2,5,4,3,H-,1,5,3,0,1000,250.0,5,C36MT,79,train
560.6698989868164,0,1,2,5,4,3,H-,1,5,3,0,1000,250.0,5,C36MT,80,train
528.5100936889648,0,1,2,5,4,3,H-,1,1,1,0,1000,250.0,1,C36MT,81,train
768.6841487884521,0,1,2,5,4,3,H-,1,0,0,0,1000,250.0,0,C36MT,82,train
528.4349918365479,0,1,2,5,4,3,H-,1,5,3,0,1000,250.0,5,C36MT,83,train
336.28010749816895,0,1,2,5,4,3,H-,1,5,3,0,1000,250.0,5,C36MT,84,train
576.76100730896,0,1,2,5,4,3,H-,1,4,4,0,1000,250.0,4,C36MT,85,train
817.0998096466064,0,1,2,5,4,3,H-,1,2,2,0,1000,250.0,2,C36MT,86,train
528.7299156188965,0,1,2,5,4,3,H-,1,4,4,0,1000,250.0,4,C36MT,87,train
672.8198528289795,0,1,2,5,4,3,H-,1,3,5,0,1000,250.0,3,C36MT,88,train
640.451192855835,0,1,2,5,4,3,H-,1,5,3,0,1000,250.0,5,C36MT,89,train
590.688943862915,0,1,2,5,4,3,H-,1,1,1,0,1000,250.0,1,C36MT,90,train
753.1251907348633,0,1,2,5,4,3,H-,1,2,2,0,1000,250.0,2,C36MT,91,train
529.0510654449463,0,1,2,5,4,3,H-,1,2,2,0,1000,250.0,2,C36MT,92,train
560.8079433441162,0,1,2,5,4,3,H-,1,2,2,0,1000,250.0,2,C36MT,93,train
768.9399719238281,0,1,2,5,4,3,H-,1,0,0,0,1000,250.0,0,C36MT,94,train
480.9858798980713,0,1,2,5,4,3,H-,0,0,0,0,1000,250.0,3,C36MT,95,train
527.4591445922852,0,1,2,5,4,3,H-,1,0,0,0,1000,250.0,0,C36MT,96,train
576.5700340270996,0,1,2,5,4,3,H-,1,2,2,0,1000,250.0,2,C36MT,97,train
561.03515625,0,1,2,5,4,3,H-,1,3,5,0,1000,250.0,3,C36MT,98,train
544.7249412536621,0,1,2,5,4,3,H-,1,1,1,0,1000,250.0,1,C36MT,99,train
512.563943862915,0,1,2,5,4,3,H-,1,1,1,0,1000,250.0,1,C36MT,100,train
592.9379463195801,0,1,2,5,4,3,H-,1,3,5,0,1000,250.0,3,C36MT,101,train
576.4560699462891,0,1,2,5,4,3,H-,1,2,2,0,1000,250.0,2,C36MT,102,train
768.7079906463623,0,1,2,5,4,3,H-,1,0,0,0,1000,250.0,0,C36MT,103,train
656.6829681396484,0,1,2,5,4,3,H-,1,2,2,0,1000,250.0,2,C36MT,104,train
656.5871238708496,0,1,2,5,4,3,H-,1,4,4,0,1000,250.0,4,C36MT,105,train
592.8981304168701,0,1,2,5,4,3,H-,1,2,2,0,1000,250.0,2,C36MT,106,train
736.9370460510254,0,1,2,5,4,3,H-,1,3,5,0,1000,250.0,3,C36MT,107,train
672.8429794311523,0,1,2,5,4,3,H-,1,4,4,0,1000,250.0,4,C36MT,108,train
544.5611476898193,0,1,2,5,4,3,H-,1,3,5,0,1000,250.0,3,C36MT,109,train
654.0660858154297,0,1,2,5,4,3,H-,1,0,0,0,1000,250.0,0,C36MT,110,train
1200.7269859313965,0,1,2,5,4,3,H-,1,1,1,0,1000,250.0,1,C36MT,111,train
512.8591060638428,0,1,2,5,4,3,H-,1,5,3,0,1000,250.0,5,C36MT,112,train
512.4640464782715,0,1,2,5,4,3,H-,1,5,3,0,1000,250.0,5,C36MT,113,train
656.8400859832764,0,1,2,5,4,3,H-,1,3,5,0,1000,250.0,3,C36MT,114,train
592.8950309753418,0,1,2,5,4,3,H-,1,4,4,0,1000,250.0,4,C36MT,115,train
672.3759174346924,0,1,2,5,4,3,H-,1,3,5,0,1000,250.0,3,C36MT,116,train
560.5950355529785,0,1,2,5,4,3,H-,1,0,0,0,1000,250.0,0,C36MT,117,train
512.5889778137207,0,1,2,5,4,3,H-,1,5,3,0,1000,250.0,5,C36MT,118,train
704.962968826294,0,1,2,5,4,3,H-,1,3,5,0,1000,250.0,3,C36MT,119,train
510.6668472290039,0,1,2,5,4,3,H-,1,4,4,0,1000,250.0,4,C36MT,120,train
560.6749057769775,0,1,2,5,4,3,H-,1,1,1,0,1000,250.0,1,C36MT,121,train
496.6099262237549,0,1,2,5,4,3,H-,1,5,3,0,1000,250.0,5,C36MT,122,train
544.7158813476562,0,1,2,5,4,3,H-,1,4,4,0,1000,250.0,4,C36MT,123,train
608.680009841919,0,1,2,5,4,3,H-,1,0,0,0,1000,250.0,0,C36MT,124,train
496.906042098999,0,1,2,5,4,3,H-,1,0,0,0,1000,250.0,0,C36MT,125,train
544.8710918426514,0,1,2,5,4,3,H-,1,4,4,0,1000,250.0,4,C36MT,126,train
544.6851253509521,0,1,2,5,4,3,H-,1,3,5,0,1000,250.0,3,C36MT,127,train
480.5769920349121,0,1,2,5,4,3,H-,1,1,1,0,1000,250.0,1,C36MT,128,train
432.79099464416504,0,1,2,5,4,3,H-,1,2,2,0,1000,250.0,2,C36MT,129,train
512.9430294036865,0,1,2,5,4,3,H-,1,1,1,0,1000,250.0,1,C36MT,130,train
512.6900672912598,0,1,2,5,4,3,H-,1,5,3,0,1000,250.0,5,C36MT,131,train
512.4669075012207,0,1,2,5,4,3,H-,1,3,5,0,1000,250.0,3,C36MT,132,train
430.4490089416504,0,1,2,5,4,3,H-,1,0,0,0,1000,250.0,0,C36MT,133,train
542.7172183990479,0,1,2,5,4,3,H-,0,0,0,0,1000,250.0,3,C36MT,134,train
496.6118335723877,0,1,2,5,4,3,H-,1,5,3,0,1000,250.0,5,C36MT,135,train
544.4388389587402,0,1,2,5,4,3,H-,1,4,4,0,1000,250.0,4,C36MT,136,train
560.8699321746826,0,1,2,5,4,3,H-,1,4,4,0,1000,250.0,4,C36MT,137,train
608.8769435882568,0,1,2,5,4,3,H-,1,2,2,0,1000,250.0,2,C36MT,138,train
512.6388072967529,0,1,2,5,4,3,H-,1,2,2,0,1000,250.0,2,C36MT,139,train
576.5509605407715,0,1,2,5,4,3,H-,1,4,4,0,1000,250.0,4,C36MT,140,train
576.6510963439941,0,1,2,5,4,3,H-,1,0,0,0,1000,250.0,0,C36MT,141,train
400.3028869628906,0,1,2,5,4,3,H-,1,0,0,0,1000,250.0,0,C36MT,142,train
656.6741466522217,0,1,2,5,4,3,H-,1,1,1,0,1000,250.0,1,C36MT,143,train
656.6190719604492,0,1,2,5,4,3,H-,1,0,0,0,1000,250.0,0,C36MT,144,train
590.7261371612549,0,1,2,5,4,3,H-,1,4,4,0,1000,250.0,4,C36MT,145,train
542.7048206329346,0,1,2,5,4,3,H-,1,3,5,0,1000,250.0,3,C36MT,146,train
560.7268810272217,0,1,2,5,4,3,H-,1,2,2,0,1000,250.0,2,C36MT,147,train
672.874927520752,0,1,2,5,4,3,H-,1,3,5,0,1000,250.0,3,C36MT,148,train
560.9960556030273,0,1,2,5,4,3,H-,1,4,4,0,1000,250.0,4,C36MT,149,train
592.6170349121094,0,1,2,5,4,3,H-,1,3,5,0,1000,250.0,3,C36MT,150,train
544.780969619751,0,1,2,5,4,3,H-,1,4,4,0,1000,250.0,4,C36MT,151,train
720.9141254425049,0,1,2,5,4,3,H-,1,1,1,0,1000,250.0,1,C36MT,152,train
624.8860359191895,0,1,2,5,4,3,H-,1,0,0,0,1000,250.0,0,C36MT,153,train
478.6200523376465,0,1,2,5,4,3,H-,1,0,0,0,1000,250.0,0,C36MT,154,train
448.90785217285156,0,1,2,5,4,3,H-,1,0,0,0,1000,250.0,0,C36MT,155,train
416.99790954589844,0,1,2,5,4,3,H-,1,3,5,0,1000,250.0,3,C36MT,156,train
496.85001373291016,0,1,2,5,4,3,H-,1,1,1,0,1000,250.0,1,C36MT,157,train
417.0849323272705,0,1,2,5,4,3,H-,0,3,5,0,1000,250.0,1,C36MT,158,train
592.9551124572754,0,1,2,5,4,3,H-,1,4,4,0,1000,250.0,4,C36MT,159,train
464.9169445037842,0,1,2,5,4,3,H-,1,3,5,0,1000,250.0,3,C36MT,160,train
576.793909072876,0,1,2,5,4,3,H-,1,1,1,0,1000,250.0,1,C36MT,161,train
480.88717460632324,0,1,2,5,4,3,H-,1,4,4,0,1000,250.0,4,C36MT,162,train
672.7690696716309,0,1,2,5,4,3,H-,1,2,2,0,1000,250.0,2,C36MT,163,train
656.8849086761475,0,1,2,5,4,3,H-,1,0,0,0,1000,250.0,0,C36MT,164,train
576.8370628356934,0,1,2,5,4,3,H-,1,4,4,0,1000,250.0,4,C36MT,165,train
528.8999080657959,0,1,2,5,4,3,H-,1,5,3,0,1000,250.0,5,C36MT,166,train
544.9020862579346,0,1,2,5,4,3,H-,1,3,5,0,1000,250.0,3,C36MT,167,train
561.0408782958984,0,1,2,5,4,3,H-,1,5,3,0,1000,250.0,5,C36MT,168,train
561.0098838806152,0,1,2,5,4,3,H-,1,1,1,0,1000,250.0,1,C36MT,169,train
576.5810012817383,0,1,2,5,4,3,H-,1,4,4,0,1000,250.0,4,C36MT,170,train
512.8350257873535,0,1,2,5,4,3,H-,1,1,1,0,1000,250.0,1,C36MT,171,train
528.8240909576416,0,1,2,5,4,3,H-,1,1,1,0,1000,250.0,1,C36MT,172,train
543.269157409668,0,1,2,5,4,3,H-,1,0,0,0,1000,250.0,0,C36MT,173,train
849.1730690002441,0,1,2,5,4,3,H-,1,3,5,0,1000,250.0,3,C36MT,174,train
529.0799140930176,0,1,2,5,4,3,H-,1,0,0,0,1000,250.0,0,C36MT,175,train
448.69089126586914,0,1,2,5,4,3,H-,1,3,5,0,1000,250.0,3,C36MT,176,train
577.0690441131592,0,1,2,5,4,3,H-,1,1,1,0,1000,250.0,1,C36MT,177,train
654.7667980194092,0,1,2,5,4,3,H-,1,0,0,0,1000,250.0,0,C36MT,178,train
593.040943145752,0,1,2,5,4,3,H-,1,0,0,0,1000,250.0,0,C36MT,179,train
608.7560653686523,0,1,2,5,4,3,H-,1,4,4,0,1000,250.0,4,C36MT,180,train
480.87286949157715,0,1,2,5,4,3,H-,1,4,4,0,1000,250.0,4,C36MT,181,train
561.0578060150146,0,1,2,5,4,3,H-,1,3,5,0,1000,250.0,3,C36MT,182,train
526.8449783325195,0,1,2,5,4,3,H-,1,5,3,0,1000,250.0,5,C36MT,183,train
608.7000370025635,0,1,2,5,4,3,H-,1,0,0,0,1000,250.0,0,C36MT,184,train
497.0860481262207,0,1,2,5,4,3,H-,1,0,0,0,1000,250.0,0,C36MT,185,train
688.9150142669678,0,1,2,5,4,3,H-,1,1,1,0,1000,250.0,1,C36MT,186,train
513.0388736724854,0,1,2,5,4,3,H-,1,5,3,0,1000,250.0,5,C36MT,187,train
593.0571556091309,0,1,2,5,4,3,H-,1,3,5,0,1000,250.0,3,C36MT,188,train
481.01210594177246,0,1,2,5,4,3,H-,1,5,3,0,1000,250.0,5,C36MT,189,train
512.8319263458252,0,1,2,5,4,3,H-,0,2,2,0,1000,250.0,1,C36MT,190,train
721.0209369659424,0,1,2,5,4,3,H-,1,0,0,0,1000,250.0,0,C36MT,191,train
672.8761196136475,0,1,2,5,4,3,H-,1,2,2,0,1000,250.0,2,C36MT,192,train
561.0201358795166,0,1,2,5,4,3,H-,1,1,1,0,1000,250.0,1,C36MT,193,train
528.7008285522461,0,1,2,5,4,3,H-,1,2,2,0,1000,250.0,2,C36MT,194,train
529.2510986328125,0,1,2,5,4,3,H-,1,3,5,0,1000,250.0,3,C36MT,195,train
529.1459560394287,0,1,2,5,4,3,H-,1,1,1,0,1000,250.0,1,C36MT,196,train
592.9858684539795,0,1,2,5,4,3,H-,1,4,4,0,1000,250.0,4,C36MT,197,train
592.5629138946533,0,1,2,5,4,3,H-,1,3,5,0,1000,250.0,3,C36MT,198,train
528.9890766143799,0,1,2,5,4,3,H-,1,0,0,0,1000,250.0,0,C36MT,199,train
576.9820213317871,0,1,2,5,4,3,H-,1,4,4,0,1000,250.0,4,C36MT,200,train
496.9339370727539,0,1,2,5,4,3,H-,1,5,3,0,1000,250.0,5,C36MT,201,train
560.8601570129395,0,1,2,5,4,3,H-,1,4,4,0,1000,250.0,4,C36MT,202,train
497.1270561218262,0,1,2,5,4,3,H-,1,4,4,0,1000,250.0,4,C36MT,203,train
512.9199028015137,0,1,2,5,4,3,H-,1,5,3,0,1000,250.0,5,C36MT,204,train
592.5748348236084,0,1,2,5,4,3,H-,1,0,0,0,1000,250.0,0,C36MT,205,train
528.4900665283203,0,1,2,5,4,3,H-,1,4,4,0,1000,250.0,4,C36MT,206,train
574.6181011199951,0,1,2,5,4,3,H-,1,0,0,0,1000,250.0,0,C36MT,207,train
560.5850219726562,0,1,2,5,4,3,H-,1,1,1,0,1000,250.0,1,C36MT,208,train
1120.927095413208,0,1,2,5,4,3,H-,1,3,5,0,1000,250.0,3,C36MT,209,train
545.0320243835449,0,1,2,5,4,3,H-,1,4,4,0,1000,250.0,4,C36MT,210,train
512.7549171447754,0,1,2,5,4,3,H-,1,1,1,0,1000,250.0,1,C36MT,211,train
512.5391483306885,0,1,2,5,4,3,H-,1,1,1,0,1000,250.0,1,C36MT,212,train
432.69896507263184,0,1,2,5,4,3,H-,1,1,1,0,1000,250.0,1,C36MT,213,train
576.8380165100098,0,1,2,5,4,3,H-,1,4,4,0,1000,250.0,4,C36MT,214,train
497.081995010376,0,1,2,5,4,3,H-,1,5,3,0,1000,250.0,5,C36MT,215,train
544.3480014801025,0,1,2,5,4,3,H-,1,0,0,0,1000,250.0,0,C36MT,216,train
480.8781147003174,0,1,2,5,4,3,H-,1,4,4,0,1000,250.0,4,C36MT,217,train
496.58799171447754,0,1,2,5,4,3,H-,1,5,3,0,1000,250.0,5,C36MT,218,train
433.0439567565918,0,1,2,5,4,3,H-,1,5,3,0,1000,250.0,5,C36MT,219,train
560.6091022491455,0,1,2,5,4,3,H-,1,3,5,0,1000,250.0,3,C36MT,220,train
512.9799842834473,0,1,2,5,4,3,H-,1,3,5,0,1000,250.0,3,C36MT,221,train
561.0249042510986,0,1,2,5,4,3,H-,1,1,1,0,1000,250.0,1,C36MT,222,train
688.4250640869141,0,1,2,5,4,3,H-,1,0,0,0,1000,250.0,0,C36MT,223,train
558.5639476776123,0,1,2,5,4,3,H-,1,4,4,0,1000,250.0,4,C36MT,224,train
464.9930000305176,0,1,2,5,4,3,H-,1,5,3,0,1000,250.0,5,C36MT,225,train
512.4340057373047,0,1,2,5,4,3,H-,1,1,1,0,1000,250.0,1,C36MT,226,train
464.8890495300293,0,1,2,5,4,3,H-,1,1,1,0,1000,250.0,1,C36MT,227,train
496.95611000061035,0,1,2,5,4,3,H-,1,5,3,0,1000,250.0,5,C36MT,228,train
481.14991188049316,0,1,2,5,4,3,H-,1,4,4,0,1000,250.0,4,C36MT,229,train
433.0308437347412,0,1,2,5,4,3,H-,1,4,4,0,1000,250.0,4,C36MT,230,train
384.56106185913086,0,1,2,5,4,3,H-,1,4,4,0,1000,250.0,4,C36MT,231,train
560.9898567199707,0,1,2,5,4,3,H-,0,2,2,0,1000,250.0,1,C36MT,232,train
480.4189205169678,0,1,2,5,4,3,H-,1,5,3,0,1000,250.0,5,C36MT,233,train
448.67801666259766,0,1,2,5,4,3,H-,1,5,3,0,1000,250.0,5,C36MT,234,train
544.4018840789795,0,1,2,5,4,3,H-,1,0,0,0,1000,250.0,0,C36MT,235,train
512.7770900726318,0,1,2,5,4,3,H-,1,3,5,0,1000,250.0,3,C36MT,236,train
512.5608444213867,0,1,2,5,4,3,H-,1,1,1,0,1000,250.0,1,C36MT,237,train
480.8220863342285,0,1,2,5,4,3,H-,1,3,5,0,1000,250.0,3,C36MT,238,train
528.7749767303467,0,1,2,5,4,3,H-,1,1,1,0,1000,250.0,1,C36MT,239,train
561.0189437866211,0,1,2,5,4,3,H-,1,3,5,0,1000,250.0,3,C36MT,240,train
592.6980972290039,0,1,2,5,4,3,H-,1,2,2,0,1000,250.0,2,C36MT,241,train
494.71282958984375,0,1,2,5,4,3,H-,1,5,3,0,1000,250.0,5,C36MT,242,train
609.0130805969238,0,1,2,5,4,3,H-,1,1,1,0,1000,250.0,1,C36MT,243,train
480.5479049682617,0,1,2,5,4,3,H-,1,1,1,0,1000,250.0,1,C36MT,244,train
577.0969390869141,0,1,2,5,4,3,H-,1,3,5,0,1000,250.0,3,C36MT,245,train
480.6630611419678,0,1,2,5,4,3,H-,1,5,3,0,1000,250.0,5,C36MT,246,train
608.9551448822021,0,1,2,5,4,3,H-,1,0,0,0,1000,250.0,0,C36MT,247,train
672.950029373169,0,1,2,5,4,3,H-,1,2,2,0,1000,250.0,2,C36MT,248,train
529.0329456329346,0,1,2,5,4,3,H-,1,5,3,0,1000,250.0,5,C36MT,249,train
1760.739803314209,5,0,2,4,3,1,H-,1,0,1,0,1000,250.0,0,C36MT,250,test
464.92695808410645,5,0,2,4,3,1,H-,1,0,1,0,1000,250.0,0,C36MT,251,test
960.9940052032471,5,0,2,4,3,1,H-,1,5,0,0,1000,250.0,5,C36MT,252,test
592.9028987884521,5,0,2,4,3,1,H-,1,0,1,0,1000,250.0,0,C36MT,253,test
560.4760646820068,5,0,2,4,3,1,H-,1,5,0,0,1000,250.0,5,C36MT,254,test
864.9430274963379,5,0,2,4,3,1,H-,1,2,2,0,1000,250.0,2,C36MT,255,test
928.508996963501,5,0,2,4,3,1,H-,1,3,4,0,1000,250.0,3,C36MT,256,test
814.3360614776611,5,0,2,4,3,1,H-,1,4,3,0,1000,250.0,4,C36MT,257,test
910.5739593505859,5,0,2,4,3,1,H-,1,2,2,0,1000,250.0,2,C36MT,258,test
561.1000061035156,5,0,2,4,3,1,H-,1,0,1,0,1000,250.0,0,C36MT,259,test
784.7259044647217,5,0,2,4,3,1,H-,1,4,3,0,1000,250.0,4,C36MT,260,test
656.8899154663086,5,0,2,4,3,1,H-,1,4,3,0,1000,250.0,4,C36MT,261,test
670.7980632781982,5,0,2,4,3,1,H-,1,1,5,0,1000,250.0,1,C36MT,262,test
624.9899864196777,5,0,2,4,3,1,H-,1,4,3,0,1000,250.0,4,C36MT,263,test
736.8531227111816,5,0,2,4,3,1,H-,1,1,5,0,1000,250.0,1,C36MT,264,test
528.9239883422852,5,0,2,4,3,1,H-,1,0,1,0,1000,250.0,0,C36MT,265,test
625.0221729278564,5,0,2,4,3,1,H-,1,4,3,0,1000,250.0,4,C36MT,266,test
737.0460033416748,5,0,2,4,3,1,H-,1,3,4,0,1000,250.0,3,C36MT,267,test
609.0471744537354,5,0,2,4,3,1,H-,1,0,1,0,1000,250.0,0,C36MT,268,test
513.0109786987305,5,0,2,4,3,1,H-,1,0,1,0,1000,250.0,0,C36MT,269,test
1392.8720951080322,5,0,2,4,3,1,H-,1,5,0,0,1000,250.0,5,C36MT,270,test
848.7269878387451,5,0,2,4,3,1,H-,1,2,2,0,1000,250.0,2,C36MT,271,test
768.9371109008789,5,0,2,4,3,1,H-,1,4,3,0,1000,250.0,4,C36MT,272,test
864.9511337280273,5,0,2,4,3,1,H-,1,1,5,0,1000,250.0,1,C36MT,273,test
529.0460586547852,5,0,2,4,3,1,H-,1,4,3,0,1000,250.0,4,C36MT,274,test
752.8748512268066,5,0,2,4,3,1,H-,1,2,2,0,1000,250.0,2,C36MT,275,test
1248.9738464355469,5,0,2,4,3,1,H-,1,5,0,0,1000,250.0,5,C36MT,276,test
526.604175567627,5,0,2,4,3,1,H-,1,5,0,0,1000,250.0,5,C36MT,277,test
1024.8031616210938,5,0,2,4,3,1,H-,1,3,4,0,1000,250.0,3,C36MT,278,test
337.1591567993164,5,0,2,4,3,1,H-,1,3,4,0,1000,250.0,3,C36MT,279,test
592.3478603363037,5,0,2,4,3,1,H-,1,0,1,0,1000,250.0,0,C36MT,280,test
641.0379409790039,5,0,2,4,3,1,H-,1,1,5,0,1000,250.0,1,C36MT,281,test
576.9720077514648,5,0,2,4,3,1,H-,1,0,1,0,1000,250.0,0,C36MT,282,test
929.1820526123047,5,0,2,4,3,1,H-,1,5,0,0,1000,250.0,5,C36MT,283,test
624.9029636383057,5,0,2,4,3,1,H-,1,2,2,0,1000,250.0,2,C36MT,284,test
785.0282192230225,5,0,2,4,3,1,H-,1,1,5,0,1000,250.0,1,C36MT,285,test
816.7250156402588,5,0,2,4,3,1,H-,1,4,3,0,1000,250.0,4,C36MT,286,test
496.6769218444824,5,0,2,4,3,1,H-,1,3,4,0,1000,250.0,3,C36MT,287,test
464.9980068206787,5,0,2,4,3,1,H-,1,3,4,0,1000,250.0,3,C36MT,288,test
560.654878616333,5,0,2,4,3,1,H-,1,2,2,0,1000,250.0,2,C36MT,289,test
449.0339756011963,5,0,2,4,3,1,H-,1,0,1,0,1000,250.0,0,C36MT,290,test
497.1649646759033,5,0,2,4,3,1,H-,1,3,4,0,1000,250.0,3,C36MT,291,test
624.8271465301514,5,0,2,4,3,1,H-,1,2,2,0,1000,250.0,2,C36MT,292,test
688.7152194976807,5,0,2,4,3,1,H-,1,5,0,0,1000,250.0,5,C36MT,293,test
496.7930316925049,5,0,2,4,3,1,H-,1,0,1,0,1000,250.0,0,C36MT,294,test
512.5150680541992,5,0,2,4,3,1,H-,1,3,4,0,1000,250.0,3,C36MT,295,test
704.6668529510498,5,0,2,4,3,1,H-,1,1,5,0,1000,250.0,1,C36MT,296,test
720.9820747375488,5,0,2,4,3,1,H-,1,5,0,0,1000,250.0,5,C36MT,297,test
384.7239017486572,5,0,2,4,3,1,H-,1,1,5,0,1000,250.0,1,C36MT,298,test
576.8680572509766,5,0,2,4,3,1,H-,1,2,2,0,1000,250.0,2,C36MT,299,test
496.8760013580322,5,0,2,4,3,1,H-,0,4,3,0,1000,250.0,5,C36MT,300,test
400.82502365112305,5,0,2,4,3,1,H-,1,4,3,0,1000,250.0,4,C36MT,301,test
976.9461154937744,5,0,2,4,3,1,H-,1,5,0,0,1000,250.0,5,C36MT,302,test
336.7588520050049,5,0,2,4,3,1,H-,1,5,0,0,1000,250.0,5,C36MT,303,test
544.7430610656738,5,0,2,4,3,1,H-,1,0,1,0,1000,250.0,0,C36MT,304,test
528.8839340209961,5,0,2,4,3,1,H-,1,0,1,0,1000,250.0,0,C36MT,305,test
496.9198703765869,5,0,2,4,3,1,H-,1,1,5,0,1000,250.0,1,C36MT,306,test
736.9279861450195,5,0,2,4,3,1,H-,1,4,3,0,1000,250.0,4,C36MT,307,test
384.96994972229004,5,0,2,4,3,1,H-,1,4,3,0,1000,250.0,4,C36MT,308,test
528.7089347839355,5,0,2,4,3,1,H-,1,1,5,0,1000,250.0,1,C36MT,309,test
512.9659175872803,5,0,2,4,3,1,H-,1,4,3,0,1000,250.0,4,C36MT,310,test
656.728982925415,5,0,2,4,3,1,H-,1,5,0,0,1000,250.0,5,C36MT,311,test
336.7300033569336,5,0,2,4,3,1,H-,1,5,0,0,1000,250.0,5,C36MT,312,test
544.5210933685303,5,0,2,4,3,1,H-,1,5,0,0,1000,250.0,5,C36MT,313,test
560.9729290008545,5,0,2,4,3,1,H-,1,2,2,0,1000,250.0,2,C36MT,314,test
366.81103706359863,5,0,2,4,3,1,H-,0,2,2,0,1000,250.0,0,C36MT,315,test
384.53197479248047,5,0,2,4,3,1,H-,1,2,2,0,1000,250.0,2,C36MT,316,test
609.03000831604,5,0,2,4,3,1,H-,1,3,4,0,1000,250.0,3,C36MT,317,test
657.0107936859131,5,0,2,4,3,1,H-,1,1,5,0,1000,250.0,1,C36MT,318,test
704.8959732055664,5,0,2,4,3,1,H-,1,5,0,0,1000,250.0,5,C36MT,319,test
624.7081756591797,5,0,2,4,3,1,H-,1,2,2,0,1000,250.0,2,C36MT,320,test
480.01694679260254,5,0,2,4,3,1,H-,1,0,1,0,1000,250.0,0,C36MT,321,test
401.1409282684326,5,0,2,4,3,1,H-,1,0,1,0,1000,250.0,0,C36MT,322,test
352.9651165008545,5,0,2,4,3,1,H-,1,0,1,0,1000,250.0,0,C36MT,323,test
686.4280700683594,5,0,2,4,3,1,H-,1,4,3,0,1000,250.0,4,C36MT,324,test
624.9580383300781,5,0,2,4,3,1,H-,1,5,0,0,1000,250.0,5,C36MT,325,test
527.0941257476807,5,0,2,4,3,1,H-,1,0,1,0,1000,250.0,0,C36MT,326,test
528.6641120910645,5,0,2,4,3,1,H-,1,4,3,0,1000,250.0,4,C36MT,327,test
688.7772083282471,5,0,2,4,3,1,H-,1,1,5,0,1000,250.0,1,C36MT,328,test
513.0460262298584,5,0,2,4,3,1,H-,1,3,4,0,1000,250.0,3,C36MT,329,test
816.3900375366211,5,0,2,4,3,1,H-,1,5,0,0,1000,250.0,5,C36MT,330,test
592.822790145874,5,0,2,4,3,1,H-,1,2,2,0,1000,250.0,2,C36MT,331,test
480.9901714324951,5,0,2,4,3,1,H-,1,2,2,0,1000,250.0,2,C36MT,332,test
576.5769481658936,5,0,2,4,3,1,H-,1,4,3,0,1000,250.0,4,C36MT,333,test
704.531192779541,5,0,2,4,3,1,H-,1,1,5,0,1000,250.0,1,C36MT,334,test
640.6781673431396,5,0,2,4,3,1,H-,1,5,0,0,1000,250.0,5,C36MT,335,test
416.9580936431885,5,0,2,4,3,1,H-,1,4,3,0,1000,250.0,4,C36MT,336,test
384.7930431365967,5,0,2,4,3,1,H-,1,5,0,0,1000,250.0,5,C36MT,337,test
592.6780700683594,5,0,2,4,3,1,H-,1,3,4,0,1000,250.0,3,C36MT,338,test
385.0870132446289,5,0,2,4,3,1,H-,0,1,5,0,1000,250.0,5,C36MT,339,test
688.9758110046387,5,0,2,4,3,1,H-,1,4,3,0,1000,250.0,4,C36MT,340,test
672.551155090332,5,0,2,4,3,1,H-,1,1,5,0,1000,250.0,1,C36MT,341,test
544.7189807891846,5,0,2,4,3,1,H-,1,0,1,0,1000,250.0,0,C36MT,342,test
448.8060474395752,5,0,2,4,3,1,H-,1,0,1,0,1000,250.0,0,C36MT,343,test
544.8920726776123,5,0,2,4,3,1,H-,1,2,2,0,1000,250.0,2,C36MT,344,test
689.1310214996338,5,0,2,4,3,1,H-,1,1,5,0,1000,250.0,1,C36MT,345,test
350.8288860321045,5,0,2,4,3,1,H-,1,1,5,0,1000,250.0,1,C36MT,346,test
528.5499095916748,5,0,2,4,3,1,H-,1,0,1,0,1000,250.0,0,C36MT,347,test
512.9489898681641,5,0,2,4,3,1,H-,1,4,3,0,1000,250.0,4,C36MT,348,test
528.925895690918,5,0,2,4,3,1,H-,1,5,0,0,1000,250.0,5,C36MT,349,test
480.9448719024658,5,0,2,4,3,1,H-,1,5,0,0,1000,250.0,5,C36MT,350,test
352.89907455444336,5,0,2,4,3,1,H-,1,5,0,0,1000,250.0,5,C36MT,351,test
464.92505073547363,5,0,2,4,3,1,H-,1,4,3,0,1000,250.0,4,C36MT,352,test
464.54501152038574,5,0,2,4,3,1,H-,1,0,1,0,1000,250.0,0,C36MT,353,test
560.9610080718994,5,0,2,4,3,1,H-,1,5,0,0,1000,250.0,5,C36MT,354,test
528.6087989807129,5,0,2,4,3,1,H-,1,4,3,0,1000,250.0,4,C36MT,355,test
609.1229915618896,5,0,2,4,3,1,H-,1,1,5,0,1000,250.0,1,C36MT,356,test
496.8740940093994,5,0,2,4,3,1,H-,1,1,5,0,1000,250.0,1,C36MT,357,test
512.732982635498,5,0,2,4,3,1,H-,1,4,3,0,1000,250.0,4,C36MT,358,test
608.9601516723633,5,0,2,4,3,1,H-,1,4,3,0,1000,250.0,4,C36MT,359,test
560.8570575714111,5,0,2,4,3,1,H-,1,2,2,0,1000,250.0,2,C36MT,360,test
465.24500846862793,5,0,2,4,3,1,H-,1,0,1,0,1000,250.0,0,C36MT,361,test
576.7250061035156,5,0,2,4,3,1,H-,1,1,5,0,1000,250.0,1,C36MT,362,test
576.7710208892822,5,0,2,4,3,1,H-,1,5,0,0,1000,250.0,5,C36MT,363,test
480.85999488830566,5,0,2,4,3,1,H-,1,0,1,0,1000,250.0,0,C36MT,364,test
544.562816619873,5,0,2,4,3,1,H-,1,3,4,0,1000,250.0,3,C36MT,365,test
433.0160617828369,5,0,2,4,3,1,H-,1,4,3,0,1000,250.0,4,C36MT,366,test
496.84691429138184,5,0,2,4,3,1,H-,1,0,1,0,1000,250.0,0,C36MT,367,test
624.5260238647461,5,0,2,4,3,1,H-,1,3,4,0,1000,250.0,3,C36MT,368,test
592.1061038970947,5,0,2,4,3,1,H-,1,1,5,0,1000,250.0,1,C36MT,369,test
544.795036315918,5,0,2,4,3,1,H-,1,4,3,0,1000,250.0,4,C36MT,370,test
481.1367988586426,5,0,2,4,3,1,H-,1,0,1,0,1000,250.0,0,C36MT,371,test
544.7559356689453,5,0,2,4,3,1,H-,1,3,4,0,1000,250.0,3,C36MT,372,test
560.3818893432617,5,0,2,4,3,1,H-,1,4,3,0,1000,250.0,4,C36MT,373,test
592.9999351501465,5,0,2,4,3,1,H-,1,5,0,0,1000,250.0,5,C36MT,374,test
560.7330799102783,5,0,2,4,3,1,H-,1,4,3,0,1000,250.0,4,C36MT,375,test
528.7890434265137,5,0,2,4,3,1,H-,1,2,2,0,1000,250.0,2,C36MT,376,test
574.6250152587891,5,0,2,4,3,1,H-,1,3,4,0,1000,250.0,3,C36MT,377,test
496.80399894714355,5,0,2,4,3,1,H-,1,4,3,0,1000,250.0,4,C36MT,378,test
496.7639446258545,5,0,2,4,3,1,H-,1,0,1,0,1000,250.0,0,C36MT,379,test
576.7498016357422,5,0,2,4,3,1,H-,1,5,0,0,1000,250.0,5,C36MT,380,test
544.6808338165283,5,0,2,4,3,1,H-,1,3,4,0,1000,250.0,3,C36MT,381,test
574.7148990631104,5,0,2,4,3,1,H-,1,4,3,0,1000,250.0,4,C36MT,382,test
576.6639709472656,5,0,2,4,3,1,H-,1,2,2,0,1000,250.0,2,C36MT,383,test
528.8770198822021,5,0,2,4,3,1,H-,1,5,0,0,1000,250.0,5,C36MT,384,test
544.6140766143799,5,0,2,4,3,1,H-,1,2,2,0,1000,250.0,2,C36MT,385,test
593.0709838867188,5,0,2,4,3,1,H-,1,4,3,0,1000,250.0,4,C36MT,386,test
352.9689311981201,5,0,2,4,3,1,H-,1,1,5,0,1000,250.0,1,C36MT,387,test
383.41689109802246,5,0,2,4,3,1,H-,1,1,5,0,1000,250.0,1,C36MT,388,test
480.99613189697266,5,0,2,4,3,1,H-,1,2,2,0,1000,250.0,2,C36MT,389,test
400.8920192718506,5,0,2,4,3,1,H-,1,2,2,0,1000,250.0,2,C36MT,390,test
640.8441066741943,5,0,2,4,3,1,H-,1,5,0,0,1000,250.0,5,C36MT,391,test
496.7491626739502,5,0,2,4,3,1,H-,1,3,4,0,1000,250.0,3,C36MT,392,test
448.69017601013184,5,0,2,4,3,1,H-,1,2,2,0,1000,250.0,2,C36MT,393,test
1040.9631729125977,5,0,2,4,3,1,H-,1,4,3,0,1000,250.0,4,C36MT,394,test
752.8259754180908,5,0,2,4,3,1,H-,1,0,1,0,1000,250.0,0,C36MT,395,test
512.8328800201416,5,0,2,4,3,1,H-,1,2,2,0,1000,250.0,2,C36MT,396,test
496.7610836029053,5,0,2,4,3,1,H-,1,3,4,0,1000,250.0,3,C36MT,397,test
432.87110328674316,5,0,2,4,3,1,H-,0,2,2,0,1000,250.0,3,C36MT,398,test
576.991081237793,5,0,2,4,3,1,H-,1,1,5,0,1000,250.0,1,C36MT,399,test
560.8398914337158,5,0,2,4,3,1,H-,1,0,1,0,1000,250.0,0,C36MT,400,test
401.02696418762207,5,0,2,4,3,1,H-,1,0,1,0,1000,250.0,0,C36MT,401,test
513.024091720581,5,0,2,4,3,1,H-,1,3,4,0,1000,250.0,3,C36MT,402,test
944.890022277832,5,0,2,4,3,1,H-,1,5,0,0,1000,250.0,5,C36MT,403,test
529.0460586547852,5,0,2,4,3,1,H-,1,4,3,0,1000,250.0,4,C36MT,404,test
464.6790027618408,5,0,2,4,3,1,H-,1,4,3,0,1000,250.0,4,C36MT,405,test
688.9569759368896,5,0,2,4,3,1,H-,1,1,5,0,1000,250.0,1,C36MT,406,test
560.85205078125,5,0,2,4,3,1,H-,1,3,4,0,1000,250.0,3,C36MT,407,test
591.6588306427002,5,0,2,4,3,1,H-,1,2,2,0,1000,250.0,2,C36MT,408,test
560.9149932861328,5,0,2,4,3,1,H-,1,4,3,0,1000,250.0,4,C36MT,409,test
496.67978286743164,5,0,2,4,3,1,H-,1,0,1,0,1000,250.0,0,C36MT,410,test
623.4500408172607,5,0,2,4,3,1,H-,1,1,5,0,1000,250.0,1,C36MT,411,test
560.870885848999,5,0,2,4,3,1,H-,1,0,1,0,1000,250.0,0,C36MT,412,test
624.7198581695557,5,0,2,4,3,1,H-,1,5,0,0,1000,250.0,5,C36MT,413,test
448.3480453491211,5,0,2,4,3,1,H-,1,0,1,0,1000,250.0,0,C36MT,414,test
448.530912399292,5,0,2,4,3,1,H-,1,0,1,0,1000,250.0,0,C36MT,415,test
656.6269397735596,5,0,2,4,3,1,H-,1,4,3,0,1000,250.0,4,C36MT,416,test
544.69895362854,5,0,2,4,3,1,H-,1,2,2,0,1000,250.0,2,C36MT,417,test
465.0118350982666,5,0,2,4,3,1,H-,1,4,3,0,1000,250.0,4,C36MT,418,test
545.076847076416,5,0,2,4,3,1,H-,1,3,4,0,1000,250.0,3,C36MT,419,test
478.56712341308594,5,0,2,4,3,1,H-,1,3,4,0,1000,250.0,3,C36MT,420,test
688.9839172363281,5,0,2,4,3,1,H-,1,1,5,0,1000,250.0,1,C36MT,421,test
512.7530097961426,5,0,2,4,3,1,H-,1,0,1,0,1000,250.0,0,C36MT,422,test
496.7951774597168,5,0,2,4,3,1,H-,1,2,2,0,1000,250.0,2,C36MT,423,test
897.0000743865967,5,0,2,4,3,1,H-,1,1,5,0,1000,250.0,1,C36MT,424,test
480.9141159057617,5,0,2,4,3,1,H-,1,0,1,0,1000,250.0,0,C36MT,425,test
496.52886390686035,5,0,2,4,3,1,H-,1,0,1,0,1000,250.0,0,C36MT,426,test
528.8140773773193,5,0,2,4,3,1,H-,1,3,4,0,1000,250.0,3,C36MT,427,test
736.9489669799805,5,0,2,4,3,1,H-,1,5,0,0,1000,250.0,5,C36MT,428,test
641.0768032073975,5,0,2,4,3,1,H-,1,3,4,0,1000,250.0,3,C36MT,429,test
1008.5620880126953,5,0,2,4,3,1,H-,1,1,5,0,1000,250.0,1,C36MT,430,test
528.8920402526855,5,0,2,4,3,1,H-,1,2,2,0,1000,250.0,2,C36MT,431,test
672.7650165557861,5,0,2,4,3,1,H-,1,5,0,0,1000,250.0,5,C36MT,432,test
432.61003494262695,5,0,2,4,3,1,H-,1,5,0,0,1000,250.0,5,C36MT,433,test
352.98991203308105,5,0,2,4,3,1,H-,1,5,0,0,1000,250.0,5,C36MT,434,test
528.8121700286865,5,0,2,4,3,1,H-,1,4,3,0,1000,250.0,4,C36MT,435,test
480.8070659637451,5,0,2,4,3,1,H-,1,5,0,0,1000,250.0,5,C36MT,436,test
480.7019233703613,5,0,2,4,3,1,H-,1,0,1,0,1000,250.0,0,C36MT,437,test
496.68192863464355,5,0,2,4,3,1,H-,1,4,3,0,1000,250.0,4,C36MT,438,test
448.8110542297363,5,0,2,4,3,1,H-,1,0,1,0,1000,250.0,0,C36MT,439,test
528.5639762878418,5,0,2,4,3,1,H-,1,3,4,0,1000,250.0,3,C36MT,440,test
337.0058536529541,5,0,2,4,3,1,H-,1,2,2,0,1000,250.0,2,C36MT,441,test
576.746940612793,5,0,2,4,3,1,H-,1,0,1,0,1000,250.0,0,C36MT,442,test
432.7588081359863,5,0,2,4,3,1,H-,1,0,1,0,1000,250.0,0,C36MT,443,test
494.6479797363281,5,0,2,4,3,1,H-,0,3,4,0,1000,250.0,4,C36MT,444,test
464.65587615966797,5,0,2,4,3,1,H-,1,3,4,0,1000,250.0,3,C36MT,445,test
641.1349773406982,5,0,2,4,3,1,H-,1,1,5,0,1000,250.0,1,C36MT,446,test
496.13189697265625,5,0,2,4,3,1,H-,1,2,2,0,1000,250.0,2,C36MT,447,test
480.6478023529053,5,0,2,4,3,1,H-,1,0,1,0,1000,250.0,0,C36MT,448,test
528.8839340209961,5,0,2,4,3,1,H-,1,3,4,0,1000,250.0,3,C36MT,449,test
512.6149654388428,5,0,2,4,3,1,H-,1,0,1,0,1000,250.0,0,C36MT,450,test
465.1510715484619,5,0,2,4,3,1,H-,1,2,2,0,1000,250.0,2,C36MT,451,test
736.8259429931641,5,0,2,4,3,1,H-,1,5,0,0,1000,250.0,5,C36MT,452,test
464.9960994720459,5,0,2,4,3,1,H-,1,0,1,0,1000,250.0,0,C36MT,453,test
590.6572341918945,5,0,2,4,3,1,H-,1,5,0,0,1000,250.0,5,C36MT,454,test
480.33595085144043,5,0,2,4,3,1,H-,1,2,2,0,1000,250.0,2,C36MT,455,test
544.1758632659912,5,0,2,4,3,1,H-,1,4,3,0,1000,250.0,4,C36MT,456,test
560.579776763916,5,0,2,4,3,1,H-,1,5,0,0,1000,250.0,5,C36MT,457,test
656.6929817199707,5,0,2,4,3,1,H-,1,1,5,0,1000,250.0,1,C36MT,458,test
576.956033706665,5,0,2,4,3,1,H-,1,4,3,0,1000,250.0,4,C36MT,459,test
576.9908428192139,5,0,2,4,3,1,H-,1,3,4,0,1000,250.0,3,C36MT,460,test
432.636022567749,5,0,2,4,3,1,H-,1,3,4,0,1000,250.0,3,C36MT,461,test
544.6279048919678,5,0,2,4,3,1,H-,1,2,2,0,1000,250.0,2,C36MT,462,test
512.5288963317871,5,0,2,4,3,1,H-,1,3,4,0,1000,250.0,3,C36MT,463,test
400.90012550354004,5,0,2,4,3,1,H-,1,3,4,0,1000,250.0,3,C36MT,464,test
1072.7009773254395,5,0,2,4,3,1,H-,1,5,0,0,1000,250.0,5,C36MT,465,test
525.9850025177002,5,0,2,4,3,1,H-,1,2,2,0,1000,250.0,2,C36MT,466,test
481.0190200805664,5,0,2,4,3,1,H-,1,2,2,0,1000,250.0,2,C36MT,467,test
686.4418983459473,5,0,2,4,3,1,H-,1,5,0,0,1000,250.0,5,C36MT,468,test
640.7470703125,5,0,2,4,3,1,H-,1,2,2,0,1000,250.0,2,C36MT,469,test
385.12206077575684,5,0,2,4,3,1,H-,1,2,2,0,1000,250.0,2,C36MT,470,test
560.6029033660889,5,0,2,4,3,1,H-,1,4,3,0,1000,250.0,4,C36MT,471,test
496.84715270996094,5,0,2,4,3,1,H-,1,1,5,0,1000,250.0,1,C36MT,472,test
497.04718589782715,5,0,2,4,3,1,H-,1,3,4,0,1000,250.0,3,C36MT,473,test
481.032133102417,5,0,2,4,3,1,H-,1,2,2,0,1000,250.0,2,C36MT,474,test
480.96513748168945,5,0,2,4,3,1,H-,1,0,1,0,1000,250.0,0,C36MT,475,test
1312.952995300293,5,0,2,4,3,1,H-,1,1,5,0,1000,250.0,1,C36MT,476,test
416.77093505859375,5,0,2,4,3,1,H-,1,1,5,0,1000,250.0,1,C36MT,477,test
912.6839637756348,5,0,2,4,3,1,H-,1,4,3,0,1000,250.0,4,C36MT,478,test
640.4130458831787,5,0,2,4,3,1,H-,1,5,0,0,1000,250.0,5,C36MT,479,test
513.0929946899414,5,0,2,4,3,1,H-,1,2,2,0,1000,250.0,2,C36MT,480,test
462.40997314453125,5,0,2,4,3,1,H-,1,0,1,0,1000,250.0,0,C36MT,481,test
752.7849674224854,5,0,2,4,3,1,H-,1,5,0,0,1000,250.0,5,C36MT,482,test
464.4291400909424,5,0,2,4,3,1,H-,1,1,5,0,1000,250.0,1,C36MT,483,test
288.4249687194824,5,0,2,4,3,1,H-,1,4,3,0,1000,250.0,4,C36MT,484,test
593.055009841919,5,0,2,4,3,1,H-,1,5,0,0,1000,250.0,5,C36MT,485,test
448.87304306030273,5,0,2,4,3,1,H-,1,1,5,0,1000,250.0,1,C36MT,486,test
481.0330867767334,5,0,2,4,3,1,H-,1,3,4,0,1000,250.0,3,C36MT,487,test
432.4951171875,5,0,2,4,3,1,H-,1,3,4,0,1000,250.0,3,C36MT,488,test
480.755090713501,5,0,2,4,3,1,H-,1,0,1,0,1000,250.0,0,C36MT,489,test
497.1201419830322,5,0,2,4,3,1,H-,1,5,0,0,1000,250.0,5,C36MT,490,test
528.1791687011719,5,0,2,4,3,1,H-,0,1,5,0,1000,250.0,2,C36MT,491,test
352.97608375549316,5,0,2,4,3,1,H-,1,1,5,0,1000,250.0,1,C36MT,492,test
528.9130210876465,5,0,2,4,3,1,H-,1,4,3,0,1000,250.0,4,C36MT,493,test
417.0339107513428,5,0,2,4,3,1,H-,1,4,3,0,1000,250.0,4,C36MT,494,test
480.9000492095947,5,0,2,4,3,1,H-,1,3,4,0,1000,250.0,3,C36MT,495,test
576.646089553833,5,0,2,4,3,1,H-,1,5,0,0,1000,250.0,5,C36MT,496,test
416.68701171875,5,0,2,4,3,1,H-,1,5,0,0,1000,250.0,5,C36MT,497,test
512.7840042114258,5,0,2,4,3,1,H-,1,2,2,0,1000,250.0,2,C36MT,498,test
528.515100479126,5,0,2,4,3,1,H-,1,5,0,0,1000,250.0,5,C36MT,499,test
