RT,SRmap_0,SRmap_1,SRmap_2,SRmap_3,SRmap_4,SRmap_5,condition,correct,correct_response,curstim,ms-precue,ms-prestimblank,ntrials,response,subject,trial,type
6304.046869277954,3,4,2,0,5,1,H-,0,2,2,0,1000,250.0,1,C13RH,0,train
1584.5651626586914,3,4,2,0,5,1,H-,1,0,3,0,1000,250.0,0,C13RH,1,train
1648.6380100250244,3,4,2,0,5,1,H-,1,2,2,0,1000,250.0,2,C13RH,2,train
624.5830059051514,3,4,2,0,5,1,H-,1,2,2,0,1000,250.0,2,C13RH,3,train
897.2899913787842,3,4,2,0,5,1,H-,0,1,5,0,1000,250.0,0,C13RH,4,train
2128.5150051116943,3,4,2,0,5,1,H-,1,5,4,0,1000,250.0,5,C13RH,5,train
992.3751354217529,3,4,2,0,5,1,H-,1,4,1,0,1000,250.0,4,C13RH,6,train
897.2301483154297,3,4,2,0,5,1,H-,1,4,1,0,1000,250.0,4,C13RH,7,train
769.1810131072998,3,4,2,0,5,1,H-,1,4,1,0,1000,250.0,4,C13RH,8,train
1329.0889263153076,3,4,2,0,5,1,H-,1,3,0,0,1000,250.0,3,C13RH,9,train
1584.326982498169,3,4,2,0,5,1,H-,1,0,3,0,1000,250.0,0,C13RH,10,train
1073.0221271514893,3,4,2,0,5,1,H-,1,1,5,0,1000,250.0,1,C13RH,11,train
1039.7939682006836,3,4,2,0,5,1,H-,1,0,3,0,1000,250.0,0,C13RH,12,train
1536.5650653839111,3,4,2,0,5,1,H-,1,2,2,0,1000,250.0,2,C13RH,13,train
976.4511585235596,3,4,2,0,5,1,H-,1,3,0,0,1000,250.0,3,C13RH,14,train
959.6800804138184,3,4,2,0,5,1,H-,1,0,3,0,1000,250.0,0,C13RH,15,train
544.9810028076172,3,4,2,0,5,1,H-,1,0,3,0,1000,250.0,0,C13RH,16,train
1759.5269680023193,3,4,2,0,5,1,H-,1,5,4,0,1000,250.0,5,C13RH,17,train
752.906084060669,3,4,2,0,5,1,H-,1,0,3,0,1000,250.0,0,C13RH,18,train
864.5951747894287,3,4,2,0,5,1,H-,1,2,2,0,1000,250.0,2,C13RH,19,train
577.2449970245361,3,4,2,0,5,1,H-,1,4,1,0,1000,250.0,4,C13RH,20,train
608.3769798278809,3,4,2,0,5,1,H-,1,0,3,0,1000,250.0,0,C13RH,21,train
1088.3970260620117,3,4,2,0,5,1,H-,0,4,1,0,1000,250.0,5,C13RH,22,train
592.5369262695312,3,4,2,0,5,1,H-,1,4,1,0,1000,250.0,4,C13RH,23,train
656.7039489746094,3,4,2,0,5,1,H-,1,5,4,0,1000,250.0,5,C13RH,24,train
592.4580097198486,3,4,2,0,5,1,H-,1,3,0,0,1000,250.0,3,C13RH,25,train
1280.6329727172852,3,4,2,0,5,1,H-,1,2,2,0,1000,250.0,2,C13RH,26,train
720.11399269104,3,4,2,0,5,1,H-,1,5,4,0,1000,250.0,5,C13RH,27,train
1200.5689144134521,3,4,2,0,5,1,H-,1,2,2,0,1000,250.0,2,C13RH,28,train
880.7580471038818,3,4,2,0,5,1,H-,1,4,1,0,1000,250.0,4,C13RH,29,train
560.715913772583,3,4,2,0,5,1,H-,1,4,1,0,1000,250.0,4,C13RH,30,train
1136.6119384765625,3,4,2,0,5,1,H-,1,5,4,0,1000,250.0,5,C13RH,31,train
992.5079345703125,3,4,2,0,5,1,H-,1,3,0,0,1000,250.0,3,C13RH,32,train
864.6750450134277,3,4,2,0,5,1,H-,1,0,3,0,1000,250.0,0,C13RH,33,train
785.1369380950928,3,4,2,0,5,1,H-,1,5,4,0,1000,250.0,5,C13RH,34,train
768.6920166015625,3,4,2,0,5,1,H-,0,1,5,0,1000,250.0,0,C13RH,35,train
864.1791343688965,3,4,2,0,5,1,H-,1,4,1,0,1000,250.0,4,C13RH,36,train
768.2859897613525,3,4,2,0,5,1,H-,1,1,5,0,1000,250.0,1,C13RH,37,train
1617.163896560669,3,4,2,0,5,1,H-,1,3,0,0,1000,250.0,3,C13RH,38,train
784.581184387207,3,4,2,0,5,1,H-,1,0,3,0,1000,250.0,0,C13RH,39,train
1153.5401344299316,3,4,2,0,5,1,H-,1,2,2,0,1000,250.0,2,C13RH,40,train
1072.4780559539795,3,4,2,0,5,1,H-,1,1,5,0,1000,250.0,1,C13RH,41,train
736.2649440765381,3,4,2,0,5,1,H-,1,4,1,0,1000,250.0,4,C13RH,42,train
1328.9082050323486,3,4,2,0,5,1,H-,1,1,5,0,1000,250.0,1,C13RH,43,train
641.2310600280762,3,4,2,0,5,1,H-,1,1,5,0,1000,250.0,1,C13RH,44,train
1392.2369480133057,3,4,2,0,5,1,H-,1,2,2,0,1000,250.0,2,C13RH,45,train
1072.9970932006836,3,4,2,0,5,1,H-,0,4,1,0,1000,250.0,5,C13RH,46,train
560.1711273193359,3,4,2,0,5,1,H-,1,4,1,0,1000,250.0,4,C13RH,47,train
976.6900539398193,3,4,2,0,5,1,H-,1,5,4,0,1000,250.0,5,C13RH,48,train
1328.6559581756592,3,4,2,0,5,1,H-,1,2,2,0,1000,250.0,2,C13RH,49,train
2304.6510219573975,3,4,2,0,5,1,H-,1,4,1,0,1000,250.0,4,C13RH,50,train
847.9909896850586,3,4,2,0,5,1,H-,1,0,3,0,1000,250.0,0,C13RH,51,train
1104.3391227722168,3,4,2,0,5,1,H-,1,5,4,0,1000,250.0,5,C13RH,52,train
992.3930168151855,3,4,2,0,5,1,H-,1,1,5,0,1000,250.0,1,C13RH,53,train
654.4318199157715,3,4,2,0,5,1,H-,1,0,3,0,1000,250.0,0,C13RH,54,train
512.3929977416992,3,4,2,0,5,1,H-,1,4,1,0,1000,250.0,4,C13RH,55,train
496.3550567626953,3,4,2,0,5,1,H-,1,5,4,0,1000,250.0,5,C13RH,56,train
752.8760433197021,3,4,2,0,5,1,H-,1,5,4,0,1000,250.0,5,C13RH,57,train
656.6789150238037,3,4,2,0,5,1,H-,1,4,1,0,1000,250.0,4,C13RH,58,train
1008.3291530609131,3,4,2,0,5,1,H-,1,0,3,0,1000,250.0,0,C13RH,59,train
639.3358707427979,3,4,2,0,5,1,H-,1,4,1,0,1000,250.0,4,C13RH,60,train
592.228889465332,3,4,2,0,5,1,H-,1,4,1,0,1000,250.0,4,C13RH,61,train
624.413013458252,3,4,2,0,5,1,H-,1,0,3,0,1000,250.0,0,C13RH,62,train
2016.2150859832764,3,4,2,0,5,1,H-,1,3,0,0,1000,250.0,3,C13RH,63,train
1312.2949600219727,3,4,2,0,5,1,H-,1,2,2,0,1000,250.0,2,C13RH,64,train
992.3148155212402,3,4,2,0,5,1,H-,1,5,4,0,1000,250.0,5,C13RH,65,train
720.4849720001221,3,4,2,0,5,1,H-,1,0,3,0,1000,250.0,0,C13RH,66,train
2016.948938369751,3,4,2,0,5,1,H-,1,3,0,0,1000,250.0,3,C13RH,67,train
592.4749374389648,3,4,2,0,5,1,H-,1,0,3,0,1000,250.0,0,C13RH,68,train
992.6028251647949,3,4,2,0,5,1,H-,1,2,2,0,1000,250.0,2,C13RH,69,train
750.7951259613037,3,4,2,0,5,1,H-,1,5,4,0,1000,250.0,5,C13RH,70,train
528.1939506530762,3,4,2,0,5,1,H-,1,5,4,0,1000,250.0,5,C13RH,71,train
1057.2640895843506,3,4,2,0,5,1,H-,1,2,2,0,1000,250.0,2,C13RH,72,train
816.627025604248,3,4,2,0,5,1,H-,1,2,2,0,1000,250.0,2,C13RH,73,train
960.3590965270996,3,4,2,0,5,1,H-,1,5,4,0,1000,250.0,5,C13RH,74,train
656.3451290130615,3,4,2,0,5,1,H-,1,0,3,0,1000,250.0,0,C13RH,75,train
560.6439113616943,3,4,2,0,5,1,H-,1,0,3,0,1000,250.0,0,C13RH,76,train
944.8239803314209,3,4,2,0,5,1,H-,1,1,5,0,1000,250.0,1,C13RH,77,train
1808.6590766906738,3,4,2,0,5,1,H-,1,5,4,0,1000,250.0,5,C13RH,78,train
960.7360363006592,3,4,2,0,5,1,H-,1,2,2,0,1000,250.0,2,C13RH,79,train
1296.6439723968506,3,4,2,0,5,1,H-,1,3,0,0,1000,250.0,3,C13RH,80,train
768.6619758605957,3,4,2,0,5,1,H-,1,2,2,0,1000,250.0,2,C13RH,81,train
592.6499366760254,3,4,2,0,5,1,H-,1,2,2,0,1000,250.0,2,C13RH,82,train
1504.4100284576416,3,4,2,0,5,1,H-,1,3,0,0,1000,250.0,3,C13RH,83,train
800.9700775146484,3,4,2,0,5,1,H-,1,0,3,0,1000,250.0,0,C13RH,84,train
976.2730598449707,3,4,2,0,5,1,H-,1,1,5,0,1000,250.0,1,C13RH,85,train
1297.5599765777588,3,4,2,0,5,1,H-,1,4,1,0,1000,250.0,4,C13RH,86,train
1182.9681396484375,3,4,2,0,5,1,H-,1,2,2,0,1000,250.0,2,C13RH,87,train
640.3579711914062,3,4,2,0,5,1,H-,1,0,3,0,1000,250.0,0,C13RH,88,train
1024.4648456573486,3,4,2,0,5,1,H-,1,5,4,0,1000,250.0,5,C13RH,89,train
1648.3700275421143,3,4,2,0,5,1,H-,1,3,0,0,1000,250.0,3,C13RH,90,train
1152.5721549987793,3,4,2,0,5,1,H-,1,2,2,0,1000,250.0,2,C13RH,91,train
881.166934967041,3,4,2,0,5,1,H-,1,5,4,0,1000,250.0,5,C13RH,92,train
1344.6478843688965,3,4,2,0,5,1,H-,1,3,0,0,1000,250.0,3,C13RH,93,train
1088.1249904632568,3,4,2,0,5,1,H-,1,3,0,0,1000,250.0,3,C13RH,94,train
720.4849720001221,3,4,2,0,5,1,H-,1,2,2,0,1000,250.0,2,C13RH,95,train
944.3960189819336,3,4,2,0,5,1,H-,1,4,1,0,1000,250.0,4,C13RH,96,train
912.7418994903564,3,4,2,0,5,1,H-,1,3,0,0,1000,250.0,3,C13RH,97,train
816.3590431213379,3,4,2,0,5,1,H-,1,2,2,0,1000,250.0,2,C13RH,98,train
1040.3120517730713,3,4,2,0,5,1,H-,1,3,0,0,1000,250.0,3,C13RH,99,train
1120.09596824646,3,4,2,0,5,1,H-,1,1,5,0,1000,250.0,1,C13RH,100,train
1088.7091159820557,3,4,2,0,5,1,H-,1,0,3,0,1000,250.0,0,C13RH,101,train
721.6460704803467,3,4,2,0,5,1,H-,1,2,2,0,1000,250.0,2,C13RH,102,train
1056.8978786468506,3,4,2,0,5,1,H-,1,5,4,0,1000,250.0,5,C13RH,103,train
832.2579860687256,3,4,2,0,5,1,H-,1,2,2,0,1000,250.0,2,C13RH,104,train
1008.4278583526611,3,4,2,0,5,1,H-,1,4,1,0,1000,250.0,4,C13RH,105,train
832.5281143188477,3,4,2,0,5,1,H-,1,1,5,0,1000,250.0,1,C13RH,106,train
863.706111907959,3,4,2,0,5,1,H-,1,3,0,0,1000,250.0,3,C13RH,107,train
961.097002029419,3,4,2,0,5,1,H-,1,4,1,0,1000,250.0,4,C13RH,108,train
1008.9418888092041,3,4,2,0,5,1,H-,1,1,5,0,1000,250.0,1,C13RH,109,train
991.8670654296875,3,4,2,0,5,1,H-,1,0,3,0,1000,250.0,0,C13RH,110,train
4832.8070640563965,3,4,2,0,5,1,H-,1,3,0,0,1000,250.0,3,C13RH,111,train
704.279899597168,3,4,2,0,5,1,H-,1,4,1,0,1000,250.0,4,C13RH,112,train
1088.8910293579102,3,4,2,0,5,1,H-,1,0,3,0,1000,250.0,0,C13RH,113,train
1200.0248432159424,3,4,2,0,5,1,H-,1,3,0,0,1000,250.0,3,C13RH,114,train
464.45202827453613,3,4,2,0,5,1,H-,1,4,1,0,1000,250.0,4,C13RH,115,train
832.0000171661377,3,4,2,0,5,1,H-,0,3,0,0,1000,250.0,5,C13RH,116,train
832.8890800476074,3,4,2,0,5,1,H-,1,2,2,0,1000,250.0,2,C13RH,117,train
1808.5598945617676,3,4,2,0,5,1,H-,1,3,0,0,1000,250.0,3,C13RH,118,train
1056.394100189209,3,4,2,0,5,1,H-,1,3,0,0,1000,250.0,3,C13RH,119,train
768.1901454925537,3,4,2,0,5,1,H-,1,5,4,0,1000,250.0,5,C13RH,120,train
560.9228610992432,3,4,2,0,5,1,H-,0,2,2,0,1000,250.0,3,C13RH,121,train
992.5990104675293,3,4,2,0,5,1,H-,1,5,4,0,1000,250.0,5,C13RH,122,train
800.3430366516113,3,4,2,0,5,1,H-,1,4,1,0,1000,250.0,4,C13RH,123,train
1038.6290550231934,3,4,2,0,5,1,H-,1,2,2,0,1000,250.0,2,C13RH,124,train
1680.389165878296,3,4,2,0,5,1,H-,1,3,0,0,1000,250.0,3,C13RH,125,train
832.165002822876,3,4,2,0,5,1,H-,0,2,2,0,1000,250.0,1,C13RH,126,train
848.4930992126465,3,4,2,0,5,1,H-,1,0,3,0,1000,250.0,0,C13RH,127,train
1088.3409976959229,3,4,2,0,5,1,H-,1,3,0,0,1000,250.0,3,C13RH,128,train
912.3499393463135,3,4,2,0,5,1,H-,1,4,1,0,1000,250.0,4,C13RH,129,train
560.7569217681885,3,4,2,0,5,1,H-,0,3,0,0,1000,250.0,5,C13RH,130,train
848.7870693206787,3,4,2,0,5,1,H-,1,4,1,0,1000,250.0,4,C13RH,131,train
640.1059627532959,3,4,2,0,5,1,H-,1,4,1,0,1000,250.0,4,C13RH,132,train
816.5268898010254,3,4,2,0,5,1,H-,0,1,5,0,1000,250.0,0,C13RH,133,train
944.7050094604492,3,4,2,0,5,1,H-,1,4,1,0,1000,250.0,4,C13RH,134,train
832.2391510009766,3,4,2,0,5,1,H-,1,2,2,0,1000,250.0,2,C13RH,135,train
1536.3469123840332,3,4,2,0,5,1,H-,1,4,1,0,1000,250.0,4,C13RH,136,train
704.5071125030518,3,4,2,0,5,1,H-,1,2,2,0,1000,250.0,2,C13RH,137,train
2400.367021560669,3,4,2,0,5,1,H-,1,5,4,0,1000,250.0,5,C13RH,138,train
1056.1738014221191,3,4,2,0,5,1,H-,1,1,5,0,1000,250.0,1,C13RH,139,train
768.9738273620605,3,4,2,0,5,1,H-,1,2,2,0,1000,250.0,2,C13RH,140,train
816.9219493865967,3,4,2,0,5,1,H-,1,0,3,0,1000,250.0,0,C13RH,141,train
1248.8751411437988,3,4,2,0,5,1,H-,1,2,2,0,1000,250.0,2,C13RH,142,train
1552.1161556243896,3,4,2,0,5,1,H-,1,4,1,0,1000,250.0,4,C13RH,143,train
798.5200881958008,3,4,2,0,5,1,H-,1,2,2,0,1000,250.0,2,C13RH,144,train
1072.3381042480469,3,4,2,0,5,1,H-,1,1,5,0,1000,250.0,1,C13RH,145,train
912.5571250915527,3,4,2,0,5,1,H-,1,5,4,0,1000,250.0,5,C13RH,146,train
608.9169979095459,3,4,2,0,5,1,H-,1,0,3,0,1000,250.0,0,C13RH,147,train
528.609037399292,3,4,2,0,5,1,H-,1,0,3,0,1000,250.0,0,C13RH,148,train
1088.7210369110107,3,4,2,0,5,1,H-,1,1,5,0,1000,250.0,1,C13RH,149,train
1696.8839168548584,3,4,2,0,5,1,H-,1,2,2,0,1000,250.0,2,C13RH,150,train
912.9788875579834,3,4,2,0,5,1,H-,1,1,5,0,1000,250.0,1,C13RH,151,train
735.3630065917969,3,4,2,0,5,1,H-,1,0,3,0,1000,250.0,0,C13RH,152,train
912.4710559844971,3,4,2,0,5,1,H-,1,3,0,0,1000,250.0,3,C13RH,153,train
1232.3150634765625,3,4,2,0,5,1,H-,1,5,4,0,1000,250.0,5,C13RH,154,train
528.9230346679688,3,4,2,0,5,1,H-,1,5,4,0,1000,250.0,5,C13RH,155,train
1313.1461143493652,3,4,2,0,5,1,H-,1,0,3,0,1000,250.0,0,C13RH,156,train
1134.6290111541748,3,4,2,0,5,1,H-,1,4,1,0,1000,250.0,4,C13RH,157,train
464.404821395874,3,4,2,0,5,1,H-,1,4,1,0,1000,250.0,4,C13RH,158,train
944.3838596343994,3,4,2,0,5,1,H-,1,1,5,0,1000,250.0,1,C13RH,159,train
848.5591411590576,3,4,2,0,5,1,H-,1,0,3,0,1000,250.0,0,C13RH,160,train
1921.6949939727783,3,4,2,0,5,1,H-,1,3,0,0,1000,250.0,3,C13RH,161,train
960.529088973999,3,4,2,0,5,1,H-,1,0,3,0,1000,250.0,0,C13RH,162,train
832.9048156738281,3,4,2,0,5,1,H-,1,2,2,0,1000,250.0,2,C13RH,163,train
1040.9250259399414,3,4,2,0,5,1,H-,1,4,1,0,1000,250.0,4,C13RH,164,train
1136.6069316864014,3,4,2,0,5,1,H-,1,2,2,0,1000,250.0,2,C13RH,165,train
896.899938583374,3,4,2,0,5,1,H-,1,0,3,0,1000,250.0,0,C13RH,166,train
1137.0980739593506,3,4,2,0,5,1,H-,1,2,2,0,1000,250.0,2,C13RH,167,train
800.3180027008057,3,4,2,0,5,1,H-,1,1,5,0,1000,250.0,1,C13RH,168,train
849.1930961608887,3,4,2,0,5,1,H-,1,2,2,0,1000,250.0,2,C13RH,169,train
881.1337947845459,3,4,2,0,5,1,H-,1,3,0,0,1000,250.0,3,C13RH,170,train
1264.997959136963,3,4,2,0,5,1,H-,1,2,2,0,1000,250.0,2,C13RH,171,train
782.6130390167236,3,4,2,0,5,1,H-,1,2,2,0,1000,250.0,2,C13RH,172,train
528.5341739654541,3,4,2,0,5,1,H-,1,2,2,0,1000,250.0,2,C13RH,173,train
865.0569915771484,3,4,2,0,5,1,H-,1,4,1,0,1000,250.0,4,C13RH,174,train
864.2017841339111,3,4,2,0,5,1,H-,1,2,2,0,1000,250.0,2,C13RH,175,train
1217.0650959014893,3,4,2,0,5,1,H-,1,4,1,0,1000,250.0,4,C13RH,176,train
1488.9230728149414,3,4,2,0,5,1,H-,1,5,4,0,1000,250.0,5,C13RH,177,train
1119.2710399627686,3,4,2,0,5,1,H-,1,0,3,0,1000,250.0,0,C13RH,178,train
1056.5838813781738,3,4,2,0,5,1,H-,1,4,1,0,1000,250.0,4,C13RH,179,train
817.1541690826416,3,4,2,0,5,1,H-,1,3,0,0,1000,250.0,3,C13RH,180,train
832.5450420379639,3,4,2,0,5,1,H-,1,2,2,0,1000,250.0,2,C13RH,181,train
1119.5590496063232,3,4,2,0,5,1,H-,1,0,3,0,1000,250.0,0,C13RH,182,train
896.4569568634033,3,4,2,0,5,1,H-,1,1,5,0,1000,250.0,1,C13RH,183,train
688.9970302581787,3,4,2,0,5,1,H-,1,0,3,0,1000,250.0,0,C13RH,184,train
896.1300849914551,3,4,2,0,5,1,H-,1,4,1,0,1000,250.0,4,C13RH,185,train
769.0770626068115,3,4,2,0,5,1,H-,1,3,0,0,1000,250.0,3,C13RH,186,train
945.0991153717041,3,4,2,0,5,1,H-,1,0,3,0,1000,250.0,0,C13RH,187,train
560.3358745574951,3,4,2,0,5,1,H-,1,0,3,0,1000,250.0,0,C13RH,188,train
1168.867826461792,3,4,2,0,5,1,H-,1,3,0,0,1000,250.0,3,C13RH,189,train
960.9670639038086,3,4,2,0,5,1,H-,1,2,2,0,1000,250.0,2,C13RH,190,train
912.1830463409424,3,4,2,0,5,1,H-,1,5,4,0,1000,250.0,5,C13RH,191,train
1056.5249919891357,3,4,2,0,5,1,H-,1,4,1,0,1000,250.0,4,C13RH,192,train
976.3889312744141,3,4,2,0,5,1,H-,1,3,0,0,1000,250.0,3,C13RH,193,train
1136.3821029663086,3,4,2,0,5,1,H-,1,0,3,0,1000,250.0,0,C13RH,194,train
1360.6500625610352,3,4,2,0,5,1,H-,1,4,1,0,1000,250.0,4,C13RH,195,train
943.8989162445068,3,4,2,0,5,1,H-,1,3,0,0,1000,250.0,3,C13RH,196,train
944.3910121917725,3,4,2,0,5,1,H-,1,4,1,0,1000,250.0,4,C13RH,197,train
864.2868995666504,3,4,2,0,5,1,H-,0,2,2,0,1000,250.0,1,C13RH,198,train
816.2469863891602,3,4,2,0,5,1,H-,1,2,2,0,1000,250.0,2,C13RH,199,train
928.3809661865234,3,4,2,0,5,1,H-,1,1,5,0,1000,250.0,1,C13RH,200,train
896.129846572876,3,4,2,0,5,1,H-,1,5,4,0,1000,250.0,5,C13RH,201,train
512.3019218444824,3,4,2,0,5,1,H-,1,5,4,0,1000,250.0,5,C13RH,202,train
783.7309837341309,3,4,2,0,5,1,H-,0,2,2,0,1000,250.0,1,C13RH,203,train
816.3168430328369,3,4,2,0,5,1,H-,1,1,5,0,1000,250.0,1,C13RH,204,train
480.77917098999023,3,4,2,0,5,1,H-,1,1,5,0,1000,250.0,1,C13RH,205,train
417.04607009887695,3,4,2,0,5,1,H-,0,3,0,0,1000,250.0,4,C13RH,206,train
1072.3159313201904,3,4,2,0,5,1,H-,1,0,3,0,1000,250.0,0,C13RH,207,train
832.8549861907959,3,4,2,0,5,1,H-,1,4,1,0,1000,250.0,4,C13RH,208,train
800.5778789520264,3,4,2,0,5,1,H-,1,5,4,0,1000,250.0,5,C13RH,209,train
1168.4699058532715,3,4,2,0,5,1,H-,1,5,4,0,1000,250.0,5,C13RH,210,train
1055.4029941558838,3,4,2,0,5,1,H-,1,2,2,0,1000,250.0,2,C13RH,211,train
769.1590785980225,3,4,2,0,5,1,H-,1,2,2,0,1000,250.0,2,C13RH,212,train
832.5150012969971,3,4,2,0,5,1,H-,1,4,1,0,1000,250.0,4,C13RH,213,train
464.41197395324707,3,4,2,0,5,1,H-,1,4,1,0,1000,250.0,4,C13RH,214,train
1200.821876525879,3,4,2,0,5,1,H-,1,5,4,0,1000,250.0,5,C13RH,215,train
528.3801555633545,3,4,2,0,5,1,H-,1,5,4,0,1000,250.0,5,C13RH,216,train
944.8270797729492,3,4,2,0,5,1,H-,1,0,3,0,1000,250.0,0,C13RH,217,train
976.3739109039307,3,4,2,0,5,1,H-,1,4,1,0,1000,250.0,4,C13RH,218,train
1057.0199489593506,3,4,2,0,5,1,H-,1,1,5,0,1000,250.0,1,C13RH,219,train
928.54905128479,3,4,2,0,5,1,H-,1,3,0,0,1000,250.0,3,C13RH,220,train
817.0771598815918,3,4,2,0,5,1,H-,1,3,0,0,1000,250.0,3,C13RH,221,train
912.4760627746582,3,4,2,0,5,1,H-,1,2,2,0,1000,250.0,2,C13RH,222,train
832.4799537658691,3,4,2,0,5,1,H-,1,3,0,0,1000,250.0,3,C13RH,223,train
1040.7588481903076,3,4,2,0,5,1,H-,1,0,3,0,1000,250.0,0,C13RH,224,train
560.3349208831787,3,4,2,0,5,1,H-,1,0,3,0,1000,250.0,0,C13RH,225,train
1936.0971450805664,3,4,2,0,5,1,H-,1,5,4,0,1000,250.0,5,C13RH,226,train
849.1458892822266,3,4,2,0,5,1,H-,1,3,0,0,1000,250.0,3,C13RH,227,train
1040.611982345581,3,4,2,0,5,1,H-,1,1,5,0,1000,250.0,1,C13RH,228,train
1104.2850017547607,3,4,2,0,5,1,H-,1,5,4,0,1000,250.0,5,C13RH,229,train
801.4719486236572,3,4,2,0,5,1,H-,1,4,1,0,1000,250.0,4,C13RH,230,train
944.8809623718262,3,4,2,0,5,1,H-,1,0,3,0,1000,250.0,0,C13RH,231,train
545.7370281219482,3,4,2,0,5,1,H-,1,0,3,0,1000,250.0,0,C13RH,232,train
993.1309223175049,3,4,2,0,5,1,H-,1,3,0,0,1000,250.0,3,C13RH,233,train
640.5189037322998,3,4,2,0,5,1,H-,1,3,0,0,1000,250.0,3,C13RH,234,train
720.911979675293,3,4,2,0,5,1,H-,1,3,0,0,1000,250.0,3,C13RH,235,train
784.5771312713623,3,4,2,0,5,1,H-,1,2,2,0,1000,250.0,2,C13RH,236,train
1233.0968379974365,3,4,2,0,5,1,H-,1,4,1,0,1000,250.0,4,C13RH,237,train
544.586181640625,3,4,2,0,5,1,H-,1,4,1,0,1000,250.0,4,C13RH,238,train
1072.8590488433838,3,4,2,0,5,1,H-,1,0,3,0,1000,250.0,0,C13RH,239,train
753.1528472900391,3,4,2,0,5,1,H-,1,2,2,0,1000,250.0,2,C13RH,240,train
1008.8880062103271,3,4,2,0,5,1,H-,1,5,4,0,1000,250.0,5,C13RH,241,train
768.855094909668,3,4,2,0,5,1,H-,1,1,5,0,1000,250.0,1,C13RH,242,train
960.5739116668701,3,4,2,0,5,1,H-,1,5,4,0,1000,250.0,5,C13RH,243,train
1344.883918762207,3,4,2,0,5,1,H-,1,0,3,0,1000,250.0,0,C13RH,244,train
816.3809776306152,3,4,2,0,5,1,H-,0,2,2,0,1000,250.0,1,C13RH,245,train
897.7911472320557,3,4,2,0,5,1,H-,1,1,5,0,1000,250.0,1,C13RH,246,train
832.2999477386475,3,4,2,0,5,1,H-,1,0,3,0,1000,250.0,0,C13RH,247,train
1856.971025466919,3,4,2,0,5,1,H-,0,4,1,0,1000,250.0,5,C13RH,248,train
1280.5168628692627,3,4,2,0,5,1,H-,1,3,0,0,1000,250.0,3,C13RH,249,train
1280.4391384124756,2,4,3,0,1,5,H-,1,3,2,0,1000,250.0,3,C13RH,250,test
928.0998706817627,2,4,3,0,1,5,H-,1,2,0,0,1000,250.0,2,C13RH,251,test
912.6110076904297,2,4,3,0,1,5,H-,1,4,1,0,1000,250.0,4,C13RH,252,test
2256.3209533691406,2,4,3,0,1,5,H-,1,1,4,0,1000,250.0,1,C13RH,253,test
656.5670967102051,2,4,3,0,1,5,H-,1,1,4,0,1000,250.0,1,C13RH,254,test
2048.647880554199,2,4,3,0,1,5,H-,1,3,2,0,1000,250.0,3,C13RH,255,test
1168.5569286346436,2,4,3,0,1,5,H-,1,0,3,0,1000,250.0,0,C13RH,256,test
848.5097885131836,2,4,3,0,1,5,H-,1,3,2,0,1000,250.0,3,C13RH,257,test
1632.5979232788086,2,4,3,0,1,5,H-,1,2,0,0,1000,250.0,2,C13RH,258,test
1216.3629531860352,2,4,3,0,1,5,H-,1,3,2,0,1000,250.0,3,C13RH,259,test
1137.1090412139893,2,4,3,0,1,5,H-,1,4,1,0,1000,250.0,4,C13RH,260,test
672.5850105285645,2,4,3,0,1,5,H-,1,4,1,0,1000,250.0,4,C13RH,261,test
448.746919631958,2,4,3,0,1,5,H-,1,4,1,0,1000,250.0,4,C13RH,262,test
784.3418121337891,2,4,3,0,1,5,H-,1,2,0,0,1000,250.0,2,C13RH,263,test
720.6320762634277,2,4,3,0,1,5,H-,0,5,5,0,1000,250.0,2,C13RH,264,test
1038.5758876800537,2,4,3,0,1,5,H-,1,4,1,0,1000,250.0,4,C13RH,265,test
1200.0799179077148,2,4,3,0,1,5,H-,1,0,3,0,1000,250.0,0,C13RH,266,test
480.3590774536133,2,4,3,0,1,5,H-,1,0,3,0,1000,250.0,0,C13RH,267,test
1040.8570766448975,2,4,3,0,1,5,H-,1,2,0,0,1000,250.0,2,C13RH,268,test
1376.6679763793945,2,4,3,0,1,5,H-,1,5,5,0,1000,250.0,5,C13RH,269,test
1360.3720664978027,2,4,3,0,1,5,H-,1,1,4,0,1000,250.0,1,C13RH,270,test
1216.9289588928223,2,4,3,0,1,5,H-,1,4,1,0,1000,250.0,4,C13RH,271,test
976.2930870056152,2,4,3,0,1,5,H-,1,1,4,0,1000,250.0,1,C13RH,272,test
1616.3368225097656,2,4,3,0,1,5,H-,1,0,3,0,1000,250.0,0,C13RH,273,test
880.4221153259277,2,4,3,0,1,5,H-,1,3,2,0,1000,250.0,3,C13RH,274,test
864.271879196167,2,4,3,0,1,5,H-,1,4,1,0,1000,250.0,4,C13RH,275,test
1328.0131816864014,2,4,3,0,1,5,H-,1,2,0,0,1000,250.0,2,C13RH,276,test
1008.3770751953125,2,4,3,0,1,5,H-,1,3,2,0,1000,250.0,3,C13RH,277,test
608.8378429412842,2,4,3,0,1,5,H-,1,3,2,0,1000,250.0,3,C13RH,278,test
1584.9862098693848,2,4,3,0,1,5,H-,1,2,0,0,1000,250.0,2,C13RH,279,test
1264.5339965820312,2,4,3,0,1,5,H-,1,4,1,0,1000,250.0,4,C13RH,280,test
1728.4572124481201,2,4,3,0,1,5,H-,1,1,4,0,1000,250.0,1,C13RH,281,test
1376.3940334320068,2,4,3,0,1,5,H-,1,2,0,0,1000,250.0,2,C13RH,282,test
911.2892150878906,2,4,3,0,1,5,H-,1,5,5,0,1000,250.0,5,C13RH,283,test
512.876033782959,2,4,3,0,1,5,H-,1,5,5,0,1000,250.0,5,C13RH,284,test
560.9140396118164,2,4,3,0,1,5,H-,1,0,3,0,1000,250.0,0,C13RH,285,test
816.4420127868652,2,4,3,0,1,5,H-,1,3,2,0,1000,250.0,3,C13RH,286,test
1040.6200885772705,2,4,3,0,1,5,H-,1,5,5,0,1000,250.0,5,C13RH,287,test
800.3461360931396,2,4,3,0,1,5,H-,1,3,2,0,1000,250.0,3,C13RH,288,test
736.6058826446533,2,4,3,0,1,5,H-,1,3,2,0,1000,250.0,3,C13RH,289,test
704.3089866638184,2,4,3,0,1,5,H-,1,4,1,0,1000,250.0,4,C13RH,290,test
992.2230243682861,2,4,3,0,1,5,H-,1,5,5,0,1000,250.0,5,C13RH,291,test
1680.9279918670654,2,4,3,0,1,5,H-,1,1,4,0,1000,250.0,1,C13RH,292,test
832.0720195770264,2,4,3,0,1,5,H-,1,2,0,0,1000,250.0,2,C13RH,293,test
816.6871070861816,2,4,3,0,1,5,H-,1,3,2,0,1000,250.0,3,C13RH,294,test
1264.1029357910156,2,4,3,0,1,5,H-,1,1,4,0,1000,250.0,1,C13RH,295,test
1232.672929763794,2,4,3,0,1,5,H-,1,0,3,0,1000,250.0,0,C13RH,296,test
784.5680713653564,2,4,3,0,1,5,H-,1,3,2,0,1000,250.0,3,C13RH,297,test
1137.174129486084,2,4,3,0,1,5,H-,1,5,5,0,1000,250.0,5,C13RH,298,test
1246.9260692596436,2,4,3,0,1,5,H-,1,1,4,0,1000,250.0,1,C13RH,299,test
800.2660274505615,2,4,3,0,1,5,H-,1,3,2,0,1000,250.0,3,C13RH,300,test
1280.9419631958008,2,4,3,0,1,5,H-,1,5,5,0,1000,250.0,5,C13RH,301,test
992.5181865692139,2,4,3,0,1,5,H-,1,0,3,0,1000,250.0,0,C13RH,302,test
1201.0619640350342,2,4,3,0,1,5,H-,1,2,0,0,1000,250.0,2,C13RH,303,test
736.3810539245605,2,4,3,0,1,5,H-,1,2,0,0,1000,250.0,2,C13RH,304,test
480.07893562316895,2,4,3,0,1,5,H-,1,2,0,0,1000,250.0,2,C13RH,305,test
1136.2521648406982,2,4,3,0,1,5,H-,1,0,3,0,1000,250.0,0,C13RH,306,test
688.9810562133789,2,4,3,0,1,5,H-,1,2,0,0,1000,250.0,2,C13RH,307,test
718.5778617858887,2,4,3,0,1,5,H-,1,4,1,0,1000,250.0,4,C13RH,308,test
464.60700035095215,2,4,3,0,1,5,H-,1,4,1,0,1000,250.0,4,C13RH,309,test
480.97705841064453,2,4,3,0,1,5,H-,1,4,1,0,1000,250.0,4,C13RH,310,test
784.8260402679443,2,4,3,0,1,5,H-,1,5,5,0,1000,250.0,5,C13RH,311,test
704.3278217315674,2,4,3,0,1,5,H-,1,0,3,0,1000,250.0,0,C13RH,312,test
1793.0190563201904,2,4,3,0,1,5,H-,1,1,4,0,1000,250.0,1,C13RH,313,test
1280.1289558410645,2,4,3,0,1,5,H-,1,0,3,0,1000,250.0,0,C13RH,314,test
800.2228736877441,2,4,3,0,1,5,H-,1,4,1,0,1000,250.0,4,C13RH,315,test
1008.0480575561523,2,4,3,0,1,5,H-,1,0,3,0,1000,250.0,0,C13RH,316,test
800.9719848632812,2,4,3,0,1,5,H-,1,3,2,0,1000,250.0,3,C13RH,317,test
736.8860244750977,2,4,3,0,1,5,H-,1,3,2,0,1000,250.0,3,C13RH,318,test
1328.747034072876,2,4,3,0,1,5,H-,1,1,4,0,1000,250.0,1,C13RH,319,test
769.0560817718506,2,4,3,0,1,5,H-,1,3,2,0,1000,250.0,3,C13RH,320,test
1600.2700328826904,2,4,3,0,1,5,H-,1,2,0,0,1000,250.0,2,C13RH,321,test
1504.439115524292,2,4,3,0,1,5,H-,1,1,4,0,1000,250.0,1,C13RH,322,test
704.6918869018555,2,4,3,0,1,5,H-,1,4,1,0,1000,250.0,4,C13RH,323,test
511.6751194000244,2,4,3,0,1,5,H-,1,4,1,0,1000,250.0,4,C13RH,324,test
1312.324047088623,2,4,3,0,1,5,H-,1,2,0,0,1000,250.0,2,C13RH,325,test
526.3988971710205,2,4,3,0,1,5,H-,0,1,4,0,1000,250.0,2,C13RH,326,test
1024.590015411377,2,4,3,0,1,5,H-,1,0,3,0,1000,250.0,0,C13RH,327,test
896.3508605957031,2,4,3,0,1,5,H-,1,5,5,0,1000,250.0,5,C13RH,328,test
1120.445966720581,2,4,3,0,1,5,H-,1,0,3,0,1000,250.0,0,C13RH,329,test
449.1708278656006,2,4,3,0,1,5,H-,1,0,3,0,1000,250.0,0,C13RH,330,test
800.8208274841309,2,4,3,0,1,5,H-,1,3,2,0,1000,250.0,3,C13RH,331,test
1423.3839511871338,2,4,3,0,1,5,H-,1,1,4,0,1000,250.0,1,C13RH,332,test
816.5380954742432,2,4,3,0,1,5,H-,1,3,2,0,1000,250.0,3,C13RH,333,test
1104.2110919952393,2,4,3,0,1,5,H-,1,1,4,0,1000,250.0,1,C13RH,334,test
896.7330455780029,2,4,3,0,1,5,H-,1,5,5,0,1000,250.0,5,C13RH,335,test
512.2888088226318,2,4,3,0,1,5,H-,0,2,0,0,1000,250.0,5,C13RH,336,test
896.3871002197266,2,4,3,0,1,5,H-,1,4,1,0,1000,250.0,4,C13RH,337,test
1264.4469738006592,2,4,3,0,1,5,H-,1,5,5,0,1000,250.0,5,C13RH,338,test
1648.561954498291,2,4,3,0,1,5,H-,1,1,4,0,1000,250.0,1,C13RH,339,test
1327.4760246276855,2,4,3,0,1,5,H-,1,1,4,0,1000,250.0,1,C13RH,340,test
960.5278968811035,2,4,3,0,1,5,H-,1,0,3,0,1000,250.0,0,C13RH,341,test
640.4819488525391,2,4,3,0,1,5,H-,1,0,3,0,1000,250.0,0,C13RH,342,test
896.3990211486816,2,4,3,0,1,5,H-,0,2,0,0,1000,250.0,1,C13RH,343,test
1248.4769821166992,2,4,3,0,1,5,H-,1,0,3,0,1000,250.0,0,C13RH,344,test
784.2979431152344,2,4,3,0,1,5,H-,1,4,1,0,1000,250.0,4,C13RH,345,test
671.9968318939209,2,4,3,0,1,5,H-,1,3,2,0,1000,250.0,3,C13RH,346,test
401.0460376739502,2,4,3,0,1,5,H-,1,3,2,0,1000,250.0,3,C13RH,347,test
625.1270771026611,2,4,3,0,1,5,H-,1,4,1,0,1000,250.0,4,C13RH,348,test
656.1319828033447,2,4,3,0,1,5,H-,1,4,1,0,1000,250.0,4,C13RH,349,test
448.5499858856201,2,4,3,0,1,5,H-,1,4,1,0,1000,250.0,4,C13RH,350,test
833.137035369873,2,4,3,0,1,5,H-,1,3,2,0,1000,250.0,3,C13RH,351,test
736.2749576568604,2,4,3,0,1,5,H-,1,1,4,0,1000,250.0,1,C13RH,352,test
1280.8678150177002,2,4,3,0,1,5,H-,1,0,3,0,1000,250.0,0,C13RH,353,test
800.4541397094727,2,4,3,0,1,5,H-,1,3,2,0,1000,250.0,3,C13RH,354,test
1264.401912689209,2,4,3,0,1,5,H-,1,0,3,0,1000,250.0,0,C13RH,355,test
737.1830940246582,2,4,3,0,1,5,H-,1,5,5,0,1000,250.0,5,C13RH,356,test
784.3940258026123,2,4,3,0,1,5,H-,1,3,2,0,1000,250.0,3,C13RH,357,test
464.78891372680664,2,4,3,0,1,5,H-,1,3,2,0,1000,250.0,3,C13RH,358,test
1536.419153213501,2,4,3,0,1,5,H-,1,0,3,0,1000,250.0,0,C13RH,359,test
912.4240875244141,2,4,3,0,1,5,H-,1,5,5,0,1000,250.0,5,C13RH,360,test
1184.377908706665,2,4,3,0,1,5,H-,1,2,0,0,1000,250.0,2,C13RH,361,test
2126.9218921661377,2,4,3,0,1,5,H-,1,1,4,0,1000,250.0,1,C13RH,362,test
1024.885892868042,2,4,3,0,1,5,H-,1,3,2,0,1000,250.0,3,C13RH,363,test
816.5149688720703,2,4,3,0,1,5,H-,1,4,1,0,1000,250.0,4,C13RH,364,test
816.619873046875,2,4,3,0,1,5,H-,1,5,5,0,1000,250.0,5,C13RH,365,test
1056.5719604492188,2,4,3,0,1,5,H-,0,2,0,0,1000,250.0,1,C13RH,366,test
1024.0938663482666,2,4,3,0,1,5,H-,1,0,3,0,1000,250.0,0,C13RH,367,test
1040.3659343719482,2,4,3,0,1,5,H-,1,2,0,0,1000,250.0,2,C13RH,368,test
880.6021213531494,2,4,3,0,1,5,H-,1,4,1,0,1000,250.0,4,C13RH,369,test
1184.5648288726807,2,4,3,0,1,5,H-,1,1,4,0,1000,250.0,1,C13RH,370,test
1008.6851119995117,2,4,3,0,1,5,H-,1,5,5,0,1000,250.0,5,C13RH,371,test
832.7460289001465,2,4,3,0,1,5,H-,1,4,1,0,1000,250.0,4,C13RH,372,test
800.7309436798096,2,4,3,0,1,5,H-,1,5,5,0,1000,250.0,5,C13RH,373,test
1008.979082107544,2,4,3,0,1,5,H-,0,2,0,0,1000,250.0,1,C13RH,374,test
800.3318309783936,2,4,3,0,1,5,H-,1,3,2,0,1000,250.0,3,C13RH,375,test
1087.264060974121,2,4,3,0,1,5,H-,1,0,3,0,1000,250.0,0,C13RH,376,test
1264.7559642791748,2,4,3,0,1,5,H-,1,1,4,0,1000,250.0,1,C13RH,377,test
673.022985458374,2,4,3,0,1,5,H-,1,4,1,0,1000,250.0,4,C13RH,378,test
992.8810596466064,2,4,3,0,1,5,H-,1,0,3,0,1000,250.0,0,C13RH,379,test
1008.6939334869385,2,4,3,0,1,5,H-,1,1,4,0,1000,250.0,1,C13RH,380,test
1169.3150997161865,2,4,3,0,1,5,H-,1,0,3,0,1000,250.0,0,C13RH,381,test
817.1570301055908,2,4,3,0,1,5,H-,1,3,2,0,1000,250.0,3,C13RH,382,test
1119.905948638916,2,4,3,0,1,5,H-,1,5,5,0,1000,250.0,5,C13RH,383,test
736.5081310272217,2,4,3,0,1,5,H-,1,4,1,0,1000,250.0,4,C13RH,384,test
560.2760314941406,2,4,3,0,1,5,H-,1,4,1,0,1000,250.0,4,C13RH,385,test
608.8011264801025,2,4,3,0,1,5,H-,1,3,2,0,1000,250.0,3,C13RH,386,test
960.2968692779541,2,4,3,0,1,5,H-,1,0,3,0,1000,250.0,0,C13RH,387,test
816.8039321899414,2,4,3,0,1,5,H-,1,3,2,0,1000,250.0,3,C13RH,388,test
1776.5510082244873,2,4,3,0,1,5,H-,1,0,3,0,1000,250.0,0,C13RH,389,test
816.3599967956543,2,4,3,0,1,5,H-,1,3,2,0,1000,250.0,3,C13RH,390,test
768.3000564575195,2,4,3,0,1,5,H-,1,0,3,0,1000,250.0,0,C13RH,391,test
592.5660133361816,2,4,3,0,1,5,H-,1,0,3,0,1000,250.0,0,C13RH,392,test
609.0149879455566,2,4,3,0,1,5,H-,1,5,5,0,1000,250.0,5,C13RH,393,test
656.8360328674316,2,4,3,0,1,5,H-,1,3,2,0,1000,250.0,3,C13RH,394,test
816.1289691925049,2,4,3,0,1,5,H-,1,2,0,0,1000,250.0,2,C13RH,395,test
417.0210361480713,2,4,3,0,1,5,H-,1,2,0,0,1000,250.0,2,C13RH,396,test
1392.855167388916,2,4,3,0,1,5,H-,1,1,4,0,1000,250.0,1,C13RH,397,test
736.3619804382324,2,4,3,0,1,5,H-,1,3,2,0,1000,250.0,3,C13RH,398,test
1057.0778846740723,2,4,3,0,1,5,H-,1,2,0,0,1000,250.0,2,C13RH,399,test
528.5899639129639,2,4,3,0,1,5,H-,1,1,4,0,1000,250.0,1,C13RH,400,test
799.4320392608643,2,4,3,0,1,5,H-,1,5,5,0,1000,250.0,5,C13RH,401,test
576.5209197998047,2,4,3,0,1,5,H-,1,5,5,0,1000,250.0,5,C13RH,402,test
1008.1300735473633,2,4,3,0,1,5,H-,1,2,0,0,1000,250.0,2,C13RH,403,test
1120.316982269287,2,4,3,0,1,5,H-,1,4,1,0,1000,250.0,4,C13RH,404,test
784.5590114593506,2,4,3,0,1,5,H-,1,0,3,0,1000,250.0,0,C13RH,405,test
832.3009014129639,2,4,3,0,1,5,H-,1,1,4,0,1000,250.0,1,C13RH,406,test
384.6280574798584,2,4,3,0,1,5,H-,1,2,0,0,1000,250.0,2,C13RH,407,test
656.8620204925537,2,4,3,0,1,5,H-,1,2,0,0,1000,250.0,2,C13RH,408,test
1024.8451232910156,2,4,3,0,1,5,H-,1,5,5,0,1000,250.0,5,C13RH,409,test
1009.0470314025879,2,4,3,0,1,5,H-,1,4,1,0,1000,250.0,4,C13RH,410,test
1039.6950244903564,2,4,3,0,1,5,H-,1,0,3,0,1000,250.0,0,C13RH,411,test
784.6889495849609,2,4,3,0,1,5,H-,1,4,1,0,1000,250.0,4,C13RH,412,test
496.57201766967773,2,4,3,0,1,5,H-,1,4,1,0,1000,250.0,4,C13RH,413,test
432.19900131225586,2,4,3,0,1,5,H-,1,3,2,0,1000,250.0,3,C13RH,414,test
1328.3500671386719,2,4,3,0,1,5,H-,1,5,5,0,1000,250.0,5,C13RH,415,test
464.4179344177246,2,4,3,0,1,5,H-,1,5,5,0,1000,250.0,5,C13RH,416,test
672.5001335144043,2,4,3,0,1,5,H-,1,4,1,0,1000,250.0,4,C13RH,417,test
864.8898601531982,2,4,3,0,1,5,H-,1,2,0,0,1000,250.0,2,C13RH,418,test
592.5509929656982,2,4,3,0,1,5,H-,1,0,3,0,1000,250.0,0,C13RH,419,test
688.9121532440186,2,4,3,0,1,5,H-,1,4,1,0,1000,250.0,4,C13RH,420,test
1248.2390403747559,2,4,3,0,1,5,H-,0,1,4,0,1000,250.0,2,C13RH,421,test
768.2521343231201,2,4,3,0,1,5,H-,1,1,4,0,1000,250.0,1,C13RH,422,test
640.2111053466797,2,4,3,0,1,5,H-,1,4,1,0,1000,250.0,4,C13RH,423,test
1761.0418796539307,2,4,3,0,1,5,H-,1,5,5,0,1000,250.0,5,C13RH,424,test
432.5079917907715,2,4,3,0,1,5,H-,1,5,5,0,1000,250.0,5,C13RH,425,test
591.7401313781738,2,4,3,0,1,5,H-,1,4,1,0,1000,250.0,4,C13RH,426,test
576.484203338623,2,4,3,0,1,5,H-,1,3,2,0,1000,250.0,3,C13RH,427,test
783.4820747375488,2,4,3,0,1,5,H-,1,5,5,0,1000,250.0,5,C13RH,428,test
1184.885025024414,2,4,3,0,1,5,H-,1,2,0,0,1000,250.0,2,C13RH,429,test
864.6700382232666,2,4,3,0,1,5,H-,1,0,3,0,1000,250.0,0,C13RH,430,test
705.9710025787354,2,4,3,0,1,5,H-,1,4,1,0,1000,250.0,4,C13RH,431,test
849.1339683532715,2,4,3,0,1,5,H-,1,5,5,0,1000,250.0,5,C13RH,432,test
1104.7399044036865,2,4,3,0,1,5,H-,1,2,0,0,1000,250.0,2,C13RH,433,test
464.39099311828613,2,4,3,0,1,5,H-,1,2,0,0,1000,250.0,2,C13RH,434,test
640.617847442627,2,4,3,0,1,5,H-,1,4,1,0,1000,250.0,4,C13RH,435,test
1087.1329307556152,2,4,3,0,1,5,H-,1,3,2,0,1000,250.0,3,C13RH,436,test
1552.1550178527832,2,4,3,0,1,5,H-,1,2,0,0,1000,250.0,2,C13RH,437,test
1024.9879360198975,2,4,3,0,1,5,H-,1,1,4,0,1000,250.0,1,C13RH,438,test
800.4798889160156,2,4,3,0,1,5,H-,1,5,5,0,1000,250.0,5,C13RH,439,test
1360.4731559753418,2,4,3,0,1,5,H-,1,1,4,0,1000,250.0,1,C13RH,440,test
832.8700065612793,2,4,3,0,1,5,H-,1,1,4,0,1000,250.0,1,C13RH,441,test
609.03000831604,2,4,3,0,1,5,H-,1,1,4,0,1000,250.0,1,C13RH,442,test
800.5189895629883,2,4,3,0,1,5,H-,1,4,1,0,1000,250.0,4,C13RH,443,test
1296.957015991211,2,4,3,0,1,5,H-,1,0,3,0,1000,250.0,0,C13RH,444,test
640.8228874206543,2,4,3,0,1,5,H-,1,4,1,0,1000,250.0,4,C13RH,445,test
464.8241996765137,2,4,3,0,1,5,H-,1,3,2,0,1000,250.0,3,C13RH,446,test
592.8211212158203,2,4,3,0,1,5,H-,1,3,2,0,1000,250.0,3,C13RH,447,test
2176.584005355835,2,4,3,0,1,5,H-,1,1,4,0,1000,250.0,1,C13RH,448,test
640.423059463501,2,4,3,0,1,5,H-,1,3,2,0,1000,250.0,3,C13RH,449,test
416.31293296813965,2,4,3,0,1,5,H-,1,3,2,0,1000,250.0,3,C13RH,450,test
753.0388832092285,2,4,3,0,1,5,H-,1,3,2,0,1000,250.0,3,C13RH,451,test
672.2390651702881,2,4,3,0,1,5,H-,1,4,1,0,1000,250.0,4,C13RH,452,test
658.2798957824707,2,4,3,0,1,5,H-,1,3,2,0,1000,250.0,3,C13RH,453,test
609.1241836547852,2,4,3,0,1,5,H-,1,0,3,0,1000,250.0,0,C13RH,454,test
368.93200874328613,2,4,3,0,1,5,H-,1,5,5,0,1000,250.0,5,C13RH,455,test
560.5568885803223,2,4,3,0,1,5,H-,1,4,1,0,1000,250.0,4,C13RH,456,test
864.5620346069336,2,4,3,0,1,5,H-,1,2,0,0,1000,250.0,2,C13RH,457,test
896.3730335235596,2,4,3,0,1,5,H-,1,0,3,0,1000,250.0,0,C13RH,458,test
592.9880142211914,2,4,3,0,1,5,H-,1,3,2,0,1000,250.0,3,C13RH,459,test
783.735990524292,2,4,3,0,1,5,H-,1,2,0,0,1000,250.0,2,C13RH,460,test
1152.3890495300293,2,4,3,0,1,5,H-,1,0,3,0,1000,250.0,0,C13RH,461,test
480.15499114990234,2,4,3,0,1,5,H-,1,5,5,0,1000,250.0,5,C13RH,462,test
1056.5171241760254,2,4,3,0,1,5,H-,1,2,0,0,1000,250.0,2,C13RH,463,test
1328.7990093231201,2,4,3,0,1,5,H-,1,4,1,0,1000,250.0,4,C13RH,464,test
1008.5749626159668,2,4,3,0,1,5,H-,1,0,3,0,1000,250.0,0,C13RH,465,test
929.23903465271,2,4,3,0,1,5,H-,1,4,1,0,1000,250.0,4,C13RH,466,test
1056.5381050109863,2,4,3,0,1,5,H-,1,1,4,0,1000,250.0,1,C13RH,467,test
624.2930889129639,2,4,3,0,1,5,H-,0,3,2,0,1000,250.0,4,C13RH,468,test
512.1200084686279,2,4,3,0,1,5,H-,1,3,2,0,1000,250.0,3,C13RH,469,test
864.5040988922119,2,4,3,0,1,5,H-,1,2,0,0,1000,250.0,2,C13RH,470,test
640.9480571746826,2,4,3,0,1,5,H-,1,0,3,0,1000,250.0,0,C13RH,471,test
816.9820308685303,2,4,3,0,1,5,H-,1,4,1,0,1000,250.0,4,C13RH,472,test
1152.897834777832,2,4,3,0,1,5,H-,1,1,4,0,1000,250.0,1,C13RH,473,test
1104.3319702148438,2,4,3,0,1,5,H-,1,1,4,0,1000,250.0,1,C13RH,474,test
880.403995513916,2,4,3,0,1,5,H-,1,5,5,0,1000,250.0,5,C13RH,475,test
961.0090255737305,2,4,3,0,1,5,H-,1,2,0,0,1000,250.0,2,C13RH,476,test
1040.9622192382812,2,4,3,0,1,5,H-,1,2,0,0,1000,250.0,2,C13RH,477,test
672.5380420684814,2,4,3,0,1,5,H-,1,2,0,0,1000,250.0,2,C13RH,478,test
1232.285976409912,2,4,3,0,1,5,H-,1,5,5,0,1000,250.0,5,C13RH,479,test
624.8199939727783,2,4,3,0,1,5,H-,1,0,3,0,1000,250.0,0,C13RH,480,test
960.3710174560547,2,4,3,0,1,5,H-,1,5,5,0,1000,250.0,5,C13RH,481,test
688.8377666473389,2,4,3,0,1,5,H-,1,4,1,0,1000,250.0,4,C13RH,482,test
960.7851505279541,2,4,3,0,1,5,H-,1,5,5,0,1000,250.0,5,C13RH,483,test
896.8000411987305,2,4,3,0,1,5,H-,1,1,4,0,1000,250.0,1,C13RH,484,test
623.6119270324707,2,4,3,0,1,5,H-,1,0,3,0,1000,250.0,0,C13RH,485,test
736.6800308227539,2,4,3,0,1,5,H-,0,2,0,0,1000,250.0,1,C13RH,486,test
736.5570068359375,2,4,3,0,1,5,H-,1,3,2,0,1000,250.0,3,C13RH,487,test
688.5190010070801,2,4,3,0,1,5,H-,1,3,2,0,1000,250.0,3,C13RH,488,test
848.2968807220459,2,4,3,0,1,5,H-,1,1,4,0,1000,250.0,1,C13RH,489,test
767.9018974304199,2,4,3,0,1,5,H-,1,1,4,0,1000,250.0,1,C13RH,490,test
608.544111251831,2,4,3,0,1,5,H-,1,3,2,0,1000,250.0,3,C13RH,491,test
784.5449447631836,2,4,3,0,1,5,H-,1,2,0,0,1000,250.0,2,C13RH,492,test
799.6339797973633,2,4,3,0,1,5,H-,1,2,0,0,1000,250.0,2,C13RH,493,test
704.3850421905518,2,4,3,0,1,5,H-,1,3,2,0,1000,250.0,3,C13RH,494,test
816.1990642547607,2,4,3,0,1,5,H-,1,1,4,0,1000,250.0,1,C13RH,495,test
16.927003860473633,2,4,3,0,1,5,H-,1,1,4,0,1000,250.0,1,C13RH,496,test
976.1638641357422,2,4,3,0,1,5,H-,1,4,1,0,1000,250.0,4,C13RH,497,test
560.8668327331543,2,4,3,0,1,5,H-,1,4,1,0,1000,250.0,4,C13RH,498,test
1248.0030059814453,2,4,3,0,1,5,H-,1,2,0,0,1000,250.0,2,C13RH,499,test
