RT,SRmap_0,SRmap_1,SRmap_2,SRmap_3,SRmap_4,SRmap_5,condition,correct,correct_response,curstim,ms-precue,ms-prestimblank,ntrials,response,subject,trial,type
3760.822057723999,3,0,5,1,4,2,H-,1,1,3,0,1000,250.0,1,d07aw,0,train
11952.798128128052,3,0,5,1,4,2,H-,1,5,2,0,1000,250.0,5,d07aw,1,train
1424.9870777130127,3,0,5,1,4,2,H-,1,0,1,0,1000,250.0,0,d07aw,2,train
1584.9640369415283,3,0,5,1,4,2,H-,1,3,0,0,1000,250.0,3,d07aw,3,train
1393.0079936981201,3,0,5,1,4,2,H-,1,5,2,0,1000,250.0,5,d07aw,4,train
1009.0909004211426,3,0,5,1,4,2,H-,0,2,5,0,1000,250.0,1,d07aw,5,train
1985.0280284881592,3,0,5,1,4,2,H-,1,4,4,0,1000,250.0,4,d07aw,6,train
2081.1309814453125,3,0,5,1,4,2,H-,1,2,5,0,1000,250.0,2,d07aw,7,train
1153.1739234924316,3,0,5,1,4,2,H-,1,1,3,0,1000,250.0,1,d07aw,8,train
1024.9230861663818,3,0,5,1,4,2,H-,1,0,1,0,1000,250.0,0,d07aw,9,train
1041.1570072174072,3,0,5,1,4,2,H-,1,2,5,0,1000,250.0,2,d07aw,10,train
1585.1128101348877,3,0,5,1,4,2,H-,1,3,0,0,1000,250.0,3,d07aw,11,train
817.1050548553467,3,0,5,1,4,2,H-,1,3,0,0,1000,250.0,3,d07aw,12,train
1201.0071277618408,3,0,5,1,4,2,H-,1,5,2,0,1000,250.0,5,d07aw,13,train
769.0658569335938,3,0,5,1,4,2,H-,1,2,5,0,1000,250.0,2,d07aw,14,train
929.0931224822998,3,0,5,1,4,2,H-,1,1,3,0,1000,250.0,1,d07aw,15,train
1153.0218124389648,3,0,5,1,4,2,H-,1,0,1,0,1000,250.0,0,d07aw,16,train
961.0681533813477,3,0,5,1,4,2,H-,1,3,0,0,1000,250.0,3,d07aw,17,train
881.1180591583252,3,0,5,1,4,2,H-,1,2,5,0,1000,250.0,2,d07aw,18,train
1360.9769344329834,3,0,5,1,4,2,H-,1,4,4,0,1000,250.0,4,d07aw,19,train
817.1370029449463,3,0,5,1,4,2,H-,1,3,0,0,1000,250.0,3,d07aw,20,train
1152.8759002685547,3,0,5,1,4,2,H-,1,0,1,0,1000,250.0,0,d07aw,21,train
1089.1611576080322,3,0,5,1,4,2,H-,1,3,0,0,1000,250.0,3,d07aw,22,train
961.155891418457,3,0,5,1,4,2,H-,1,1,3,0,1000,250.0,1,d07aw,23,train
736.9871139526367,3,0,5,1,4,2,H-,1,2,5,0,1000,250.0,2,d07aw,24,train
849.074125289917,3,0,5,1,4,2,H-,1,3,0,0,1000,250.0,3,d07aw,25,train
721.1430072784424,3,0,5,1,4,2,H-,1,2,5,0,1000,250.0,2,d07aw,26,train
689.1019344329834,3,0,5,1,4,2,H-,1,2,5,0,1000,250.0,2,d07aw,27,train
1025.0449180603027,3,0,5,1,4,2,H-,1,4,4,0,1000,250.0,4,d07aw,28,train
785.0110530853271,3,0,5,1,4,2,H-,1,2,5,0,1000,250.0,2,d07aw,29,train
1041.1550998687744,3,0,5,1,4,2,H-,1,0,1,0,1000,250.0,0,d07aw,30,train
752.9020309448242,3,0,5,1,4,2,H-,1,0,1,0,1000,250.0,0,d07aw,31,train
1249.1328716278076,3,0,5,1,4,2,H-,1,4,4,0,1000,250.0,4,d07aw,32,train
977.1637916564941,3,0,5,1,4,2,H-,1,5,2,0,1000,250.0,5,d07aw,33,train
961.1139297485352,3,0,5,1,4,2,H-,1,0,1,0,1000,250.0,0,d07aw,34,train
1281.0959815979004,3,0,5,1,4,2,H-,1,4,4,0,1000,250.0,4,d07aw,35,train
785.2327823638916,3,0,5,1,4,2,H-,1,3,0,0,1000,250.0,3,d07aw,36,train
593.1131839752197,3,0,5,1,4,2,H-,1,3,0,0,1000,250.0,3,d07aw,37,train
1041.1100387573242,3,0,5,1,4,2,H-,1,5,2,0,1000,250.0,5,d07aw,38,train
1137.1240615844727,3,0,5,1,4,2,H-,1,3,0,0,1000,250.0,3,d07aw,39,train
897.1390724182129,3,0,5,1,4,2,H-,1,0,1,0,1000,250.0,0,d07aw,40,train
945.2340602874756,3,0,5,1,4,2,H-,1,4,4,0,1000,250.0,4,d07aw,41,train
593.1680202484131,3,0,5,1,4,2,H-,1,3,0,0,1000,250.0,3,d07aw,42,train
881.2191486358643,3,0,5,1,4,2,H-,1,5,2,0,1000,250.0,5,d07aw,43,train
785.0918769836426,3,0,5,1,4,2,H-,1,5,2,0,1000,250.0,5,d07aw,44,train
1120.7811832427979,3,0,5,1,4,2,H-,1,0,1,0,1000,250.0,0,d07aw,45,train
848.538875579834,3,0,5,1,4,2,H-,1,5,2,0,1000,250.0,5,d07aw,46,train
768.7649726867676,3,0,5,1,4,2,H-,1,5,2,0,1000,250.0,5,d07aw,47,train
960.7589244842529,3,0,5,1,4,2,H-,1,1,3,0,1000,250.0,1,d07aw,48,train
624.6218681335449,3,0,5,1,4,2,H-,1,2,5,0,1000,250.0,2,d07aw,49,train
672.7409362792969,3,0,5,1,4,2,H-,1,1,3,0,1000,250.0,1,d07aw,50,train
544.7239875793457,3,0,5,1,4,2,H-,1,1,3,0,1000,250.0,1,d07aw,51,train
592.6649570465088,3,0,5,1,4,2,H-,1,1,3,0,1000,250.0,1,d07aw,52,train
640.761137008667,3,0,5,1,4,2,H-,1,4,4,0,1000,250.0,4,d07aw,53,train
608.7169647216797,3,0,5,1,4,2,H-,1,5,2,0,1000,250.0,5,d07aw,54,train
496.72985076904297,3,0,5,1,4,2,H-,1,0,1,0,1000,250.0,0,d07aw,55,train
432.68680572509766,3,0,5,1,4,2,H-,1,0,1,0,1000,250.0,0,d07aw,56,train
416.672945022583,3,0,5,1,4,2,H-,1,0,1,0,1000,250.0,0,d07aw,57,train
656.7320823669434,3,0,5,1,4,2,H-,0,2,5,0,1000,250.0,1,d07aw,58,train
1456.6550254821777,3,0,5,1,4,2,H-,1,2,5,0,1000,250.0,2,d07aw,59,train
528.7320613861084,3,0,5,1,4,2,H-,1,1,3,0,1000,250.0,1,d07aw,60,train
672.6870536804199,3,0,5,1,4,2,H-,1,4,4,0,1000,250.0,4,d07aw,61,train
688.7238025665283,3,0,5,1,4,2,H-,0,2,5,0,1000,250.0,1,d07aw,62,train
976.7148494720459,3,0,5,1,4,2,H-,1,4,4,0,1000,250.0,4,d07aw,63,train
656.6488742828369,3,0,5,1,4,2,H-,1,3,0,0,1000,250.0,3,d07aw,64,train
752.6240348815918,3,0,5,1,4,2,H-,1,4,4,0,1000,250.0,4,d07aw,65,train
576.7421722412109,3,0,5,1,4,2,H-,1,0,1,0,1000,250.0,0,d07aw,66,train
912.757158279419,3,0,5,1,4,2,H-,1,3,0,0,1000,250.0,3,d07aw,67,train
496.722936630249,3,0,5,1,4,2,H-,1,1,3,0,1000,250.0,1,d07aw,68,train
560.6908798217773,3,0,5,1,4,2,H-,1,5,2,0,1000,250.0,5,d07aw,69,train
656.7261219024658,3,0,5,1,4,2,H-,1,1,3,0,1000,250.0,1,d07aw,70,train
496.4759349822998,3,0,5,1,4,2,H-,1,0,1,0,1000,250.0,0,d07aw,71,train
544.6748733520508,3,0,5,1,4,2,H-,1,1,3,0,1000,250.0,1,d07aw,72,train
704.7131061553955,3,0,5,1,4,2,H-,1,2,5,0,1000,250.0,2,d07aw,73,train
608.7088584899902,3,0,5,1,4,2,H-,1,3,0,0,1000,250.0,3,d07aw,74,train
592.7259922027588,3,0,5,1,4,2,H-,1,1,3,0,1000,250.0,1,d07aw,75,train
608.7570190429688,3,0,5,1,4,2,H-,1,1,3,0,1000,250.0,1,d07aw,76,train
592.6368236541748,3,0,5,1,4,2,H-,1,4,4,0,1000,250.0,4,d07aw,77,train
496.7529773712158,3,0,5,1,4,2,H-,0,1,3,0,1000,250.0,2,d07aw,78,train
528.6481380462646,3,0,5,1,4,2,H-,1,1,3,0,1000,250.0,1,d07aw,79,train
688.7640953063965,3,0,5,1,4,2,H-,1,2,5,0,1000,250.0,2,d07aw,80,train
544.7390079498291,3,0,5,1,4,2,H-,1,5,2,0,1000,250.0,5,d07aw,81,train
624.7260570526123,3,0,5,1,4,2,H-,1,4,4,0,1000,250.0,4,d07aw,82,train
512.7460956573486,3,0,5,1,4,2,H-,1,4,4,0,1000,250.0,4,d07aw,83,train
544.7230339050293,3,0,5,1,4,2,H-,1,0,1,0,1000,250.0,0,d07aw,84,train
608.7479591369629,3,0,5,1,4,2,H-,1,3,0,0,1000,250.0,3,d07aw,85,train
464.663028717041,3,0,5,1,4,2,H-,1,3,0,0,1000,250.0,3,d07aw,86,train
528.7489891052246,3,0,5,1,4,2,H-,1,5,2,0,1000,250.0,5,d07aw,87,train
688.7989044189453,3,0,5,1,4,2,H-,0,2,5,0,1000,250.0,1,d07aw,88,train
672.6460456848145,3,0,5,1,4,2,H-,1,3,0,0,1000,250.0,3,d07aw,89,train
496.57487869262695,3,0,5,1,4,2,H-,1,4,4,0,1000,250.0,4,d07aw,90,train
1200.7181644439697,3,0,5,1,4,2,H-,1,1,3,0,1000,250.0,1,d07aw,91,train
736.7761135101318,3,0,5,1,4,2,H-,1,3,0,0,1000,250.0,3,d07aw,92,train
448.7321376800537,3,0,5,1,4,2,H-,0,2,5,0,1000,250.0,1,d07aw,93,train
768.7151432037354,3,0,5,1,4,2,H-,1,2,5,0,1000,250.0,2,d07aw,94,train
560.7190132141113,3,0,5,1,4,2,H-,1,3,0,0,1000,250.0,3,d07aw,95,train
752.6850700378418,3,0,5,1,4,2,H-,1,3,0,0,1000,250.0,3,d07aw,96,train
528.7380218505859,3,0,5,1,4,2,H-,1,4,4,0,1000,250.0,4,d07aw,97,train
864.7980690002441,3,0,5,1,4,2,H-,1,3,0,0,1000,250.0,3,d07aw,98,train
464.74385261535645,3,0,5,1,4,2,H-,1,3,0,0,1000,250.0,3,d07aw,99,train
496.7830181121826,3,0,5,1,4,2,H-,1,2,5,0,1000,250.0,2,d07aw,100,train
352.68712043762207,3,0,5,1,4,2,H-,1,1,3,0,1000,250.0,1,d07aw,101,train
528.674840927124,3,0,5,1,4,2,H-,1,2,5,0,1000,250.0,2,d07aw,102,train
512.6001834869385,3,0,5,1,4,2,H-,1,4,4,0,1000,250.0,4,d07aw,103,train
528.7442207336426,3,0,5,1,4,2,H-,1,5,2,0,1000,250.0,5,d07aw,104,train
609.0388298034668,3,0,5,1,4,2,H-,0,3,0,0,1000,250.0,2,d07aw,105,train
560.6701374053955,3,0,5,1,4,2,H-,1,5,2,0,1000,250.0,5,d07aw,106,train
512.4959945678711,3,0,5,1,4,2,H-,1,4,4,0,1000,250.0,4,d07aw,107,train
608.9389324188232,3,0,5,1,4,2,H-,1,3,0,0,1000,250.0,3,d07aw,108,train
640.9480571746826,3,0,5,1,4,2,H-,1,2,5,0,1000,250.0,2,d07aw,109,train
608.9470386505127,3,0,5,1,4,2,H-,1,3,0,0,1000,250.0,3,d07aw,110,train
544.9509620666504,3,0,5,1,4,2,H-,1,1,3,0,1000,250.0,1,d07aw,111,train
560.9278678894043,3,0,5,1,4,2,H-,1,2,5,0,1000,250.0,2,d07aw,112,train
560.7287883758545,3,0,5,1,4,2,H-,1,1,3,0,1000,250.0,1,d07aw,113,train
576.6260623931885,3,0,5,1,4,2,H-,1,5,2,0,1000,250.0,5,d07aw,114,train
592.7059650421143,3,0,5,1,4,2,H-,1,4,4,0,1000,250.0,4,d07aw,115,train
545.0470447540283,3,0,5,1,4,2,H-,1,5,2,0,1000,250.0,5,d07aw,116,train
496.9971179962158,3,0,5,1,4,2,H-,1,3,0,0,1000,250.0,3,d07aw,117,train
464.97392654418945,3,0,5,1,4,2,H-,1,3,0,0,1000,250.0,3,d07aw,118,train
1744.8859214782715,3,0,5,1,4,2,H-,1,3,0,0,1000,250.0,3,d07aw,119,train
432.7991008758545,3,0,5,1,4,2,H-,1,3,0,0,1000,250.0,3,d07aw,120,train
560.7728958129883,3,0,5,1,4,2,H-,1,5,2,0,1000,250.0,5,d07aw,121,train
512.9001140594482,3,0,5,1,4,2,H-,1,4,4,0,1000,250.0,4,d07aw,122,train
544.975996017456,3,0,5,1,4,2,H-,1,3,0,0,1000,250.0,3,d07aw,123,train
688.0490779876709,3,0,5,1,4,2,H-,1,4,4,0,1000,250.0,4,d07aw,124,train
624.9599456787109,3,0,5,1,4,2,H-,1,1,3,0,1000,250.0,1,d07aw,125,train
576.9858360290527,3,0,5,1,4,2,H-,1,4,4,0,1000,250.0,4,d07aw,126,train
608.7639331817627,3,0,5,1,4,2,H-,1,5,2,0,1000,250.0,5,d07aw,127,train
528.5401344299316,3,0,5,1,4,2,H-,1,5,2,0,1000,250.0,5,d07aw,128,train
464.73193168640137,3,0,5,1,4,2,H-,0,4,4,0,1000,250.0,5,d07aw,129,train
592.9958820343018,3,0,5,1,4,2,H-,1,0,1,0,1000,250.0,0,d07aw,130,train
544.9421405792236,3,0,5,1,4,2,H-,1,4,4,0,1000,250.0,4,d07aw,131,train
496.9360828399658,3,0,5,1,4,2,H-,1,0,1,0,1000,250.0,0,d07aw,132,train
624.7680187225342,3,0,5,1,4,2,H-,1,1,3,0,1000,250.0,1,d07aw,133,train
560.7991218566895,3,0,5,1,4,2,H-,1,5,2,0,1000,250.0,5,d07aw,134,train
432.7049255371094,3,0,5,1,4,2,H-,1,5,2,0,1000,250.0,5,d07aw,135,train
592.6189422607422,3,0,5,1,4,2,H-,1,3,0,0,1000,250.0,3,d07aw,136,train
480.7620048522949,3,0,5,1,4,2,H-,1,3,0,0,1000,250.0,3,d07aw,137,train
480.7159900665283,3,0,5,1,4,2,H-,1,0,1,0,1000,250.0,0,d07aw,138,train
560.7380867004395,3,0,5,1,4,2,H-,1,1,3,0,1000,250.0,1,d07aw,139,train
480.6849956512451,3,0,5,1,4,2,H-,1,3,0,0,1000,250.0,3,d07aw,140,train
544.7421073913574,3,0,5,1,4,2,H-,1,1,3,0,1000,250.0,1,d07aw,141,train
320.69993019104004,3,0,5,1,4,2,H-,1,2,5,0,1000,250.0,2,d07aw,142,train
576.746940612793,3,0,5,1,4,2,H-,1,5,2,0,1000,250.0,5,d07aw,143,train
448.7640857696533,3,0,5,1,4,2,H-,1,5,2,0,1000,250.0,5,d07aw,144,train
416.7330265045166,3,0,5,1,4,2,H-,1,5,2,0,1000,250.0,5,d07aw,145,train
592.6949977874756,3,0,5,1,4,2,H-,1,2,5,0,1000,250.0,2,d07aw,146,train
576.9550800323486,3,0,5,1,4,2,H-,1,1,3,0,1000,250.0,1,d07aw,147,train
608.7520122528076,3,0,5,1,4,2,H-,1,4,4,0,1000,250.0,4,d07aw,148,train
1552.7310371398926,3,0,5,1,4,2,H-,1,1,3,0,1000,250.0,1,d07aw,149,train
560.7938766479492,3,0,5,1,4,2,H-,1,5,2,0,1000,250.0,5,d07aw,150,train
592.7751064300537,3,0,5,1,4,2,H-,1,2,5,0,1000,250.0,2,d07aw,151,train
528.7270545959473,3,0,5,1,4,2,H-,1,3,0,0,1000,250.0,3,d07aw,152,train
672.7499961853027,3,0,5,1,4,2,H-,1,3,0,0,1000,250.0,3,d07aw,153,train
736.7579936981201,3,0,5,1,4,2,H-,1,1,3,0,1000,250.0,1,d07aw,154,train
592.7131175994873,3,0,5,1,4,2,H-,1,4,4,0,1000,250.0,4,d07aw,155,train
848.7319946289062,3,0,5,1,4,2,H-,1,1,3,0,1000,250.0,1,d07aw,156,train
512.7201080322266,3,0,5,1,4,2,H-,1,4,4,0,1000,250.0,4,d07aw,157,train
576.7521858215332,3,0,5,1,4,2,H-,1,1,3,0,1000,250.0,1,d07aw,158,train
544.7759628295898,3,0,5,1,4,2,H-,1,3,0,0,1000,250.0,3,d07aw,159,train
544.7380542755127,3,0,5,1,4,2,H-,1,4,4,0,1000,250.0,4,d07aw,160,train
640.4979228973389,3,0,5,1,4,2,H-,1,1,3,0,1000,250.0,1,d07aw,161,train
576.7309665679932,3,0,5,1,4,2,H-,1,2,5,0,1000,250.0,2,d07aw,162,train
609.0209484100342,3,0,5,1,4,2,H-,1,3,0,0,1000,250.0,3,d07aw,163,train
736.299991607666,3,0,5,1,4,2,H-,1,1,3,0,1000,250.0,1,d07aw,164,train
560.7359409332275,3,0,5,1,4,2,H-,1,5,2,0,1000,250.0,5,d07aw,165,train
464.94078636169434,3,0,5,1,4,2,H-,1,3,0,0,1000,250.0,3,d07aw,166,train
576.9670009613037,3,0,5,1,4,2,H-,1,1,3,0,1000,250.0,1,d07aw,167,train
512.7158164978027,3,0,5,1,4,2,H-,1,1,3,0,1000,250.0,1,d07aw,168,train
496.72698974609375,3,0,5,1,4,2,H-,1,3,0,0,1000,250.0,3,d07aw,169,train
688.7948513031006,3,0,5,1,4,2,H-,1,2,5,0,1000,250.0,2,d07aw,170,train
512.7458572387695,3,0,5,1,4,2,H-,1,5,2,0,1000,250.0,5,d07aw,171,train
560.7450008392334,3,0,5,1,4,2,H-,1,0,1,0,1000,250.0,0,d07aw,172,train
560.715913772583,3,0,5,1,4,2,H-,1,4,4,0,1000,250.0,4,d07aw,173,train
480.72099685668945,3,0,5,1,4,2,H-,1,0,1,0,1000,250.0,0,d07aw,174,train
544.3921089172363,3,0,5,1,4,2,H-,1,4,4,0,1000,250.0,4,d07aw,175,train
576.7309665679932,3,0,5,1,4,2,H-,1,1,3,0,1000,250.0,1,d07aw,176,train
560.7280731201172,3,0,5,1,4,2,H-,1,0,1,0,1000,250.0,0,d07aw,177,train
416.66483879089355,3,0,5,1,4,2,H-,0,3,0,0,1000,250.0,4,d07aw,178,train
624.6590614318848,3,0,5,1,4,2,H-,1,3,0,0,1000,250.0,3,d07aw,179,train
432.57808685302734,3,0,5,1,4,2,H-,1,3,0,0,1000,250.0,3,d07aw,180,train
480.6540012359619,3,0,5,1,4,2,H-,1,0,1,0,1000,250.0,0,d07aw,181,train
512.376070022583,3,0,5,1,4,2,H-,1,5,2,0,1000,250.0,5,d07aw,182,train
496.95420265197754,3,0,5,1,4,2,H-,1,5,2,0,1000,250.0,5,d07aw,183,train
496.8600273132324,3,0,5,1,4,2,H-,1,1,3,0,1000,250.0,1,d07aw,184,train
576.8940448760986,3,0,5,1,4,2,H-,1,4,4,0,1000,250.0,4,d07aw,185,train
497.0588684082031,3,0,5,1,4,2,H-,1,3,0,0,1000,250.0,3,d07aw,186,train
448.95291328430176,3,0,5,1,4,2,H-,0,5,2,0,1000,250.0,4,d07aw,187,train
512.9120349884033,3,0,5,1,4,2,H-,1,4,4,0,1000,250.0,4,d07aw,188,train
544.9421405792236,3,0,5,1,4,2,H-,1,3,0,0,1000,250.0,3,d07aw,189,train
416.9619083404541,3,0,5,1,4,2,H-,1,5,2,0,1000,250.0,5,d07aw,190,train
416.89491271972656,3,0,5,1,4,2,H-,1,5,2,0,1000,250.0,5,d07aw,191,train
528.9409160614014,3,0,5,1,4,2,H-,1,4,4,0,1000,250.0,4,d07aw,192,train
640.998125076294,3,0,5,1,4,2,H-,1,2,5,0,1000,250.0,2,d07aw,193,train
560.8870983123779,3,0,5,1,4,2,H-,1,2,5,0,1000,250.0,2,d07aw,194,train
352.94413566589355,3,0,5,1,4,2,H-,1,2,5,0,1000,250.0,2,d07aw,195,train
592.9350852966309,3,0,5,1,4,2,H-,1,5,2,0,1000,250.0,5,d07aw,196,train
560.9269142150879,3,0,5,1,4,2,H-,1,2,5,0,1000,250.0,2,d07aw,197,train
736.7439270019531,3,0,5,1,4,2,H-,1,3,0,0,1000,250.0,3,d07aw,198,train
576.483964920044,3,0,5,1,4,2,H-,1,5,2,0,1000,250.0,5,d07aw,199,train
464.62392807006836,3,0,5,1,4,2,H-,1,5,2,0,1000,250.0,5,d07aw,200,train
544.7430610656738,3,0,5,1,4,2,H-,1,2,5,0,1000,250.0,2,d07aw,201,train
528.6769866943359,3,0,5,1,4,2,H-,1,0,1,0,1000,250.0,0,d07aw,202,train
480.70406913757324,3,0,5,1,4,2,H-,1,0,1,0,1000,250.0,0,d07aw,203,train
544.7671413421631,3,0,5,1,4,2,H-,1,5,2,0,1000,250.0,5,d07aw,204,train
912.6870632171631,3,0,5,1,4,2,H-,1,1,3,0,1000,250.0,1,d07aw,205,train
320.72997093200684,3,0,5,1,4,2,H-,1,1,3,0,1000,250.0,1,d07aw,206,train
496.6869354248047,3,0,5,1,4,2,H-,1,5,2,0,1000,250.0,5,d07aw,207,train
640.7887935638428,3,0,5,1,4,2,H-,1,2,5,0,1000,250.0,2,d07aw,208,train
448.61507415771484,3,0,5,1,4,2,H-,1,5,2,0,1000,250.0,5,d07aw,209,train
704.9729824066162,3,0,5,1,4,2,H-,1,4,4,0,1000,250.0,4,d07aw,210,train
608.983039855957,3,0,5,1,4,2,H-,1,1,3,0,1000,250.0,1,d07aw,211,train
817.1710968017578,3,0,5,1,4,2,H-,1,2,5,0,1000,250.0,2,d07aw,212,train
465.1029109954834,3,0,5,1,4,2,H-,1,4,4,0,1000,250.0,4,d07aw,213,train
897.1920013427734,3,0,5,1,4,2,H-,1,5,2,0,1000,250.0,5,d07aw,214,train
480.9579849243164,3,0,5,1,4,2,H-,1,0,1,0,1000,250.0,0,d07aw,215,train
512.9940509796143,3,0,5,1,4,2,H-,1,1,3,0,1000,250.0,1,d07aw,216,train
608.9670658111572,3,0,5,1,4,2,H-,1,2,5,0,1000,250.0,2,d07aw,217,train
481.0218811035156,3,0,5,1,4,2,H-,1,0,1,0,1000,250.0,0,d07aw,218,train
593.0061340332031,3,0,5,1,4,2,H-,1,4,4,0,1000,250.0,4,d07aw,219,train
496.8829154968262,3,0,5,1,4,2,H-,1,0,1,0,1000,250.0,0,d07aw,220,train
337.1138572692871,3,0,5,1,4,2,H-,1,4,4,0,1000,250.0,4,d07aw,221,train
448.901891708374,3,0,5,1,4,2,H-,1,0,1,0,1000,250.0,0,d07aw,222,train
304.92591857910156,3,0,5,1,4,2,H-,1,4,4,0,1000,250.0,4,d07aw,223,train
608.6380481719971,3,0,5,1,4,2,H-,1,1,3,0,1000,250.0,1,d07aw,224,train
464.7049903869629,3,0,5,1,4,2,H-,1,2,5,0,1000,250.0,2,d07aw,225,train
512.7251148223877,3,0,5,1,4,2,H-,1,2,5,0,1000,250.0,2,d07aw,226,train
512.7339363098145,3,0,5,1,4,2,H-,1,5,2,0,1000,250.0,5,d07aw,227,train
400.7530212402344,3,0,5,1,4,2,H-,1,5,2,0,1000,250.0,5,d07aw,228,train
672.7499961853027,3,0,5,1,4,2,H-,1,2,5,0,1000,250.0,2,d07aw,229,train
480.72004318237305,3,0,5,1,4,2,H-,1,0,1,0,1000,250.0,0,d07aw,230,train
608.7398529052734,3,0,5,1,4,2,H-,1,3,0,0,1000,250.0,3,d07aw,231,train
448.7500190734863,3,0,5,1,4,2,H-,1,4,4,0,1000,250.0,4,d07aw,232,train
544.7490215301514,3,0,5,1,4,2,H-,1,1,3,0,1000,250.0,1,d07aw,233,train
608.7319850921631,3,0,5,1,4,2,H-,1,3,0,0,1000,250.0,3,d07aw,234,train
688.7428760528564,3,0,5,1,4,2,H-,1,3,0,0,1000,250.0,3,d07aw,235,train
464.4160270690918,3,0,5,1,4,2,H-,1,3,0,0,1000,250.0,3,d07aw,236,train
896.7390060424805,3,0,5,1,4,2,H-,1,2,5,0,1000,250.0,2,d07aw,237,train
592.7150249481201,3,0,5,1,4,2,H-,1,3,0,0,1000,250.0,3,d07aw,238,train
560.621976852417,3,0,5,1,4,2,H-,1,0,1,0,1000,250.0,0,d07aw,239,train
496.58203125,3,0,5,1,4,2,H-,1,3,0,0,1000,250.0,3,d07aw,240,train
592.764139175415,3,0,5,1,4,2,H-,1,2,5,0,1000,250.0,2,d07aw,241,train
496.751070022583,3,0,5,1,4,2,H-,1,1,3,0,1000,250.0,1,d07aw,242,train
448.760986328125,3,0,5,1,4,2,H-,1,4,4,0,1000,250.0,4,d07aw,243,train
400.72107315063477,3,0,5,1,4,2,H-,1,4,4,0,1000,250.0,4,d07aw,244,train
512.6650333404541,3,0,5,1,4,2,H-,1,2,5,0,1000,250.0,2,d07aw,245,train
464.74409103393555,3,0,5,1,4,2,H-,1,2,5,0,1000,250.0,2,d07aw,246,train
496.7620372772217,3,0,5,1,4,2,H-,1,4,4,0,1000,250.0,4,d07aw,247,train
544.741153717041,3,0,5,1,4,2,H-,1,3,0,0,1000,250.0,3,d07aw,248,train
464.709997177124,3,0,5,1,4,2,H-,1,3,0,0,1000,250.0,3,d07aw,249,train
4288.633108139038,5,1,4,0,3,2,H-,1,4,2,0,1000,250.0,4,d07aw,250,test
1472.7270603179932,5,1,4,0,3,2,H-,1,3,4,0,1000,250.0,3,d07aw,251,test
400.73108673095703,5,1,4,0,3,2,H-,1,3,4,0,1000,250.0,3,d07aw,252,test
368.67618560791016,5,1,4,0,3,2,H-,1,1,1,0,1000,250.0,1,d07aw,253,test
608.6461544036865,5,1,4,0,3,2,H-,0,5,0,0,1000,250.0,3,d07aw,254,test
848.7000465393066,5,1,4,0,3,2,H-,1,2,5,0,1000,250.0,2,d07aw,255,test
448.66204261779785,5,1,4,0,3,2,H-,1,2,5,0,1000,250.0,2,d07aw,256,test
784.6488952636719,5,1,4,0,3,2,H-,1,0,3,0,1000,250.0,0,d07aw,257,test
944.8091983795166,5,1,4,0,3,2,H-,1,5,0,0,1000,250.0,5,d07aw,258,test
1088.7930393218994,5,1,4,0,3,2,H-,1,0,3,0,1000,250.0,0,d07aw,259,test
928.7528991699219,5,1,4,0,3,2,H-,1,4,2,0,1000,250.0,4,d07aw,260,test
784.7270965576172,5,1,4,0,3,2,H-,1,3,4,0,1000,250.0,3,d07aw,261,test
976.7098426818848,5,1,4,0,3,2,H-,1,4,2,0,1000,250.0,4,d07aw,262,test
576.7199993133545,5,1,4,0,3,2,H-,1,1,1,0,1000,250.0,1,d07aw,263,test
544.640064239502,5,1,4,0,3,2,H-,1,1,1,0,1000,250.0,1,d07aw,264,test
624.6359348297119,5,1,4,0,3,2,H-,1,2,5,0,1000,250.0,2,d07aw,265,test
720.7849025726318,5,1,4,0,3,2,H-,1,4,2,0,1000,250.0,4,d07aw,266,test
848.6928939819336,5,1,4,0,3,2,H-,1,3,4,0,1000,250.0,3,d07aw,267,test
656.7981243133545,5,1,4,0,3,2,H-,1,2,5,0,1000,250.0,2,d07aw,268,test
960.6599807739258,5,1,4,0,3,2,H-,1,2,5,0,1000,250.0,2,d07aw,269,test
688.532829284668,5,1,4,0,3,2,H-,1,3,4,0,1000,250.0,3,d07aw,270,test
1008.8169574737549,5,1,4,0,3,2,H-,0,0,3,0,1000,250.0,1,d07aw,271,test
400.6989002227783,5,1,4,0,3,2,H-,1,0,3,0,1000,250.0,0,d07aw,272,test
336.7350101470947,5,1,4,0,3,2,H-,1,1,1,0,1000,250.0,1,d07aw,273,test
592.7600860595703,5,1,4,0,3,2,H-,0,5,0,0,1000,250.0,3,d07aw,274,test
432.71803855895996,5,1,4,0,3,2,H-,1,5,0,0,1000,250.0,5,d07aw,275,test
976.6268730163574,5,1,4,0,3,2,H-,1,2,5,0,1000,250.0,2,d07aw,276,test
544.7630882263184,5,1,4,0,3,2,H-,1,2,5,0,1000,250.0,2,d07aw,277,test
576.7059326171875,5,1,4,0,3,2,H-,1,1,1,0,1000,250.0,1,d07aw,278,test
320.6911087036133,5,1,4,0,3,2,H-,1,0,3,0,1000,250.0,0,d07aw,279,test
320.72901725769043,5,1,4,0,3,2,H-,1,0,3,0,1000,250.0,0,d07aw,280,test
320.7051753997803,5,1,4,0,3,2,H-,1,1,1,0,1000,250.0,1,d07aw,281,test
496.7470169067383,5,1,4,0,3,2,H-,1,1,1,0,1000,250.0,1,d07aw,282,test
816.7011737823486,5,1,4,0,3,2,H-,1,4,2,0,1000,250.0,4,d07aw,283,test
688.7850761413574,5,1,4,0,3,2,H-,1,2,5,0,1000,250.0,2,d07aw,284,test
736.7169857025146,5,1,4,0,3,2,H-,1,0,3,0,1000,250.0,0,d07aw,285,test
672.7769374847412,5,1,4,0,3,2,H-,1,4,2,0,1000,250.0,4,d07aw,286,test
432.73210525512695,5,1,4,0,3,2,H-,0,2,5,0,1000,250.0,0,d07aw,287,test
608.6771488189697,5,1,4,0,3,2,H-,1,1,1,0,1000,250.0,1,d07aw,288,test
592.7319526672363,5,1,4,0,3,2,H-,1,0,3,0,1000,250.0,0,d07aw,289,test
560.7030391693115,5,1,4,0,3,2,H-,1,0,3,0,1000,250.0,0,d07aw,290,test
512.7489566802979,5,1,4,0,3,2,H-,1,4,2,0,1000,250.0,4,d07aw,291,test
864.7902011871338,5,1,4,0,3,2,H-,1,5,0,0,1000,250.0,5,d07aw,292,test
816.7819976806641,5,1,4,0,3,2,H-,1,2,5,0,1000,250.0,2,d07aw,293,test
720.7469940185547,5,1,4,0,3,2,H-,1,3,4,0,1000,250.0,3,d07aw,294,test
560.711145401001,5,1,4,0,3,2,H-,1,0,3,0,1000,250.0,0,d07aw,295,test
560.7569217681885,5,1,4,0,3,2,H-,1,2,5,0,1000,250.0,2,d07aw,296,test
624.7439384460449,5,1,4,0,3,2,H-,1,0,3,0,1000,250.0,0,d07aw,297,test
432.7199459075928,5,1,4,0,3,2,H-,1,4,2,0,1000,250.0,4,d07aw,298,test
720.5860614776611,5,1,4,0,3,2,H-,1,2,5,0,1000,250.0,2,d07aw,299,test
496.6859817504883,5,1,4,0,3,2,H-,1,1,1,0,1000,250.0,1,d07aw,300,test
592.7538871765137,5,1,4,0,3,2,H-,1,4,2,0,1000,250.0,4,d07aw,301,test
400.73490142822266,5,1,4,0,3,2,H-,1,4,2,0,1000,250.0,4,d07aw,302,test
384.7060203552246,5,1,4,0,3,2,H-,1,4,2,0,1000,250.0,4,d07aw,303,test
608.7579727172852,5,1,4,0,3,2,H-,1,2,5,0,1000,250.0,2,d07aw,304,test
864.7820949554443,5,1,4,0,3,2,H-,1,5,0,0,1000,250.0,5,d07aw,305,test
624.7830390930176,5,1,4,0,3,2,H-,1,1,1,0,1000,250.0,1,d07aw,306,test
1024.7559547424316,5,1,4,0,3,2,H-,1,5,0,0,1000,250.0,5,d07aw,307,test
480.7589054107666,5,1,4,0,3,2,H-,1,5,0,0,1000,250.0,5,d07aw,308,test
576.754093170166,5,1,4,0,3,2,H-,1,1,1,0,1000,250.0,1,d07aw,309,test
640.7439708709717,5,1,4,0,3,2,H-,1,2,5,0,1000,250.0,2,d07aw,310,test
592.6640033721924,5,1,4,0,3,2,H-,1,0,3,0,1000,250.0,0,d07aw,311,test
432.7380657196045,5,1,4,0,3,2,H-,1,2,5,0,1000,250.0,2,d07aw,312,test
528.7570953369141,5,1,4,0,3,2,H-,1,2,5,0,1000,250.0,2,d07aw,313,test
496.7050552368164,5,1,4,0,3,2,H-,1,1,1,0,1000,250.0,1,d07aw,314,test
640.7420635223389,5,1,4,0,3,2,H-,1,3,4,0,1000,250.0,3,d07aw,315,test
752.0911693572998,5,1,4,0,3,2,H-,1,0,3,0,1000,250.0,0,d07aw,316,test
512.768030166626,5,1,4,0,3,2,H-,1,4,2,0,1000,250.0,4,d07aw,317,test
544.7080135345459,5,1,4,0,3,2,H-,1,1,1,0,1000,250.0,1,d07aw,318,test
624.763011932373,5,1,4,0,3,2,H-,1,3,4,0,1000,250.0,3,d07aw,319,test
704.7140598297119,5,1,4,0,3,2,H-,1,5,0,0,1000,250.0,5,d07aw,320,test
992.7539825439453,5,1,4,0,3,2,H-,1,3,4,0,1000,250.0,3,d07aw,321,test
752.7098655700684,5,1,4,0,3,2,H-,1,5,0,0,1000,250.0,5,d07aw,322,test
544.7540283203125,5,1,4,0,3,2,H-,1,3,4,0,1000,250.0,3,d07aw,323,test
560.7278347015381,5,1,4,0,3,2,H-,1,4,2,0,1000,250.0,4,d07aw,324,test
640.7430171966553,5,1,4,0,3,2,H-,1,0,3,0,1000,250.0,0,d07aw,325,test
560.7459545135498,5,1,4,0,3,2,H-,1,1,1,0,1000,250.0,1,d07aw,326,test
464.63990211486816,5,1,4,0,3,2,H-,0,5,0,0,1000,250.0,3,d07aw,327,test
576.5302181243896,5,1,4,0,3,2,H-,1,2,5,0,1000,250.0,2,d07aw,328,test
640.6590938568115,5,1,4,0,3,2,H-,1,3,4,0,1000,250.0,3,d07aw,329,test
528.5961627960205,5,1,4,0,3,2,H-,1,1,1,0,1000,250.0,1,d07aw,330,test
736.6118431091309,5,1,4,0,3,2,H-,1,5,0,0,1000,250.0,5,d07aw,331,test
592.7801132202148,5,1,4,0,3,2,H-,1,0,3,0,1000,250.0,0,d07aw,332,test
464.77699279785156,5,1,4,0,3,2,H-,1,2,5,0,1000,250.0,2,d07aw,333,test
560.7271194458008,5,1,4,0,3,2,H-,1,3,4,0,1000,250.0,3,d07aw,334,test
480.6962013244629,5,1,4,0,3,2,H-,1,3,4,0,1000,250.0,3,d07aw,335,test
512.7639770507812,5,1,4,0,3,2,H-,1,3,4,0,1000,250.0,3,d07aw,336,test
528.6719799041748,5,1,4,0,3,2,H-,1,0,3,0,1000,250.0,0,d07aw,337,test
528.7330150604248,5,1,4,0,3,2,H-,1,3,4,0,1000,250.0,3,d07aw,338,test
464.69879150390625,5,1,4,0,3,2,H-,0,1,1,0,1000,250.0,2,d07aw,339,test
624.5830059051514,5,1,4,0,3,2,H-,0,5,0,0,1000,250.0,3,d07aw,340,test
528.6550521850586,5,1,4,0,3,2,H-,1,0,3,0,1000,250.0,0,d07aw,341,test
880.7728290557861,5,1,4,0,3,2,H-,1,5,0,0,1000,250.0,5,d07aw,342,test
464.7409915924072,5,1,4,0,3,2,H-,1,3,4,0,1000,250.0,3,d07aw,343,test
512.6149654388428,5,1,4,0,3,2,H-,1,1,1,0,1000,250.0,1,d07aw,344,test
608.7510585784912,5,1,4,0,3,2,H-,1,5,0,0,1000,250.0,5,d07aw,345,test
464.6260738372803,5,1,4,0,3,2,H-,1,5,0,0,1000,250.0,5,d07aw,346,test
480.6210994720459,5,1,4,0,3,2,H-,1,4,2,0,1000,250.0,4,d07aw,347,test
560.683012008667,5,1,4,0,3,2,H-,1,1,1,0,1000,250.0,1,d07aw,348,test
448.7760066986084,5,1,4,0,3,2,H-,1,4,2,0,1000,250.0,4,d07aw,349,test
415.8790111541748,5,1,4,0,3,2,H-,1,4,2,0,1000,250.0,4,d07aw,350,test
592.6010608673096,5,1,4,0,3,2,H-,1,5,0,0,1000,250.0,5,d07aw,351,test
432.6670169830322,5,1,4,0,3,2,H-,1,3,4,0,1000,250.0,3,d07aw,352,test
640.5961513519287,5,1,4,0,3,2,H-,1,0,3,0,1000,250.0,0,d07aw,353,test
800.771951675415,5,1,4,0,3,2,H-,1,0,3,0,1000,250.0,0,d07aw,354,test
528.5871028900146,5,1,4,0,3,2,H-,1,4,2,0,1000,250.0,4,d07aw,355,test
640.6919956207275,5,1,4,0,3,2,H-,1,2,5,0,1000,250.0,2,d07aw,356,test
1024.4929790496826,5,1,4,0,3,2,H-,1,5,0,0,1000,250.0,5,d07aw,357,test
480.71980476379395,5,1,4,0,3,2,H-,1,3,4,0,1000,250.0,3,d07aw,358,test
560.6458187103271,5,1,4,0,3,2,H-,1,4,2,0,1000,250.0,4,d07aw,359,test
576.7741203308105,5,1,4,0,3,2,H-,1,1,1,0,1000,250.0,1,d07aw,360,test
480.7729721069336,5,1,4,0,3,2,H-,1,3,4,0,1000,250.0,3,d07aw,361,test
480.6821346282959,5,1,4,0,3,2,H-,1,3,4,0,1000,250.0,3,d07aw,362,test
448.65989685058594,5,1,4,0,3,2,H-,1,1,1,0,1000,250.0,1,d07aw,363,test
608.6738109588623,5,1,4,0,3,2,H-,1,3,4,0,1000,250.0,3,d07aw,364,test
432.69896507263184,5,1,4,0,3,2,H-,1,4,2,0,1000,250.0,4,d07aw,365,test
512.67409324646,5,1,4,0,3,2,H-,1,2,5,0,1000,250.0,2,d07aw,366,test
464.6410942077637,5,1,4,0,3,2,H-,1,0,3,0,1000,250.0,0,d07aw,367,test
432.6479434967041,5,1,4,0,3,2,H-,1,4,2,0,1000,250.0,4,d07aw,368,test
480.6678295135498,5,1,4,0,3,2,H-,1,1,1,0,1000,250.0,1,d07aw,369,test
464.6191596984863,5,1,4,0,3,2,H-,1,4,2,0,1000,250.0,4,d07aw,370,test
544.625997543335,5,1,4,0,3,2,H-,1,2,5,0,1000,250.0,2,d07aw,371,test
528.7778377532959,5,1,4,0,3,2,H-,1,2,5,0,1000,250.0,2,d07aw,372,test
448.58503341674805,5,1,4,0,3,2,H-,1,0,3,0,1000,250.0,0,d07aw,373,test
528.7160873413086,5,1,4,0,3,2,H-,1,1,1,0,1000,250.0,1,d07aw,374,test
560.7340335845947,5,1,4,0,3,2,H-,1,2,5,0,1000,250.0,2,d07aw,375,test
544.6209907531738,5,1,4,0,3,2,H-,1,4,2,0,1000,250.0,4,d07aw,376,test
608.7040901184082,5,1,4,0,3,2,H-,1,0,3,0,1000,250.0,0,d07aw,377,test
640.7380104064941,5,1,4,0,3,2,H-,1,5,0,0,1000,250.0,5,d07aw,378,test
528.7129878997803,5,1,4,0,3,2,H-,1,2,5,0,1000,250.0,2,d07aw,379,test
512.6540660858154,5,1,4,0,3,2,H-,1,1,1,0,1000,250.0,1,d07aw,380,test
480.7400703430176,5,1,4,0,3,2,H-,1,5,0,0,1000,250.0,5,d07aw,381,test
448.72307777404785,5,1,4,0,3,2,H-,1,1,1,0,1000,250.0,1,d07aw,382,test
480.68809509277344,5,1,4,0,3,2,H-,1,1,1,0,1000,250.0,1,d07aw,383,test
448.57001304626465,5,1,4,0,3,2,H-,1,5,0,0,1000,250.0,5,d07aw,384,test
480.5769920349121,5,1,4,0,3,2,H-,1,0,3,0,1000,250.0,0,d07aw,385,test
704.7290802001953,5,1,4,0,3,2,H-,0,5,0,0,1000,250.0,3,d07aw,386,test
704.7178745269775,5,1,4,0,3,2,H-,1,4,2,0,1000,250.0,4,d07aw,387,test
560.6479644775391,5,1,4,0,3,2,H-,1,2,5,0,1000,250.0,2,d07aw,388,test
688.7187957763672,5,1,4,0,3,2,H-,1,2,5,0,1000,250.0,2,d07aw,389,test
464.5988941192627,5,1,4,0,3,2,H-,1,1,1,0,1000,250.0,1,d07aw,390,test
432.6150417327881,5,1,4,0,3,2,H-,1,1,1,0,1000,250.0,1,d07aw,391,test
560.5700016021729,5,1,4,0,3,2,H-,1,3,4,0,1000,250.0,3,d07aw,392,test
544.6670055389404,5,1,4,0,3,2,H-,1,4,2,0,1000,250.0,4,d07aw,393,test
592.6718711853027,5,1,4,0,3,2,H-,1,3,4,0,1000,250.0,3,d07aw,394,test
608.677864074707,5,1,4,0,3,2,H-,1,0,3,0,1000,250.0,0,d07aw,395,test
544.6929931640625,5,1,4,0,3,2,H-,1,3,4,0,1000,250.0,3,d07aw,396,test
464.4432067871094,5,1,4,0,3,2,H-,1,1,1,0,1000,250.0,1,d07aw,397,test
448.5890865325928,5,1,4,0,3,2,H-,1,3,4,0,1000,250.0,3,d07aw,398,test
816.5998458862305,5,1,4,0,3,2,H-,1,5,0,0,1000,250.0,5,d07aw,399,test
544.6779727935791,5,1,4,0,3,2,H-,1,0,3,0,1000,250.0,0,d07aw,400,test
496.6549873352051,5,1,4,0,3,2,H-,1,3,4,0,1000,250.0,3,d07aw,401,test
608.626127243042,5,1,4,0,3,2,H-,1,5,0,0,1000,250.0,5,d07aw,402,test
448.6660957336426,5,1,4,0,3,2,H-,1,4,2,0,1000,250.0,4,d07aw,403,test
480.41605949401855,5,1,4,0,3,2,H-,1,4,2,0,1000,250.0,4,d07aw,404,test
736.6139888763428,5,1,4,0,3,2,H-,1,5,0,0,1000,250.0,5,d07aw,405,test
544.6829795837402,5,1,4,0,3,2,H-,1,1,1,0,1000,250.0,1,d07aw,406,test
656.6851139068604,5,1,4,0,3,2,H-,1,3,4,0,1000,250.0,3,d07aw,407,test
560.6579780578613,5,1,4,0,3,2,H-,1,0,3,0,1000,250.0,0,d07aw,408,test
544.611930847168,5,1,4,0,3,2,H-,1,1,1,0,1000,250.0,1,d07aw,409,test
1104.6550273895264,5,1,4,0,3,2,H-,1,5,0,0,1000,250.0,5,d07aw,410,test
544.741153717041,5,1,4,0,3,2,H-,1,2,5,0,1000,250.0,2,d07aw,411,test
528.6350250244141,5,1,4,0,3,2,H-,1,3,4,0,1000,250.0,3,d07aw,412,test
479.8281192779541,5,1,4,0,3,2,H-,1,3,4,0,1000,250.0,3,d07aw,413,test
448.55713844299316,5,1,4,0,3,2,H-,1,5,0,0,1000,250.0,5,d07aw,414,test
591.8920040130615,5,1,4,0,3,2,H-,1,2,5,0,1000,250.0,2,d07aw,415,test
640.4640674591064,5,1,4,0,3,2,H-,1,3,4,0,1000,250.0,3,d07aw,416,test
528.5451412200928,5,1,4,0,3,2,H-,1,1,1,0,1000,250.0,1,d07aw,417,test
560.6210231781006,5,1,4,0,3,2,H-,1,2,5,0,1000,250.0,2,d07aw,418,test
528.6450386047363,5,1,4,0,3,2,H-,1,3,4,0,1000,250.0,3,d07aw,419,test
480.56983947753906,5,1,4,0,3,2,H-,1,2,5,0,1000,250.0,2,d07aw,420,test
560.6210231781006,5,1,4,0,3,2,H-,1,5,0,0,1000,250.0,5,d07aw,421,test
512.671947479248,5,1,4,0,3,2,H-,1,5,0,0,1000,250.0,5,d07aw,422,test
448.60386848449707,5,1,4,0,3,2,H-,1,5,0,0,1000,250.0,5,d07aw,423,test
592.6098823547363,5,1,4,0,3,2,H-,1,2,5,0,1000,250.0,2,d07aw,424,test
448.6100673675537,5,1,4,0,3,2,H-,0,2,5,0,1000,250.0,5,d07aw,425,test
496.6750144958496,5,1,4,0,3,2,H-,1,2,5,0,1000,250.0,2,d07aw,426,test
496.5651035308838,5,1,4,0,3,2,H-,1,5,0,0,1000,250.0,5,d07aw,427,test
608.5891723632812,5,1,4,0,3,2,H-,1,4,2,0,1000,250.0,4,d07aw,428,test
816.6110515594482,5,1,4,0,3,2,H-,1,0,3,0,1000,250.0,0,d07aw,429,test
592.6721096038818,5,1,4,0,3,2,H-,1,0,3,0,1000,250.0,0,d07aw,430,test
496.65188789367676,5,1,4,0,3,2,H-,1,0,3,0,1000,250.0,0,d07aw,431,test
544.7080135345459,5,1,4,0,3,2,H-,1,0,3,0,1000,250.0,0,d07aw,432,test
461.8980884552002,5,1,4,0,3,2,H-,0,5,0,0,1000,250.0,2,d07aw,433,test
416.6150093078613,5,1,4,0,3,2,H-,0,3,4,0,1000,250.0,5,d07aw,434,test
592.4339294433594,5,1,4,0,3,2,H-,1,1,1,0,1000,250.0,1,d07aw,435,test
528.6660194396973,5,1,4,0,3,2,H-,1,0,3,0,1000,250.0,0,d07aw,436,test
592.6699638366699,5,1,4,0,3,2,H-,1,4,2,0,1000,250.0,4,d07aw,437,test
720.7150459289551,5,1,4,0,3,2,H-,1,5,0,0,1000,250.0,5,d07aw,438,test
464.663028717041,5,1,4,0,3,2,H-,1,1,1,0,1000,250.0,1,d07aw,439,test
544.6867942810059,5,1,4,0,3,2,H-,1,2,5,0,1000,250.0,2,d07aw,440,test
464.6649360656738,5,1,4,0,3,2,H-,1,2,5,0,1000,250.0,2,d07aw,441,test
496.34695053100586,5,1,4,0,3,2,H-,1,0,3,0,1000,250.0,0,d07aw,442,test
464.6310806274414,5,1,4,0,3,2,H-,1,1,1,0,1000,250.0,1,d07aw,443,test
496.60205841064453,5,1,4,0,3,2,H-,1,4,2,0,1000,250.0,4,d07aw,444,test
512.61305809021,5,1,4,0,3,2,H-,1,1,1,0,1000,250.0,1,d07aw,445,test
496.7041015625,5,1,4,0,3,2,H-,1,4,2,0,1000,250.0,4,d07aw,446,test
448.5330581665039,5,1,4,0,3,2,H-,1,4,2,0,1000,250.0,4,d07aw,447,test
576.7021179199219,5,1,4,0,3,2,H-,1,3,4,0,1000,250.0,3,d07aw,448,test
512.664794921875,5,1,4,0,3,2,H-,1,4,2,0,1000,250.0,4,d07aw,449,test
512.5949382781982,5,1,4,0,3,2,H-,1,3,4,0,1000,250.0,3,d07aw,450,test
496.64783477783203,5,1,4,0,3,2,H-,1,4,2,0,1000,250.0,4,d07aw,451,test
368.3788776397705,5,1,4,0,3,2,H-,1,4,2,0,1000,250.0,4,d07aw,452,test
368.6411380767822,5,1,4,0,3,2,H-,1,4,2,0,1000,250.0,4,d07aw,453,test
368.6351776123047,5,1,4,0,3,2,H-,1,4,2,0,1000,250.0,4,d07aw,454,test
368.6668872833252,5,1,4,0,3,2,H-,1,4,2,0,1000,250.0,4,d07aw,455,test
528.6431312561035,5,1,4,0,3,2,H-,1,0,3,0,1000,250.0,0,d07aw,456,test
496.90818786621094,5,1,4,0,3,2,H-,0,5,0,0,1000,250.0,3,d07aw,457,test
641.0901546478271,5,1,4,0,3,2,H-,1,5,0,0,1000,250.0,5,d07aw,458,test
608.9909076690674,5,1,4,0,3,2,H-,1,5,0,0,1000,250.0,5,d07aw,459,test
353.01709175109863,5,1,4,0,3,2,H-,1,5,0,0,1000,250.0,5,d07aw,460,test
336.9100093841553,5,1,4,0,3,2,H-,1,5,0,0,1000,250.0,5,d07aw,461,test
496.99902534484863,5,1,4,0,3,2,H-,1,0,3,0,1000,250.0,0,d07aw,462,test
513.1409168243408,5,1,4,0,3,2,H-,1,3,4,0,1000,250.0,3,d07aw,463,test
513.0250453948975,5,1,4,0,3,2,H-,1,3,4,0,1000,250.0,3,d07aw,464,test
544.9070930480957,5,1,4,0,3,2,H-,0,2,5,0,1000,250.0,1,d07aw,465,test
465.03496170043945,5,1,4,0,3,2,H-,0,3,4,0,1000,250.0,2,d07aw,466,test
576.9639015197754,5,1,4,0,3,2,H-,1,1,1,0,1000,250.0,1,d07aw,467,test
561.1050128936768,5,1,4,0,3,2,H-,1,4,2,0,1000,250.0,4,d07aw,468,test
544.9240207672119,5,1,4,0,3,2,H-,1,0,3,0,1000,250.0,0,d07aw,469,test
465.0578498840332,5,1,4,0,3,2,H-,1,0,3,0,1000,250.0,0,d07aw,470,test
512.998104095459,5,1,4,0,3,2,H-,1,2,5,0,1000,250.0,2,d07aw,471,test
721.045970916748,5,1,4,0,3,2,H-,1,2,5,0,1000,250.0,2,d07aw,472,test
512.9671096801758,5,1,4,0,3,2,H-,1,1,1,0,1000,250.0,1,d07aw,473,test
560.9390735626221,5,1,4,0,3,2,H-,1,3,4,0,1000,250.0,3,d07aw,474,test
529.1509628295898,5,1,4,0,3,2,H-,1,4,2,0,1000,250.0,4,d07aw,475,test
513.0259990692139,5,1,4,0,3,2,H-,1,3,4,0,1000,250.0,3,d07aw,476,test
625.0400543212891,5,1,4,0,3,2,H-,1,5,0,0,1000,250.0,5,d07aw,477,test
528.8691520690918,5,1,4,0,3,2,H-,1,4,2,0,1000,250.0,4,d07aw,478,test
577.1849155426025,5,1,4,0,3,2,H-,1,2,5,0,1000,250.0,2,d07aw,479,test
529.0319919586182,5,1,4,0,3,2,H-,1,5,0,0,1000,250.0,5,d07aw,480,test
625.0760555267334,5,1,4,0,3,2,H-,1,4,2,0,1000,250.0,4,d07aw,481,test
465.04998207092285,5,1,4,0,3,2,H-,1,4,2,0,1000,250.0,4,d07aw,482,test
513.0438804626465,5,1,4,0,3,2,H-,1,5,0,0,1000,250.0,5,d07aw,483,test
577.0020484924316,5,1,4,0,3,2,H-,1,3,4,0,1000,250.0,3,d07aw,484,test
561.1331462860107,5,1,4,0,3,2,H-,1,2,5,0,1000,250.0,2,d07aw,485,test
545.1390743255615,5,1,4,0,3,2,H-,1,2,5,0,1000,250.0,2,d07aw,486,test
561.1279010772705,5,1,4,0,3,2,H-,1,0,3,0,1000,250.0,0,d07aw,487,test
753.1039714813232,5,1,4,0,3,2,H-,1,3,4,0,1000,250.0,3,d07aw,488,test
529.0441513061523,5,1,4,0,3,2,H-,1,0,3,0,1000,250.0,0,d07aw,489,test
528.9158821105957,5,1,4,0,3,2,H-,1,4,2,0,1000,250.0,4,d07aw,490,test
433.05301666259766,5,1,4,0,3,2,H-,1,4,2,0,1000,250.0,4,d07aw,491,test
496.55604362487793,5,1,4,0,3,2,H-,1,2,5,0,1000,250.0,2,d07aw,492,test
368.5929775238037,5,1,4,0,3,2,H-,1,2,5,0,1000,250.0,2,d07aw,493,test
512.4361515045166,5,1,4,0,3,2,H-,1,1,1,0,1000,250.0,1,d07aw,494,test
608.6699962615967,5,1,4,0,3,2,H-,1,5,0,0,1000,250.0,5,d07aw,495,test
560.5819225311279,5,1,4,0,3,2,H-,1,5,0,0,1000,250.0,5,d07aw,496,test
528.6610126495361,5,1,4,0,3,2,H-,1,0,3,0,1000,250.0,0,d07aw,497,test
496.58799171447754,5,1,4,0,3,2,H-,1,1,1,0,1000,250.0,1,d07aw,498,test
512.6979351043701,5,1,4,0,3,2,H-,1,1,1,0,1000,250.0,1,d07aw,499,test
