RT,SRmap_0,SRmap_1,SRmap_2,SRmap_3,SRmap_4,SRmap_5,condition,correct,correct_response,curstim,ms-precue,ms-prestimblank,ntrials,response,subject,trial,type
1167.4718856811523,3,0,2,1,5,4,E-,1,3,0,400,600,250.0,3,D03MA,0,train
655.6441783905029,3,0,2,1,5,4,E-,1,5,4,400,600,250.0,5,D03MA,1,train
191.40005111694336,3,0,2,1,5,4,E-,1,5,4,400,600,250.0,5,D03MA,2,train
271.3918685913086,3,0,2,1,5,4,E-,1,5,4,400,600,250.0,5,D03MA,3,train
431.3621520996094,3,0,2,1,5,4,E-,1,2,2,400,600,250.0,2,D03MA,4,train
239.3970489501953,3,0,2,1,5,4,E-,1,5,4,400,600,250.0,5,D03MA,5,train
367.47097969055176,3,0,2,1,5,4,E-,1,2,2,400,600,250.0,2,D03MA,6,train
319.23794746398926,3,0,2,1,5,4,E-,1,4,5,400,600,250.0,4,D03MA,7,train
415.7140254974365,3,0,2,1,5,4,E-,1,3,0,400,600,250.0,3,D03MA,8,train
207.80491828918457,3,0,2,1,5,4,E-,0,1,3,400,600,250.0,0,D03MA,9,train
1519.7679996490479,3,0,2,1,5,4,E-,1,3,0,400,600,250.0,3,D03MA,10,train
799.3688583374023,3,0,2,1,5,4,E-,1,2,2,400,600,250.0,2,D03MA,11,train
975.3849506378174,3,0,2,1,5,4,E-,1,2,2,400,600,250.0,2,D03MA,12,train
559.3979358673096,3,0,2,1,5,4,E-,1,4,5,400,600,250.0,4,D03MA,13,train
1887.5770568847656,3,0,2,1,5,4,E-,1,0,1,400,600,250.0,0,D03MA,14,train
431.78606033325195,3,0,2,1,5,4,E-,1,2,2,400,600,250.0,2,D03MA,15,train
207.76796340942383,3,0,2,1,5,4,E-,1,5,4,400,600,250.0,5,D03MA,16,train
255.8290958404541,3,0,2,1,5,4,E-,1,5,4,400,600,250.0,5,D03MA,17,train
415.64393043518066,3,0,2,1,5,4,E-,1,2,2,400,600,250.0,2,D03MA,18,train
479.45690155029297,3,0,2,1,5,4,E-,1,5,4,400,600,250.0,5,D03MA,19,train
479.5370101928711,3,0,2,1,5,4,E-,1,2,2,400,600,250.0,2,D03MA,20,train
639.3458843231201,3,0,2,1,5,4,E-,1,0,1,400,600,250.0,0,D03MA,21,train
287.4560356140137,3,0,2,1,5,4,E-,1,1,3,400,600,250.0,1,D03MA,22,train
287.42313385009766,3,0,2,1,5,4,E-,1,2,2,400,600,250.0,2,D03MA,23,train
367.4440383911133,3,0,2,1,5,4,E-,1,4,5,400,600,250.0,4,D03MA,24,train
495.311975479126,3,0,2,1,5,4,E-,1,5,4,400,600,250.0,5,D03MA,25,train
399.35803413391113,3,0,2,1,5,4,E-,1,2,2,400,600,250.0,2,D03MA,26,train
143.3248519897461,3,0,2,1,5,4,E-,1,2,2,400,600,250.0,2,D03MA,27,train
47.46103286743164,3,0,2,1,5,4,E-,1,2,2,400,600,250.0,2,D03MA,28,train
975.4900932312012,3,0,2,1,5,4,E-,1,3,0,400,600,250.0,3,D03MA,29,train
111.44804954528809,3,0,2,1,5,4,E-,1,3,0,400,600,250.0,3,D03MA,30,train
399.0020751953125,3,0,2,1,5,4,E-,1,5,4,400,600,250.0,5,D03MA,31,train
431.1947822570801,3,0,2,1,5,4,E-,1,0,1,400,600,250.0,0,D03MA,32,train
287.4469757080078,3,0,2,1,5,4,E-,1,0,1,400,600,250.0,0,D03MA,33,train
191.52307510375977,3,0,2,1,5,4,E-,1,0,1,400,600,250.0,0,D03MA,34,train
79.57291603088379,3,0,2,1,5,4,E-,1,0,1,400,600,250.0,0,D03MA,35,train
111.39893531799316,3,0,2,1,5,4,E-,1,1,3,400,600,250.0,1,D03MA,36,train
239.40491676330566,3,0,2,1,5,4,E-,1,3,0,400,600,250.0,3,D03MA,37,train
223.4170436859131,3,0,2,1,5,4,E-,1,0,1,400,600,250.0,0,D03MA,38,train
191.4360523223877,3,0,2,1,5,4,E-,1,2,2,400,600,250.0,2,D03MA,39,train
1359.480857849121,3,0,2,1,5,4,E-,0,1,3,400,600,250.0,0,D03MA,40,train
303.38597297668457,3,0,2,1,5,4,E-,1,0,1,400,600,250.0,0,D03MA,41,train
207.35883712768555,3,0,2,1,5,4,E-,1,5,4,400,600,250.0,5,D03MA,42,train
79.21218872070312,3,0,2,1,5,4,E-,1,5,4,400,600,250.0,5,D03MA,43,train
431.1668872833252,3,0,2,1,5,4,E-,1,3,0,400,600,250.0,3,D03MA,44,train
175.3849983215332,3,0,2,1,5,4,E-,1,5,4,400,600,250.0,5,D03MA,45,train
255.4020881652832,3,0,2,1,5,4,E-,1,4,5,400,600,250.0,4,D03MA,46,train
287.34302520751953,3,0,2,1,5,4,E-,1,0,1,400,600,250.0,0,D03MA,47,train
447.4198818206787,3,0,2,1,5,4,E-,1,3,0,400,600,250.0,3,D03MA,48,train
335.38079261779785,3,0,2,1,5,4,E-,1,0,1,400,600,250.0,0,D03MA,49,train
1263.5071277618408,3,0,2,1,5,4,E-,0,2,2,400,600,250.0,1,D03MA,50,train
271.49081230163574,3,0,2,1,5,4,E-,1,5,4,400,600,250.0,5,D03MA,51,train
223.37102890014648,3,0,2,1,5,4,E-,1,1,3,400,600,250.0,1,D03MA,52,train
335.4301452636719,3,0,2,1,5,4,E-,1,2,2,400,600,250.0,2,D03MA,53,train
175.4601001739502,3,0,2,1,5,4,E-,1,4,5,400,600,250.0,4,D03MA,54,train
159.36994552612305,3,0,2,1,5,4,E-,1,5,4,400,600,250.0,5,D03MA,55,train
223.3591079711914,3,0,2,1,5,4,E-,1,1,3,400,600,250.0,1,D03MA,56,train
367.40708351135254,3,0,2,1,5,4,E-,1,3,0,400,600,250.0,3,D03MA,57,train
63.48013877868652,3,0,2,1,5,4,E-,1,4,5,400,600,250.0,4,D03MA,58,train
495.41282653808594,3,0,2,1,5,4,E-,1,0,1,400,600,250.0,0,D03MA,59,train
207.15904235839844,3,0,2,1,5,4,E-,1,4,5,400,600,250.0,4,D03MA,60,train
255.30099868774414,3,0,2,1,5,4,E-,1,0,1,400,600,250.0,0,D03MA,61,train
287.4619960784912,3,0,2,1,5,4,E-,1,1,3,400,600,250.0,1,D03MA,62,train
351.48096084594727,3,0,2,1,5,4,E-,1,4,5,400,600,250.0,4,D03MA,63,train
351.40514373779297,3,0,2,1,5,4,E-,1,3,0,400,600,250.0,3,D03MA,64,train
287.3358726501465,3,0,2,1,5,4,E-,1,4,5,400,600,250.0,4,D03MA,65,train
335.45398712158203,3,0,2,1,5,4,E-,1,0,1,400,600,250.0,0,D03MA,66,train
239.34197425842285,3,0,2,1,5,4,E-,1,4,5,400,600,250.0,4,D03MA,67,train
351.51195526123047,3,0,2,1,5,4,E-,1,2,2,400,600,250.0,2,D03MA,68,train
111.50789260864258,3,0,2,1,5,4,E-,1,1,3,400,600,250.0,1,D03MA,69,train
255.48386573791504,3,0,2,1,5,4,E-,1,3,0,400,600,250.0,3,D03MA,70,train
159.42883491516113,3,0,2,1,5,4,E-,1,2,2,400,600,250.0,2,D03MA,71,train
111.52505874633789,3,0,2,1,5,4,E-,1,2,2,400,600,250.0,2,D03MA,72,train
255.3579807281494,3,0,2,1,5,4,E-,1,5,4,400,600,250.0,5,D03MA,73,train
207.47089385986328,3,0,2,1,5,4,E-,1,2,2,400,600,250.0,2,D03MA,74,train
335.47496795654297,3,0,2,1,5,4,E-,1,1,3,400,600,250.0,1,D03MA,75,train
191.49303436279297,3,0,2,1,5,4,E-,1,2,2,400,600,250.0,2,D03MA,76,train
910.5648994445801,3,0,2,1,5,4,E-,1,0,1,400,600,250.0,0,D03MA,77,train
303.3590316772461,3,0,2,1,5,4,E-,1,3,0,400,600,250.0,3,D03MA,78,train
239.69197273254395,3,0,2,1,5,4,E-,1,5,4,400,600,250.0,5,D03MA,79,train
255.61809539794922,3,0,2,1,5,4,E-,1,2,2,400,600,250.0,2,D03MA,80,train
415.68899154663086,3,0,2,1,5,4,E-,1,3,0,400,600,250.0,3,D03MA,81,train
335.6478214263916,3,0,2,1,5,4,E-,1,0,1,400,600,250.0,0,D03MA,82,train
239.72797393798828,3,0,2,1,5,4,E-,1,3,0,400,600,250.0,3,D03MA,83,train
191.2999153137207,3,0,2,1,5,4,E-,1,4,5,400,600,250.0,4,D03MA,84,train
239.63093757629395,3,0,2,1,5,4,E-,1,1,3,400,600,250.0,1,D03MA,85,train
143.7051296234131,3,0,2,1,5,4,E-,1,5,4,400,600,250.0,5,D03MA,86,train
239.67480659484863,3,0,2,1,5,4,E-,1,1,3,400,600,250.0,1,D03MA,87,train
175.6758689880371,3,0,2,1,5,4,E-,1,4,5,400,600,250.0,4,D03MA,88,train
175.74715614318848,3,0,2,1,5,4,E-,1,5,4,400,600,250.0,5,D03MA,89,train
111.65904998779297,3,0,2,1,5,4,E-,1,0,1,400,600,250.0,0,D03MA,90,train
191.7870044708252,3,0,2,1,5,4,E-,0,3,0,400,600,250.0,4,D03MA,91,train
207.6559066772461,3,0,2,1,5,4,E-,1,3,0,400,600,250.0,3,D03MA,92,train
1215.5969142913818,3,0,2,1,5,4,E-,1,4,5,400,600,250.0,4,D03MA,93,train
239.18509483337402,3,0,2,1,5,4,E-,1,0,1,400,600,250.0,0,D03MA,94,train
255.46789169311523,3,0,2,1,5,4,E-,1,1,3,400,600,250.0,1,D03MA,95,train
223.4668731689453,3,0,2,1,5,4,E-,0,2,2,400,600,250.0,1,D03MA,96,train
239.28213119506836,3,0,2,1,5,4,E-,1,4,5,400,600,250.0,4,D03MA,97,train
399.4290828704834,3,0,2,1,5,4,E-,1,3,0,400,600,250.0,3,D03MA,98,train
159.34395790100098,3,0,2,1,5,4,E-,1,3,0,400,600,250.0,3,D03MA,99,train
207.4120044708252,3,0,2,1,5,4,E-,1,1,3,400,600,250.0,1,D03MA,100,train
207.72695541381836,3,0,2,1,5,4,E-,1,5,4,400,600,250.0,5,D03MA,101,train
287.6551151275635,3,0,2,1,5,4,E-,1,0,1,400,600,250.0,0,D03MA,102,train
159.65890884399414,3,0,2,1,5,4,E-,1,0,1,400,600,250.0,0,D03MA,103,train
239.7758960723877,3,0,2,1,5,4,E-,1,5,4,400,600,250.0,5,D03MA,104,train
271.76403999328613,3,0,2,1,5,4,E-,1,3,0,400,600,250.0,3,D03MA,105,train
463.62900733947754,3,0,2,1,5,4,E-,1,3,0,400,600,250.0,3,D03MA,106,train
63.76504898071289,3,0,2,1,5,4,E-,1,4,5,400,600,250.0,4,D03MA,107,train
207.4589729309082,3,0,2,1,5,4,E-,1,3,0,400,600,250.0,3,D03MA,108,train
287.4751091003418,3,0,2,1,5,4,E-,1,2,2,400,600,250.0,2,D03MA,109,train
127.48098373413086,3,0,2,1,5,4,E-,1,2,2,400,600,250.0,2,D03MA,110,train
207.30185508728027,3,0,2,1,5,4,E-,1,3,0,400,600,250.0,3,D03MA,111,train
335.48617362976074,3,0,2,1,5,4,E-,1,2,2,400,600,250.0,2,D03MA,112,train
367.4759864807129,3,0,2,1,5,4,E-,1,0,1,400,600,250.0,0,D03MA,113,train
511.5010738372803,3,0,2,1,5,4,E-,1,1,3,400,600,250.0,1,D03MA,114,train
287.4579429626465,3,0,2,1,5,4,E-,1,1,3,400,600,250.0,1,D03MA,115,train
255.3558349609375,3,0,2,1,5,4,E-,1,4,5,400,600,250.0,4,D03MA,116,train
255.32889366149902,3,0,2,1,5,4,E-,0,2,2,400,600,250.0,1,D03MA,117,train
191.4200782775879,3,0,2,1,5,4,E-,1,4,5,400,600,250.0,4,D03MA,118,train
367.5680160522461,3,0,2,1,5,4,E-,1,0,1,400,600,250.0,0,D03MA,119,train
127.35605239868164,3,0,2,1,5,4,E-,1,3,0,400,600,250.0,3,D03MA,120,train
655.3289890289307,3,0,2,1,5,4,E-,1,3,0,400,600,250.0,3,D03MA,121,train
239.42112922668457,3,0,2,1,5,4,E-,1,1,3,400,600,250.0,1,D03MA,122,train
191.44201278686523,3,0,2,1,5,4,E-,1,4,5,400,600,250.0,4,D03MA,123,train
223.40703010559082,3,0,2,1,5,4,E-,1,4,5,400,600,250.0,4,D03MA,124,train
335.40797233581543,3,0,2,1,5,4,E-,1,0,1,400,600,250.0,0,D03MA,125,train
239.4258975982666,3,0,2,1,5,4,E-,1,0,1,400,600,250.0,0,D03MA,126,train
191.43390655517578,3,0,2,1,5,4,E-,1,0,1,400,600,250.0,0,D03MA,127,train
543.4658527374268,3,0,2,1,5,4,E-,1,2,2,400,600,250.0,2,D03MA,128,train
143.54491233825684,3,0,2,1,5,4,E-,1,4,5,400,600,250.0,4,D03MA,129,train
207.31592178344727,3,0,2,1,5,4,E-,1,5,4,400,600,250.0,5,D03MA,130,train
239.43305015563965,3,0,2,1,5,4,E-,1,0,1,400,600,250.0,0,D03MA,131,train
223.49977493286133,3,0,2,1,5,4,E-,1,0,1,400,600,250.0,0,D03MA,132,train
319.55790519714355,3,0,2,1,5,4,E-,1,0,1,400,600,250.0,0,D03MA,133,train
927.4759292602539,3,0,2,1,5,4,E-,1,1,3,400,600,250.0,1,D03MA,134,train
959.4039916992188,3,0,2,1,5,4,E-,1,2,2,400,600,250.0,2,D03MA,135,train
367.4740791320801,3,0,2,1,5,4,E-,1,4,5,400,600,250.0,4,D03MA,136,train
351.4561653137207,3,0,2,1,5,4,E-,1,3,0,400,600,250.0,3,D03MA,137,train
159.55495834350586,3,0,2,1,5,4,E-,1,4,5,400,600,250.0,4,D03MA,138,train
207.37886428833008,3,0,2,1,5,4,E-,1,5,4,400,600,250.0,5,D03MA,139,train
319.4701671600342,3,0,2,1,5,4,E-,1,5,4,400,600,250.0,5,D03MA,140,train
591.4211273193359,3,0,2,1,5,4,E-,1,3,0,400,600,250.0,3,D03MA,141,train
207.50188827514648,3,0,2,1,5,4,E-,1,3,0,400,600,250.0,3,D03MA,142,train
79.47802543640137,3,0,2,1,5,4,E-,1,5,4,400,600,250.0,5,D03MA,143,train
47.56808280944824,3,0,2,1,5,4,E-,1,5,4,400,600,250.0,5,D03MA,144,train
239.4568920135498,3,0,2,1,5,4,E-,0,2,2,400,600,250.0,3,D03MA,145,train
287.4879837036133,3,0,2,1,5,4,E-,1,3,0,400,600,250.0,3,D03MA,146,train
47.53708839416504,3,0,2,1,5,4,E-,1,4,5,400,600,250.0,4,D03MA,147,train
175.3408908843994,3,0,2,1,5,4,E-,1,4,5,400,600,250.0,4,D03MA,148,train
287.5180244445801,3,0,2,1,5,4,E-,1,2,2,400,600,250.0,2,D03MA,149,train
271.3780403137207,3,0,2,1,5,4,E-,1,0,1,400,600,250.0,0,D03MA,150,train
223.53386878967285,3,0,2,1,5,4,E-,1,2,2,400,600,250.0,2,D03MA,151,train
238.68680000305176,3,0,2,1,5,4,E-,1,0,1,400,600,250.0,0,D03MA,152,train
159.48200225830078,3,0,2,1,5,4,E-,1,5,4,400,600,250.0,5,D03MA,153,train
255.24282455444336,3,0,2,1,5,4,E-,1,2,2,400,600,250.0,2,D03MA,154,train
143.55921745300293,3,0,2,1,5,4,E-,1,4,5,400,600,250.0,4,D03MA,155,train
207.43799209594727,3,0,2,1,5,4,E-,1,4,5,400,600,250.0,4,D03MA,156,train
271.4560031890869,3,0,2,1,5,4,E-,1,0,1,400,600,250.0,0,D03MA,157,train
223.50096702575684,3,0,2,1,5,4,E-,1,2,2,400,600,250.0,2,D03MA,158,train
239.46309089660645,3,0,2,1,5,4,E-,1,1,3,400,600,250.0,1,D03MA,159,train
191.46108627319336,3,0,2,1,5,4,E-,1,2,2,400,600,250.0,2,D03MA,160,train
191.4970874786377,3,0,2,1,5,4,E-,1,3,0,400,600,250.0,3,D03MA,161,train
239.40515518188477,3,0,2,1,5,4,E-,1,1,3,400,600,250.0,1,D03MA,162,train
207.47780799865723,3,0,2,1,5,4,E-,1,5,4,400,600,250.0,5,D03MA,163,train
143.47100257873535,3,0,2,1,5,4,E-,1,5,4,400,600,250.0,5,D03MA,164,train
175.6889820098877,3,0,2,1,5,4,E-,1,1,3,400,600,250.0,1,D03MA,165,train
127.5930404663086,3,0,2,1,5,4,E-,1,5,4,400,600,250.0,5,D03MA,166,train
79.58006858825684,3,0,2,1,5,4,E-,1,4,5,400,600,250.0,4,D03MA,167,train
175.490140914917,3,0,2,1,5,4,E-,1,3,0,400,600,250.0,3,D03MA,168,train
111.52911186218262,3,0,2,1,5,4,E-,1,5,4,400,600,250.0,5,D03MA,169,train
47.5621223449707,3,0,2,1,5,4,E-,1,4,5,400,600,250.0,4,D03MA,170,train
95.60203552246094,3,0,2,1,5,4,E-,1,3,0,400,600,250.0,3,D03MA,171,train
559.3910217285156,3,0,2,1,5,4,E-,1,0,1,400,600,250.0,0,D03MA,172,train
254.70304489135742,3,0,2,1,5,4,E-,1,0,1,400,600,250.0,0,D03MA,173,train
143.41497421264648,3,0,2,1,5,4,E-,1,5,4,400,600,250.0,5,D03MA,174,train
463.51099014282227,3,0,2,1,5,4,E-,1,2,2,400,600,250.0,2,D03MA,175,train
191.48993492126465,3,0,2,1,5,4,E-,0,3,0,400,600,250.0,2,D03MA,176,train
143.4159278869629,3,0,2,1,5,4,E-,1,5,4,400,600,250.0,5,D03MA,177,train
287.45198249816895,3,0,2,1,5,4,E-,1,2,2,400,600,250.0,2,D03MA,178,train
335.4229927062988,3,0,2,1,5,4,E-,1,0,1,400,600,250.0,0,D03MA,179,train
111.2217903137207,3,0,2,1,5,4,E-,1,2,2,400,600,250.0,2,D03MA,180,train
335.4830741882324,3,0,2,1,5,4,E-,1,3,0,400,600,250.0,3,D03MA,181,train
207.38792419433594,3,0,2,1,5,4,E-,1,1,3,400,600,250.0,1,D03MA,182,train
687.4399185180664,3,0,2,1,5,4,E-,1,1,3,400,600,250.0,1,D03MA,183,train
335.4201316833496,3,0,2,1,5,4,E-,1,5,4,400,600,250.0,5,D03MA,184,train
143.3241367340088,3,0,2,1,5,4,E-,1,5,4,400,600,250.0,5,D03MA,185,train
191.37001037597656,3,0,2,1,5,4,E-,1,2,2,400,600,250.0,2,D03MA,186,train
127.47406959533691,3,0,2,1,5,4,E-,0,3,0,400,600,250.0,4,D03MA,187,train
607.4140071868896,3,0,2,1,5,4,E-,1,5,4,400,600,250.0,5,D03MA,188,train
255.34820556640625,3,0,2,1,5,4,E-,1,1,3,400,600,250.0,1,D03MA,189,train
271.33703231811523,3,0,2,1,5,4,E-,1,0,1,400,600,250.0,0,D03MA,190,train
319.34404373168945,3,0,2,1,5,4,E-,1,3,0,400,600,250.0,3,D03MA,191,train
303.41100692749023,3,0,2,1,5,4,E-,1,4,5,400,600,250.0,4,D03MA,192,train
175.4751205444336,3,0,2,1,5,4,E-,1,5,4,400,600,250.0,5,D03MA,193,train
319.4160461425781,3,0,2,1,5,4,E-,1,0,1,400,600,250.0,0,D03MA,194,train
447.3531246185303,3,0,2,1,5,4,E-,1,3,0,400,600,250.0,3,D03MA,195,train
111.40799522399902,3,0,2,1,5,4,E-,1,5,4,400,600,250.0,5,D03MA,196,train
671.3850498199463,3,0,2,1,5,4,E-,0,2,2,400,600,250.0,1,D03MA,197,train
255.45191764831543,3,0,2,1,5,4,E-,1,5,4,400,600,250.0,5,D03MA,198,train
351.32384300231934,3,0,2,1,5,4,E-,1,0,1,400,600,250.0,0,D03MA,199,train
303.4529685974121,3,0,2,1,5,4,E-,1,0,1,400,600,250.0,0,D03MA,200,train
431.47897720336914,3,0,2,1,5,4,E-,1,3,0,400,600,250.0,3,D03MA,201,train
319.3321228027344,3,0,2,1,5,4,E-,1,2,2,400,600,250.0,2,D03MA,202,train
879.5640468597412,3,0,2,1,5,4,E-,1,0,1,400,600,250.0,0,D03MA,203,train
463.5050296783447,3,0,2,1,5,4,E-,1,0,1,400,600,250.0,0,D03MA,204,train
239.38798904418945,3,0,2,1,5,4,E-,1,1,3,400,600,250.0,1,D03MA,205,train
271.4359760284424,3,0,2,1,5,4,E-,1,2,2,400,600,250.0,2,D03MA,206,train
1615.495204925537,3,0,2,1,5,4,E-,1,2,2,400,600,250.0,2,D03MA,207,train
191.38002395629883,3,0,2,1,5,4,E-,1,5,4,400,600,250.0,5,D03MA,208,train
207.46302604675293,3,0,2,1,5,4,E-,1,1,3,400,600,250.0,1,D03MA,209,train
303.44295501708984,3,0,2,1,5,4,E-,0,3,0,400,600,250.0,4,D03MA,210,train
223.65999221801758,3,0,2,1,5,4,E-,1,1,3,400,600,250.0,1,D03MA,211,train
351.49621963500977,3,0,2,1,5,4,E-,1,0,1,400,600,250.0,0,D03MA,212,train
239.42804336547852,3,0,2,1,5,4,E-,1,0,1,400,600,250.0,0,D03MA,213,train
239.37177658081055,3,0,2,1,5,4,E-,1,1,3,400,600,250.0,1,D03MA,214,train
255.5069923400879,3,0,2,1,5,4,E-,1,4,5,400,600,250.0,4,D03MA,215,train
351.4549732208252,3,0,2,1,5,4,E-,1,0,1,400,600,250.0,0,D03MA,216,train
463.4690284729004,3,0,2,1,5,4,E-,1,1,3,400,600,250.0,1,D03MA,217,train
319.4928169250488,3,0,2,1,5,4,E-,1,1,3,400,600,250.0,1,D03MA,218,train
815.5539035797119,3,0,2,1,5,4,E-,1,4,5,400,600,250.0,4,D03MA,219,train
335.482120513916,3,0,2,1,5,4,E-,1,2,2,400,600,250.0,2,D03MA,220,train
207.36289024353027,3,0,2,1,5,4,E-,1,0,1,400,600,250.0,0,D03MA,221,train
191.44511222839355,3,0,2,1,5,4,E-,1,1,3,400,600,250.0,1,D03MA,222,train
255.44500350952148,3,0,2,1,5,4,E-,1,1,3,400,600,250.0,1,D03MA,223,train
271.51012420654297,3,0,2,1,5,4,E-,1,0,1,400,600,250.0,0,D03MA,224,train
319.4880485534668,3,0,2,1,5,4,E-,1,1,3,400,600,250.0,1,D03MA,225,train
719.508171081543,3,0,2,1,5,4,E-,1,5,4,400,600,250.0,5,D03MA,226,train
303.3928871154785,3,0,2,1,5,4,E-,1,4,5,400,600,250.0,4,D03MA,227,train
463.5128974914551,3,0,2,1,5,4,E-,1,3,0,400,600,250.0,3,D03MA,228,train
399.4410037994385,3,0,2,1,5,4,E-,1,0,1,400,600,250.0,0,D03MA,229,train
223.4659194946289,3,0,2,1,5,4,E-,1,4,5,400,600,250.0,4,D03MA,230,train
127.47406959533691,3,0,2,1,5,4,E-,1,5,4,400,600,250.0,5,D03MA,231,train
303.5159111022949,3,0,2,1,5,4,E-,1,1,3,400,600,250.0,1,D03MA,232,train
287.45102882385254,3,0,2,1,5,4,E-,1,1,3,400,600,250.0,1,D03MA,233,train
159.45100784301758,3,0,2,1,5,4,E-,1,4,5,400,600,250.0,4,D03MA,234,train
207.4880599975586,3,0,2,1,5,4,E-,1,1,3,400,600,250.0,1,D03MA,235,train
191.5419101715088,3,0,2,1,5,4,E-,1,4,5,400,600,250.0,4,D03MA,236,train
143.4488296508789,3,0,2,1,5,4,E-,1,5,4,400,600,250.0,5,D03MA,237,train
95.54314613342285,3,0,2,1,5,4,E-,1,4,5,400,600,250.0,4,D03MA,238,train
239.45999145507812,3,0,2,1,5,4,E-,1,3,0,400,600,250.0,3,D03MA,239,train
319.504976272583,3,0,2,1,5,4,E-,1,2,2,400,600,250.0,2,D03MA,240,train
255.29003143310547,3,0,2,1,5,4,E-,1,3,0,400,600,250.0,3,D03MA,241,train
238.97695541381836,3,0,2,1,5,4,E-,1,2,2,400,600,250.0,2,D03MA,242,train
159.32703018188477,3,0,2,1,5,4,E-,1,5,4,400,600,250.0,5,D03MA,243,train
79.5140266418457,3,0,2,1,5,4,E-,1,5,4,400,600,250.0,5,D03MA,244,train
383.4500312805176,3,0,2,1,5,4,E-,1,0,1,400,600,250.0,0,D03MA,245,train
399.2908000946045,3,0,2,1,5,4,E-,1,1,3,400,600,250.0,1,D03MA,246,train
591.2787914276123,3,0,2,1,5,4,E-,1,0,1,400,600,250.0,0,D03MA,247,train
255.39803504943848,3,0,2,1,5,4,E-,1,0,1,400,600,250.0,0,D03MA,248,train
335.42609214782715,3,0,2,1,5,4,E-,1,4,5,400,600,250.0,4,D03MA,249,train
2112.6701831817627,5,2,1,4,3,0,E-,0,2,1,0,1000,250.0,1,D03MA,250,test
1472.7709293365479,5,2,1,4,3,0,E-,1,5,0,0,1000,250.0,5,D03MA,251,test
1024.6779918670654,5,2,1,4,3,0,E-,0,4,3,0,1000,250.0,1,D03MA,252,test
6463.838815689087,5,2,1,4,3,0,E-,1,1,2,0,1000,250.0,1,D03MA,253,test
1280.625820159912,5,2,1,4,3,0,E-,1,4,3,0,1000,250.0,4,D03MA,254,test
992.6581382751465,5,2,1,4,3,0,E-,1,4,3,0,1000,250.0,4,D03MA,255,test
1216.5729999542236,5,2,1,4,3,0,E-,1,1,2,0,1000,250.0,1,D03MA,256,test
1584.6061706542969,5,2,1,4,3,0,E-,0,2,1,0,1000,250.0,1,D03MA,257,test
1088.805913925171,5,2,1,4,3,0,E-,1,4,3,0,1000,250.0,4,D03MA,258,test
1008.6500644683838,5,2,1,4,3,0,E-,1,1,2,0,1000,250.0,1,D03MA,259,test
1376.6639232635498,5,2,1,4,3,0,E-,1,5,0,0,1000,250.0,5,D03MA,260,test
1312.5810623168945,5,2,1,4,3,0,E-,0,1,2,0,1000,250.0,0,D03MA,261,test
1984.8089218139648,5,2,1,4,3,0,E-,1,3,4,0,1000,250.0,3,D03MA,262,test
1120.6719875335693,5,2,1,4,3,0,E-,1,2,1,0,1000,250.0,2,D03MA,263,test
1024.7011184692383,5,2,1,4,3,0,E-,1,2,1,0,1000,250.0,2,D03MA,264,test
1024.6429443359375,5,2,1,4,3,0,E-,1,4,3,0,1000,250.0,4,D03MA,265,test
880.6560039520264,5,2,1,4,3,0,E-,0,2,1,0,1000,250.0,1,D03MA,266,test
832.758903503418,5,2,1,4,3,0,E-,0,0,5,0,1000,250.0,4,D03MA,267,test
832.7350616455078,5,2,1,4,3,0,E-,1,0,5,0,1000,250.0,0,D03MA,268,test
976.6590595245361,5,2,1,4,3,0,E-,1,4,3,0,1000,250.0,4,D03MA,269,test
848.6781120300293,5,2,1,4,3,0,E-,1,1,2,0,1000,250.0,1,D03MA,270,test
1088.7329578399658,5,2,1,4,3,0,E-,1,2,1,0,1000,250.0,2,D03MA,271,test
1296.6499328613281,5,2,1,4,3,0,E-,1,2,1,0,1000,250.0,2,D03MA,272,test
1072.7229118347168,5,2,1,4,3,0,E-,1,0,5,0,1000,250.0,0,D03MA,273,test
1904.6211242675781,5,2,1,4,3,0,E-,1,5,0,0,1000,250.0,5,D03MA,274,test
1360.7020378112793,5,2,1,4,3,0,E-,1,1,2,0,1000,250.0,1,D03MA,275,test
1168.571949005127,5,2,1,4,3,0,E-,1,2,1,0,1000,250.0,2,D03MA,276,test
800.6401062011719,5,2,1,4,3,0,E-,1,5,0,0,1000,250.0,5,D03MA,277,test
1024.6729850769043,5,2,1,4,3,0,E-,1,2,1,0,1000,250.0,2,D03MA,278,test
720.6790447235107,5,2,1,4,3,0,E-,1,5,0,0,1000,250.0,5,D03MA,279,test
1104.7310829162598,5,2,1,4,3,0,E-,1,4,3,0,1000,250.0,4,D03MA,280,test
864.6450042724609,5,2,1,4,3,0,E-,1,1,2,0,1000,250.0,1,D03MA,281,test
1392.685890197754,5,2,1,4,3,0,E-,1,0,5,0,1000,250.0,0,D03MA,282,test
976.6800403594971,5,2,1,4,3,0,E-,1,4,3,0,1000,250.0,4,D03MA,283,test
688.6229515075684,5,2,1,4,3,0,E-,1,2,1,0,1000,250.0,2,D03MA,284,test
752.6099681854248,5,2,1,4,3,0,E-,1,0,5,0,1000,250.0,0,D03MA,285,test
640.812873840332,5,2,1,4,3,0,E-,1,2,1,0,1000,250.0,2,D03MA,286,test
704.6937942504883,5,2,1,4,3,0,E-,1,5,0,0,1000,250.0,5,D03MA,287,test
624.755859375,5,2,1,4,3,0,E-,1,2,1,0,1000,250.0,2,D03MA,288,test
848.7889766693115,5,2,1,4,3,0,E-,1,1,2,0,1000,250.0,1,D03MA,289,test
1552.7050495147705,5,2,1,4,3,0,E-,1,4,3,0,1000,250.0,4,D03MA,290,test
1328.7279605865479,5,2,1,4,3,0,E-,1,3,4,0,1000,250.0,3,D03MA,291,test
640.7067775726318,5,2,1,4,3,0,E-,1,3,4,0,1000,250.0,3,D03MA,292,test
448.7500190734863,5,2,1,4,3,0,E-,1,5,0,0,1000,250.0,5,D03MA,293,test
656.6081047058105,5,2,1,4,3,0,E-,1,2,1,0,1000,250.0,2,D03MA,294,test
560.758113861084,5,2,1,4,3,0,E-,1,2,1,0,1000,250.0,2,D03MA,295,test
976.70578956604,5,2,1,4,3,0,E-,1,3,4,0,1000,250.0,3,D03MA,296,test
704.6551704406738,5,2,1,4,3,0,E-,1,2,1,0,1000,250.0,2,D03MA,297,test
1728.7509441375732,5,2,1,4,3,0,E-,1,4,3,0,1000,250.0,4,D03MA,298,test
816.6921138763428,5,2,1,4,3,0,E-,1,2,1,0,1000,250.0,2,D03MA,299,test
880.6171417236328,5,2,1,4,3,0,E-,1,2,1,0,1000,250.0,2,D03MA,300,test
800.767183303833,5,2,1,4,3,0,E-,1,5,0,0,1000,250.0,5,D03MA,301,test
704.8158645629883,5,2,1,4,3,0,E-,1,1,2,0,1000,250.0,1,D03MA,302,test
640.5971050262451,5,2,1,4,3,0,E-,1,0,5,0,1000,250.0,0,D03MA,303,test
672.7461814880371,5,2,1,4,3,0,E-,1,2,1,0,1000,250.0,2,D03MA,304,test
624.71604347229,5,2,1,4,3,0,E-,1,2,1,0,1000,250.0,2,D03MA,305,test
768.7411308288574,5,2,1,4,3,0,E-,1,3,4,0,1000,250.0,3,D03MA,306,test
704.7700881958008,5,2,1,4,3,0,E-,1,3,4,0,1000,250.0,3,D03MA,307,test
816.756010055542,5,2,1,4,3,0,E-,1,3,4,0,1000,250.0,3,D03MA,308,test
720.7131385803223,5,2,1,4,3,0,E-,1,1,2,0,1000,250.0,1,D03MA,309,test
896.7480659484863,5,2,1,4,3,0,E-,1,0,5,0,1000,250.0,0,D03MA,310,test
672.7879047393799,5,2,1,4,3,0,E-,1,2,1,0,1000,250.0,2,D03MA,311,test
1152.5650024414062,5,2,1,4,3,0,E-,1,5,0,0,1000,250.0,5,D03MA,312,test
832.7851295471191,5,2,1,4,3,0,E-,1,2,1,0,1000,250.0,2,D03MA,313,test
1120.7218170166016,5,2,1,4,3,0,E-,0,4,3,0,1000,250.0,5,D03MA,314,test
1104.7871112823486,5,2,1,4,3,0,E-,1,5,0,0,1000,250.0,5,D03MA,315,test
816.7250156402588,5,2,1,4,3,0,E-,1,3,4,0,1000,250.0,3,D03MA,316,test
688.7969970703125,5,2,1,4,3,0,E-,1,1,2,0,1000,250.0,1,D03MA,317,test
704.787015914917,5,2,1,4,3,0,E-,1,2,1,0,1000,250.0,2,D03MA,318,test
1200.7319927215576,5,2,1,4,3,0,E-,1,4,3,0,1000,250.0,4,D03MA,319,test
992.7749633789062,5,2,1,4,3,0,E-,1,0,5,0,1000,250.0,0,D03MA,320,test
720.7581996917725,5,2,1,4,3,0,E-,1,1,2,0,1000,250.0,1,D03MA,321,test
928.7891387939453,5,2,1,4,3,0,E-,1,5,0,0,1000,250.0,5,D03MA,322,test
720.7698822021484,5,2,1,4,3,0,E-,1,3,4,0,1000,250.0,3,D03MA,323,test
752.7101039886475,5,2,1,4,3,0,E-,1,0,5,0,1000,250.0,0,D03MA,324,test
816.7648315429688,5,2,1,4,3,0,E-,1,5,0,0,1000,250.0,5,D03MA,325,test
1040.7819747924805,5,2,1,4,3,0,E-,1,0,5,0,1000,250.0,0,D03MA,326,test
800.76003074646,5,2,1,4,3,0,E-,1,3,4,0,1000,250.0,3,D03MA,327,test
928.7991523742676,5,2,1,4,3,0,E-,1,0,5,0,1000,250.0,0,D03MA,328,test
704.6740055084229,5,2,1,4,3,0,E-,1,2,1,0,1000,250.0,2,D03MA,329,test
672.4050045013428,5,2,1,4,3,0,E-,1,4,3,0,1000,250.0,4,D03MA,330,test
672.7819442749023,5,2,1,4,3,0,E-,1,3,4,0,1000,250.0,3,D03MA,331,test
608.7758541107178,5,2,1,4,3,0,E-,1,3,4,0,1000,250.0,3,D03MA,332,test
688.6749267578125,5,2,1,4,3,0,E-,1,0,5,0,1000,250.0,0,D03MA,333,test
464.72692489624023,5,2,1,4,3,0,E-,1,5,0,0,1000,250.0,5,D03MA,334,test
816.7219161987305,5,2,1,4,3,0,E-,1,5,0,0,1000,250.0,5,D03MA,335,test
560.5301856994629,5,2,1,4,3,0,E-,1,3,4,0,1000,250.0,3,D03MA,336,test
720.7660675048828,5,2,1,4,3,0,E-,1,1,2,0,1000,250.0,1,D03MA,337,test
512.7410888671875,5,2,1,4,3,0,E-,1,1,2,0,1000,250.0,1,D03MA,338,test
688.755989074707,5,2,1,4,3,0,E-,1,3,4,0,1000,250.0,3,D03MA,339,test
560.4751110076904,5,2,1,4,3,0,E-,1,5,0,0,1000,250.0,5,D03MA,340,test
880.7830810546875,5,2,1,4,3,0,E-,1,2,1,0,1000,250.0,2,D03MA,341,test
672.705888748169,5,2,1,4,3,0,E-,1,4,3,0,1000,250.0,4,D03MA,342,test
752.6888847351074,5,2,1,4,3,0,E-,1,3,4,0,1000,250.0,3,D03MA,343,test
544.7351932525635,5,2,1,4,3,0,E-,1,5,0,0,1000,250.0,5,D03MA,344,test
560.7190132141113,5,2,1,4,3,0,E-,1,5,0,0,1000,250.0,5,D03MA,345,test
720.801830291748,5,2,1,4,3,0,E-,1,2,1,0,1000,250.0,2,D03MA,346,test
560.7709884643555,5,2,1,4,3,0,E-,1,4,3,0,1000,250.0,4,D03MA,347,test
768.7761783599854,5,2,1,4,3,0,E-,1,1,2,0,1000,250.0,1,D03MA,348,test
656.7819118499756,5,2,1,4,3,0,E-,1,4,3,0,1000,250.0,4,D03MA,349,test
592.7720069885254,5,2,1,4,3,0,E-,1,2,1,0,1000,250.0,2,D03MA,350,test
736.7639541625977,5,2,1,4,3,0,E-,1,4,3,0,1000,250.0,4,D03MA,351,test
624.7742176055908,5,2,1,4,3,0,E-,1,1,2,0,1000,250.0,1,D03MA,352,test
1152.838945388794,5,2,1,4,3,0,E-,1,1,2,0,1000,250.0,1,D03MA,353,test
544.6000099182129,5,2,1,4,3,0,E-,1,5,0,0,1000,250.0,5,D03MA,354,test
1184.7219467163086,5,2,1,4,3,0,E-,1,2,1,0,1000,250.0,2,D03MA,355,test
992.8081035614014,5,2,1,4,3,0,E-,1,5,0,0,1000,250.0,5,D03MA,356,test
752.7790069580078,5,2,1,4,3,0,E-,1,4,3,0,1000,250.0,4,D03MA,357,test
1088.8218879699707,5,2,1,4,3,0,E-,1,0,5,0,1000,250.0,0,D03MA,358,test
672.5039482116699,5,2,1,4,3,0,E-,1,5,0,0,1000,250.0,5,D03MA,359,test
608.6740493774414,5,2,1,4,3,0,E-,1,4,3,0,1000,250.0,4,D03MA,360,test
672.7890968322754,5,2,1,4,3,0,E-,1,2,1,0,1000,250.0,2,D03MA,361,test
672.7819442749023,5,2,1,4,3,0,E-,1,0,5,0,1000,250.0,0,D03MA,362,test
752.7852058410645,5,2,1,4,3,0,E-,1,0,5,0,1000,250.0,0,D03MA,363,test
656.7091941833496,5,2,1,4,3,0,E-,1,2,1,0,1000,250.0,2,D03MA,364,test
880.7289600372314,5,2,1,4,3,0,E-,1,0,5,0,1000,250.0,0,D03MA,365,test
816.7829513549805,5,2,1,4,3,0,E-,1,1,2,0,1000,250.0,1,D03MA,366,test
608.6850166320801,5,2,1,4,3,0,E-,1,5,0,0,1000,250.0,5,D03MA,367,test
864.8228645324707,5,2,1,4,3,0,E-,1,5,0,0,1000,250.0,5,D03MA,368,test
560.6131553649902,5,2,1,4,3,0,E-,1,5,0,0,1000,250.0,5,D03MA,369,test
640.7060623168945,5,2,1,4,3,0,E-,1,4,3,0,1000,250.0,4,D03MA,370,test
768.6829566955566,5,2,1,4,3,0,E-,1,5,0,0,1000,250.0,5,D03MA,371,test
576.6229629516602,5,2,1,4,3,0,E-,1,4,3,0,1000,250.0,4,D03MA,372,test
736.7939949035645,5,2,1,4,3,0,E-,1,3,4,0,1000,250.0,3,D03MA,373,test
528.7530422210693,5,2,1,4,3,0,E-,1,5,0,0,1000,250.0,5,D03MA,374,test
560.7759952545166,5,2,1,4,3,0,E-,1,4,3,0,1000,250.0,4,D03MA,375,test
672.7919578552246,5,2,1,4,3,0,E-,1,2,1,0,1000,250.0,2,D03MA,376,test
672.7931499481201,5,2,1,4,3,0,E-,1,4,3,0,1000,250.0,4,D03MA,377,test
800.7299900054932,5,2,1,4,3,0,E-,1,1,2,0,1000,250.0,1,D03MA,378,test
624.7720718383789,5,2,1,4,3,0,E-,1,5,0,0,1000,250.0,5,D03MA,379,test
720.7679748535156,5,2,1,4,3,0,E-,1,1,2,0,1000,250.0,1,D03MA,380,test
640.592098236084,5,2,1,4,3,0,E-,1,5,0,0,1000,250.0,5,D03MA,381,test
672.950029373169,5,2,1,4,3,0,E-,1,2,1,0,1000,250.0,2,D03MA,382,test
704.9400806427002,5,2,1,4,3,0,E-,1,2,1,0,1000,250.0,2,D03MA,383,test
560.7078075408936,5,2,1,4,3,0,E-,1,2,1,0,1000,250.0,2,D03MA,384,test
705.0631046295166,5,2,1,4,3,0,E-,1,3,4,0,1000,250.0,3,D03MA,385,test
768.9018249511719,5,2,1,4,3,0,E-,0,0,5,0,1000,250.0,2,D03MA,386,test
688.9660358428955,5,2,1,4,3,0,E-,1,2,1,0,1000,250.0,2,D03MA,387,test
912.7020835876465,5,2,1,4,3,0,E-,1,4,3,0,1000,250.0,4,D03MA,388,test
864.9859428405762,5,2,1,4,3,0,E-,1,0,5,0,1000,250.0,0,D03MA,389,test
656.8799018859863,5,2,1,4,3,0,E-,1,1,2,0,1000,250.0,1,D03MA,390,test
656.8088531494141,5,2,1,4,3,0,E-,1,2,1,0,1000,250.0,2,D03MA,391,test
560.7728958129883,5,2,1,4,3,0,E-,1,3,4,0,1000,250.0,3,D03MA,392,test
704.8120498657227,5,2,1,4,3,0,E-,1,1,2,0,1000,250.0,1,D03MA,393,test
1104.7909259796143,5,2,1,4,3,0,E-,1,0,5,0,1000,250.0,0,D03MA,394,test
688.7359619140625,5,2,1,4,3,0,E-,1,2,1,0,1000,250.0,2,D03MA,395,test
624.7439384460449,5,2,1,4,3,0,E-,1,2,1,0,1000,250.0,2,D03MA,396,test
512.7849578857422,5,2,1,4,3,0,E-,1,2,1,0,1000,250.0,2,D03MA,397,test
672.7910041809082,5,2,1,4,3,0,E-,1,1,2,0,1000,250.0,1,D03MA,398,test
896.8260288238525,5,2,1,4,3,0,E-,1,5,0,0,1000,250.0,5,D03MA,399,test
560.7140064239502,5,2,1,4,3,0,E-,1,5,0,0,1000,250.0,5,D03MA,400,test
880.720853805542,5,2,1,4,3,0,E-,1,3,4,0,1000,250.0,3,D03MA,401,test
608.6609363555908,5,2,1,4,3,0,E-,1,3,4,0,1000,250.0,3,D03MA,402,test
736.6681098937988,5,2,1,4,3,0,E-,1,2,1,0,1000,250.0,2,D03MA,403,test
544.7490215301514,5,2,1,4,3,0,E-,1,1,2,0,1000,250.0,1,D03MA,404,test
688.788890838623,5,2,1,4,3,0,E-,1,2,1,0,1000,250.0,2,D03MA,405,test
768.7928676605225,5,2,1,4,3,0,E-,1,4,3,0,1000,250.0,4,D03MA,406,test
688.7569427490234,5,2,1,4,3,0,E-,1,0,5,0,1000,250.0,0,D03MA,407,test
592.7169322967529,5,2,1,4,3,0,E-,1,4,3,0,1000,250.0,4,D03MA,408,test
576.6911506652832,5,2,1,4,3,0,E-,1,1,2,0,1000,250.0,1,D03MA,409,test
784.6469879150391,5,2,1,4,3,0,E-,1,0,5,0,1000,250.0,0,D03MA,410,test
800.8019924163818,5,2,1,4,3,0,E-,1,1,2,0,1000,250.0,1,D03MA,411,test
1200.740098953247,5,2,1,4,3,0,E-,1,0,5,0,1000,250.0,0,D03MA,412,test
560.7280731201172,5,2,1,4,3,0,E-,1,5,0,0,1000,250.0,5,D03MA,413,test
992.8131103515625,5,2,1,4,3,0,E-,1,5,0,0,1000,250.0,5,D03MA,414,test
720.7739353179932,5,2,1,4,3,0,E-,1,3,4,0,1000,250.0,3,D03MA,415,test
576.6949653625488,5,2,1,4,3,0,E-,1,5,0,0,1000,250.0,5,D03MA,416,test
704.718828201294,5,2,1,4,3,0,E-,1,3,4,0,1000,250.0,3,D03MA,417,test
832.6280117034912,5,2,1,4,3,0,E-,1,0,5,0,1000,250.0,0,D03MA,418,test
592.6730632781982,5,2,1,4,3,0,E-,1,2,1,0,1000,250.0,2,D03MA,419,test
1344.7589874267578,5,2,1,4,3,0,E-,1,0,5,0,1000,250.0,0,D03MA,420,test
624.7859001159668,5,2,1,4,3,0,E-,1,1,2,0,1000,250.0,1,D03MA,421,test
736.7308139801025,5,2,1,4,3,0,E-,1,0,5,0,1000,250.0,0,D03MA,422,test
656.4860343933105,5,2,1,4,3,0,E-,1,4,3,0,1000,250.0,4,D03MA,423,test
720.7410335540771,5,2,1,4,3,0,E-,1,3,4,0,1000,250.0,3,D03MA,424,test
848.7710952758789,5,2,1,4,3,0,E-,1,0,5,0,1000,250.0,0,D03MA,425,test
672.7559566497803,5,2,1,4,3,0,E-,1,5,0,0,1000,250.0,5,D03MA,426,test
656.7089557647705,5,2,1,4,3,0,E-,1,3,4,0,1000,250.0,3,D03MA,427,test
624.6190071105957,5,2,1,4,3,0,E-,1,4,3,0,1000,250.0,4,D03MA,428,test
576.7819881439209,5,2,1,4,3,0,E-,1,4,3,0,1000,250.0,4,D03MA,429,test
608.6611747741699,5,2,1,4,3,0,E-,1,3,4,0,1000,250.0,3,D03MA,430,test
704.7622203826904,5,2,1,4,3,0,E-,1,5,0,0,1000,250.0,5,D03MA,431,test
768.596887588501,5,2,1,4,3,0,E-,1,4,3,0,1000,250.0,4,D03MA,432,test
1072.7238655090332,5,2,1,4,3,0,E-,1,5,0,0,1000,250.0,5,D03MA,433,test
640.7830715179443,5,2,1,4,3,0,E-,1,2,1,0,1000,250.0,2,D03MA,434,test
640.6168937683105,5,2,1,4,3,0,E-,1,1,2,0,1000,250.0,1,D03MA,435,test
608.7138652801514,5,2,1,4,3,0,E-,1,1,2,0,1000,250.0,1,D03MA,436,test
544.6059703826904,5,2,1,4,3,0,E-,1,5,0,0,1000,250.0,5,D03MA,437,test
640.6857967376709,5,2,1,4,3,0,E-,1,2,1,0,1000,250.0,2,D03MA,438,test
672.713041305542,5,2,1,4,3,0,E-,1,3,4,0,1000,250.0,3,D03MA,439,test
656.7161083221436,5,2,1,4,3,0,E-,1,4,3,0,1000,250.0,4,D03MA,440,test
432.6519966125488,5,2,1,4,3,0,E-,1,4,3,0,1000,250.0,4,D03MA,441,test
416.58997535705566,5,2,1,4,3,0,E-,1,4,3,0,1000,250.0,4,D03MA,442,test
544.6341037750244,5,2,1,4,3,0,E-,1,3,4,0,1000,250.0,3,D03MA,443,test
608.7419986724854,5,2,1,4,3,0,E-,1,4,3,0,1000,250.0,4,D03MA,444,test
736.6070747375488,5,2,1,4,3,0,E-,0,0,5,0,1000,250.0,4,D03MA,445,test
704.7159671783447,5,2,1,4,3,0,E-,1,2,1,0,1000,250.0,2,D03MA,446,test
656.7051410675049,5,2,1,4,3,0,E-,1,0,5,0,1000,250.0,0,D03MA,447,test
560.6188774108887,5,2,1,4,3,0,E-,1,0,5,0,1000,250.0,0,D03MA,448,test
608.5641384124756,5,2,1,4,3,0,E-,1,5,0,0,1000,250.0,5,D03MA,449,test
496.6909885406494,5,2,1,4,3,0,E-,1,5,0,0,1000,250.0,5,D03MA,450,test
432.77812004089355,5,2,1,4,3,0,E-,1,5,0,0,1000,250.0,5,D03MA,451,test
640.7821178436279,5,2,1,4,3,0,E-,1,1,2,0,1000,250.0,1,D03MA,452,test
768.8031196594238,5,2,1,4,3,0,E-,1,1,2,0,1000,250.0,1,D03MA,453,test
800.7800579071045,5,2,1,4,3,0,E-,1,0,5,0,1000,250.0,0,D03MA,454,test
784.7981452941895,5,2,1,4,3,0,E-,1,3,4,0,1000,250.0,3,D03MA,455,test
592.6949977874756,5,2,1,4,3,0,E-,1,4,3,0,1000,250.0,4,D03MA,456,test
656.7819118499756,5,2,1,4,3,0,E-,1,3,4,0,1000,250.0,3,D03MA,457,test
976.823091506958,5,2,1,4,3,0,E-,1,0,5,0,1000,250.0,0,D03MA,458,test
512.725830078125,5,2,1,4,3,0,E-,1,3,4,0,1000,250.0,3,D03MA,459,test
560.7619285583496,5,2,1,4,3,0,E-,1,5,0,0,1000,250.0,5,D03MA,460,test
576.772928237915,5,2,1,4,3,0,E-,1,2,1,0,1000,250.0,2,D03MA,461,test
512.7959251403809,5,2,1,4,3,0,E-,1,2,1,0,1000,250.0,2,D03MA,462,test
592.7250385284424,5,2,1,4,3,0,E-,1,1,2,0,1000,250.0,1,D03MA,463,test
1056.830883026123,5,2,1,4,3,0,E-,1,2,1,0,1000,250.0,2,D03MA,464,test
720.7181453704834,5,2,1,4,3,0,E-,1,0,5,0,1000,250.0,0,D03MA,465,test
592.8068161010742,5,2,1,4,3,0,E-,1,2,1,0,1000,250.0,2,D03MA,466,test
592.7329063415527,5,2,1,4,3,0,E-,1,4,3,0,1000,250.0,4,D03MA,467,test
432.77692794799805,5,2,1,4,3,0,E-,1,4,3,0,1000,250.0,4,D03MA,468,test
784.7988605499268,5,2,1,4,3,0,E-,1,4,3,0,1000,250.0,4,D03MA,469,test
1008.807897567749,5,2,1,4,3,0,E-,1,0,5,0,1000,250.0,0,D03MA,470,test
688.7688636779785,5,2,1,4,3,0,E-,1,2,1,0,1000,250.0,2,D03MA,471,test
560.7538223266602,5,2,1,4,3,0,E-,1,2,1,0,1000,250.0,2,D03MA,472,test
800.76003074646,5,2,1,4,3,0,E-,1,1,2,0,1000,250.0,1,D03MA,473,test
656.7609310150146,5,2,1,4,3,0,E-,1,3,4,0,1000,250.0,3,D03MA,474,test
832.4310779571533,5,2,1,4,3,0,E-,1,2,1,0,1000,250.0,2,D03MA,475,test
624.7649192810059,5,2,1,4,3,0,E-,1,1,2,0,1000,250.0,1,D03MA,476,test
752.7198791503906,5,2,1,4,3,0,E-,1,3,4,0,1000,250.0,3,D03MA,477,test
1184.8180294036865,5,2,1,4,3,0,E-,1,0,5,0,1000,250.0,0,D03MA,478,test
496.6878890991211,5,2,1,4,3,0,E-,1,4,3,0,1000,250.0,4,D03MA,479,test
704.7848701477051,5,2,1,4,3,0,E-,1,5,0,0,1000,250.0,5,D03MA,480,test
720.7679748535156,5,2,1,4,3,0,E-,1,0,5,0,1000,250.0,0,D03MA,481,test
1216.7620658874512,5,2,1,4,3,0,E-,1,0,5,0,1000,250.0,0,D03MA,482,test
656.7502021789551,5,2,1,4,3,0,E-,1,1,2,0,1000,250.0,1,D03MA,483,test
768.8310146331787,5,2,1,4,3,0,E-,1,0,5,0,1000,250.0,0,D03MA,484,test
800.7900714874268,5,2,1,4,3,0,E-,1,4,3,0,1000,250.0,4,D03MA,485,test
544.7268486022949,5,2,1,4,3,0,E-,1,4,3,0,1000,250.0,4,D03MA,486,test
576.7838954925537,5,2,1,4,3,0,E-,1,2,1,0,1000,250.0,2,D03MA,487,test
592.1070575714111,5,2,1,4,3,0,E-,1,2,1,0,1000,250.0,2,D03MA,488,test
608.7708473205566,5,2,1,4,3,0,E-,1,1,2,0,1000,250.0,1,D03MA,489,test
800.8019924163818,5,2,1,4,3,0,E-,1,5,0,0,1000,250.0,5,D03MA,490,test
528.7971496582031,5,2,1,4,3,0,E-,1,2,1,0,1000,250.0,2,D03MA,491,test
736.7448806762695,5,2,1,4,3,0,E-,1,0,5,0,1000,250.0,0,D03MA,492,test
592.738151550293,5,2,1,4,3,0,E-,1,1,2,0,1000,250.0,1,D03MA,493,test
704.4858932495117,5,2,1,4,3,0,E-,1,3,4,0,1000,250.0,3,D03MA,494,test
640.7790184020996,5,2,1,4,3,0,E-,1,1,2,0,1000,250.0,1,D03MA,495,test
784.60693359375,5,2,1,4,3,0,E-,1,0,5,0,1000,250.0,0,D03MA,496,test
608.7701320648193,5,2,1,4,3,0,E-,1,5,0,0,1000,250.0,5,D03MA,497,test
624.7758865356445,5,2,1,4,3,0,E-,1,4,3,0,1000,250.0,4,D03MA,498,test
640.7721042633057,5,2,1,4,3,0,E-,1,0,5,0,1000,250.0,0,D03MA,499,test
