RT,SRmap_0,SRmap_1,SRmap_2,SRmap_3,SRmap_4,SRmap_5,condition,correct,correct_response,curstim,ms-precue,ms-prestimblank,ntrials,response,subject,trial,type
1178.9159774780273,3,4,5,2,1,0,E+,1,5,2,400,600,250.0,5,C14YM,0,train
106.87708854675293,3,4,5,2,1,0,E+,1,0,5,400,600,250.0,0,C14YM,1,train
26.660919189453125,3,4,5,2,1,0,E+,1,2,3,400,600,250.0,2,C14YM,2,train
43.11513900756836,3,4,5,2,1,0,E+,1,3,0,400,600,250.0,3,C14YM,3,train
43.077945709228516,3,4,5,2,1,0,E+,1,1,4,400,600,250.0,1,C14YM,4,train
41.563987731933594,3,4,5,2,1,0,E+,1,5,2,400,600,250.0,5,C14YM,5,train
1483.3040237426758,3,4,5,2,1,0,E+,1,5,2,400,600,250.0,5,C14YM,6,train
491.37091636657715,3,4,5,2,1,0,E+,1,5,2,400,600,250.0,5,C14YM,7,train
0.17213821411132812,3,4,5,2,1,0,E+,1,5,2,400,600,250.0,5,C14YM,8,train
11.249065399169922,3,4,5,2,1,0,E+,0,2,3,400,600,250.0,4,C14YM,9,train
537.0669364929199,3,4,5,2,1,0,E+,1,2,3,400,600,250.0,2,C14YM,10,train
26.42512321472168,3,4,5,2,1,0,E+,0,3,0,400,600,250.0,2,C14YM,11,train
42.83905029296875,3,4,5,2,1,0,E+,1,4,1,400,600,250.0,4,C14YM,12,train
379.1999816894531,3,4,5,2,1,0,E+,1,4,1,400,600,250.0,4,C14YM,13,train
11.070013046264648,3,4,5,2,1,0,E+,0,1,4,400,600,250.0,3,C14YM,14,train
27.01592445373535,3,4,5,2,1,0,E+,1,1,4,400,600,250.0,1,C14YM,15,train
11.100053787231445,3,4,5,2,1,0,E+,1,2,3,400,600,250.0,2,C14YM,16,train
347.0950126647949,3,4,5,2,1,0,E+,1,2,3,400,600,250.0,2,C14YM,17,train
0.17404556274414062,3,4,5,2,1,0,E+,1,2,3,400,600,250.0,2,C14YM,18,train
75.27804374694824,3,4,5,2,1,0,E+,0,4,1,400,600,250.0,3,C14YM,19,train
27.2519588470459,3,4,5,2,1,0,E+,1,5,2,400,600,250.0,5,C14YM,20,train
27.197837829589844,3,4,5,2,1,0,E+,1,1,4,400,600,250.0,1,C14YM,21,train
123.26908111572266,3,4,5,2,1,0,E+,1,2,3,400,600,250.0,2,C14YM,22,train
363.1129264831543,3,4,5,2,1,0,E+,1,2,3,400,600,250.0,2,C14YM,23,train
58.32505226135254,3,4,5,2,1,0,E+,1,4,1,400,600,250.0,4,C14YM,24,train
59.07011032104492,3,4,5,2,1,0,E+,1,2,3,400,600,250.0,2,C14YM,25,train
315.1390552520752,3,4,5,2,1,0,E+,1,2,3,400,600,250.0,2,C14YM,26,train
11.374950408935547,3,4,5,2,1,0,E+,1,1,4,400,600,250.0,1,C14YM,27,train
11.053085327148438,3,4,5,2,1,0,E+,1,2,3,400,600,250.0,2,C14YM,28,train
74.86081123352051,3,4,5,2,1,0,E+,1,5,2,400,600,250.0,5,C14YM,29,train
58.74991416931152,3,4,5,2,1,0,E+,1,1,4,400,600,250.0,1,C14YM,30,train
138.94009590148926,3,4,5,2,1,0,E+,0,3,0,400,600,250.0,4,C14YM,31,train
58.88700485229492,3,4,5,2,1,0,E+,1,4,1,400,600,250.0,4,C14YM,32,train
59.15999412536621,3,4,5,2,1,0,E+,1,3,0,400,600,250.0,3,C14YM,33,train
58.84599685668945,3,4,5,2,1,0,E+,1,1,4,400,600,250.0,1,C14YM,34,train
875.0040531158447,3,4,5,2,1,0,E+,1,1,4,400,600,250.0,1,C14YM,35,train
26.925086975097656,3,4,5,2,1,0,E+,1,1,4,400,600,250.0,1,C14YM,36,train
89.60103988647461,3,4,5,2,1,0,E+,1,2,3,400,600,250.0,2,C14YM,37,train
26.372194290161133,3,4,5,2,1,0,E+,1,0,5,400,600,250.0,0,C14YM,38,train
59.15403366088867,3,4,5,2,1,0,E+,1,5,2,400,600,250.0,5,C14YM,39,train
75.15382766723633,3,4,5,2,1,0,E+,1,2,3,400,600,250.0,2,C14YM,40,train
72.63779640197754,3,4,5,2,1,0,E+,1,5,2,400,600,250.0,5,C14YM,41,train
75.03700256347656,3,4,5,2,1,0,E+,1,2,3,400,600,250.0,2,C14YM,42,train
58.96806716918945,3,4,5,2,1,0,E+,1,4,1,400,600,250.0,4,C14YM,43,train
74.8739242553711,3,4,5,2,1,0,E+,1,5,2,400,600,250.0,5,C14YM,44,train
168.7030792236328,3,4,5,2,1,0,E+,1,4,1,400,600,250.0,4,C14YM,45,train
0.16307830810546875,3,4,5,2,1,0,E+,1,4,1,400,600,250.0,4,C14YM,46,train
26.939868927001953,3,4,5,2,1,0,E+,1,3,0,400,600,250.0,3,C14YM,47,train
59.16190147399902,3,4,5,2,1,0,E+,1,0,5,400,600,250.0,0,C14YM,48,train
0.14591217041015625,3,4,5,2,1,0,E+,1,0,5,400,600,250.0,0,C14YM,49,train
219.102144241333,3,4,5,2,1,0,E+,1,4,1,400,600,250.0,4,C14YM,50,train
106.73403739929199,3,4,5,2,1,0,E+,1,2,3,400,600,250.0,2,C14YM,51,train
603.1398773193359,3,4,5,2,1,0,E+,1,2,3,400,600,250.0,2,C14YM,52,train
171.187162399292,3,4,5,2,1,0,E+,1,4,1,400,600,250.0,4,C14YM,53,train
58.94899368286133,3,4,5,2,1,0,E+,1,5,2,400,600,250.0,5,C14YM,54,train
58.595895767211914,3,4,5,2,1,0,E+,1,0,5,400,600,250.0,0,C14YM,55,train
27.33898162841797,3,4,5,2,1,0,E+,1,1,4,400,600,250.0,1,C14YM,56,train
75.04010200500488,3,4,5,2,1,0,E+,1,4,1,400,600,250.0,4,C14YM,57,train
42.736053466796875,3,4,5,2,1,0,E+,1,0,5,400,600,250.0,0,C14YM,58,train
74.96094703674316,3,4,5,2,1,0,E+,1,5,2,400,600,250.0,5,C14YM,59,train
56.516170501708984,3,4,5,2,1,0,E+,1,1,4,400,600,250.0,1,C14YM,60,train
0.1270771026611328,3,4,5,2,1,0,E+,1,1,4,400,600,250.0,1,C14YM,61,train
667.1271324157715,3,4,5,2,1,0,E+,1,1,4,400,600,250.0,1,C14YM,62,train
42.88887977600098,3,4,5,2,1,0,E+,1,0,5,400,600,250.0,0,C14YM,63,train
91.0789966583252,3,4,5,2,1,0,E+,1,2,3,400,600,250.0,2,C14YM,64,train
58.8231086730957,3,4,5,2,1,0,E+,1,5,2,400,600,250.0,5,C14YM,65,train
43.168067932128906,3,4,5,2,1,0,E+,1,1,4,400,600,250.0,1,C14YM,66,train
41.192054748535156,3,4,5,2,1,0,E+,1,4,1,400,600,250.0,4,C14YM,67,train
43.02692413330078,3,4,5,2,1,0,E+,1,4,1,400,600,250.0,4,C14YM,68,train
43.211936950683594,3,4,5,2,1,0,E+,1,5,2,400,600,250.0,5,C14YM,69,train
9.150028228759766,3,4,5,2,1,0,E+,1,5,2,400,600,250.0,5,C14YM,70,train
26.723861694335938,3,4,5,2,1,0,E+,1,1,4,400,600,250.0,1,C14YM,71,train
0.16808509826660156,3,4,5,2,1,0,E+,1,0,5,400,600,250.0,0,C14YM,72,train
682.7929019927979,3,4,5,2,1,0,E+,1,2,3,400,600,250.0,2,C14YM,73,train
75.03795623779297,3,4,5,2,1,0,E+,1,2,3,400,600,250.0,2,C14YM,74,train
139.1899585723877,3,4,5,2,1,0,E+,1,4,1,400,600,250.0,4,C14YM,75,train
59.07297134399414,3,4,5,2,1,0,E+,1,3,0,400,600,250.0,3,C14YM,76,train
0.11801719665527344,3,4,5,2,1,0,E+,1,1,4,400,600,250.0,1,C14YM,77,train
26.382923126220703,3,4,5,2,1,0,E+,1,2,3,400,600,250.0,2,C14YM,78,train
72.4790096282959,3,4,5,2,1,0,E+,1,5,2,400,600,250.0,5,C14YM,79,train
26.103973388671875,3,4,5,2,1,0,E+,1,4,1,400,600,250.0,4,C14YM,80,train
59.010982513427734,3,4,5,2,1,0,E+,1,1,4,400,600,250.0,1,C14YM,81,train
283.06007385253906,3,4,5,2,1,0,E+,0,3,0,400,600,250.0,4,C14YM,82,train
59.094905853271484,3,4,5,2,1,0,E+,1,0,5,400,600,250.0,0,C14YM,83,train
122.95293807983398,3,4,5,2,1,0,E+,1,2,3,400,600,250.0,2,C14YM,84,train
56.89501762390137,3,4,5,2,1,0,E+,1,0,5,400,600,250.0,0,C14YM,85,train
75.03390312194824,3,4,5,2,1,0,E+,1,5,2,400,600,250.0,5,C14YM,86,train
122.50804901123047,3,4,5,2,1,0,E+,1,3,0,400,600,250.0,3,C14YM,87,train
58.821916580200195,3,4,5,2,1,0,E+,1,0,5,400,600,250.0,0,C14YM,88,train
139.03498649597168,3,4,5,2,1,0,E+,1,3,0,400,600,250.0,3,C14YM,89,train
650.0949859619141,3,4,5,2,1,0,E+,1,4,1,400,600,250.0,4,C14YM,90,train
490.476131439209,3,4,5,2,1,0,E+,1,4,1,400,600,250.0,4,C14YM,91,train
250.75602531433105,3,4,5,2,1,0,E+,1,2,3,400,600,250.0,2,C14YM,92,train
75.03294944763184,3,4,5,2,1,0,E+,1,5,2,400,600,250.0,5,C14YM,93,train
91.033935546875,3,4,5,2,1,0,E+,1,1,4,400,600,250.0,1,C14YM,94,train
74.68104362487793,3,4,5,2,1,0,E+,1,2,3,400,600,250.0,2,C14YM,95,train
27.048110961914062,3,4,5,2,1,0,E+,1,2,3,400,600,250.0,2,C14YM,96,train
425.6000518798828,3,4,5,2,1,0,E+,1,2,3,400,600,250.0,2,C14YM,97,train
347.02110290527344,3,4,5,2,1,0,E+,1,2,3,400,600,250.0,2,C14YM,98,train
107.22994804382324,3,4,5,2,1,0,E+,1,4,1,400,600,250.0,4,C14YM,99,train
106.78911209106445,3,4,5,2,1,0,E+,1,2,3,400,600,250.0,2,C14YM,100,train
27.04787254333496,3,4,5,2,1,0,E+,1,0,5,400,600,250.0,0,C14YM,101,train
91.04204177856445,3,4,5,2,1,0,E+,1,2,3,400,600,250.0,2,C14YM,102,train
123.02494049072266,3,4,5,2,1,0,E+,1,3,0,400,600,250.0,3,C14YM,103,train
90.94595909118652,3,4,5,2,1,0,E+,1,5,2,400,600,250.0,5,C14YM,104,train
107.10000991821289,3,4,5,2,1,0,E+,1,1,4,400,600,250.0,1,C14YM,105,train
106.88996315002441,3,4,5,2,1,0,E+,1,0,5,400,600,250.0,0,C14YM,106,train
123.05998802185059,3,4,5,2,1,0,E+,1,3,0,400,600,250.0,3,C14YM,107,train
91.19892120361328,3,4,5,2,1,0,E+,1,1,4,400,600,250.0,1,C14YM,108,train
43.15185546875,3,4,5,2,1,0,E+,1,1,4,400,600,250.0,1,C14YM,109,train
59.14115905761719,3,4,5,2,1,0,E+,1,0,5,400,600,250.0,0,C14YM,110,train
171.0350513458252,3,4,5,2,1,0,E+,0,4,1,400,600,250.0,3,C14YM,111,train
138.92817497253418,3,4,5,2,1,0,E+,1,1,4,400,600,250.0,1,C14YM,112,train
59.00287628173828,3,4,5,2,1,0,E+,1,2,3,400,600,250.0,2,C14YM,113,train
26.494979858398438,3,4,5,2,1,0,E+,1,3,0,400,600,250.0,3,C14YM,114,train
122.83492088317871,3,4,5,2,1,0,E+,1,2,3,400,600,250.0,2,C14YM,115,train
58.305978775024414,3,4,5,2,1,0,E+,1,5,2,400,600,250.0,5,C14YM,116,train
106.81295394897461,3,4,5,2,1,0,E+,1,2,3,400,600,250.0,2,C14YM,117,train
41.79191589355469,3,4,5,2,1,0,E+,1,5,2,400,600,250.0,5,C14YM,118,train
747.6940155029297,3,4,5,2,1,0,E+,1,5,2,400,600,250.0,5,C14YM,119,train
107.17988014221191,3,4,5,2,1,0,E+,1,2,3,400,600,250.0,2,C14YM,120,train
459.1641426086426,3,4,5,2,1,0,E+,1,0,5,400,600,250.0,0,C14YM,121,train
122.70903587341309,3,4,5,2,1,0,E+,1,0,5,400,600,250.0,0,C14YM,122,train
90.77286720275879,3,4,5,2,1,0,E+,1,0,5,400,600,250.0,0,C14YM,123,train
186.93184852600098,3,4,5,2,1,0,E+,1,4,1,400,600,250.0,4,C14YM,124,train
11.008977890014648,3,4,5,2,1,0,E+,1,5,2,400,600,250.0,5,C14YM,125,train
75.22797584533691,3,4,5,2,1,0,E+,0,3,0,400,600,250.0,2,C14YM,126,train
107.13887214660645,3,4,5,2,1,0,E+,1,5,2,400,600,250.0,5,C14YM,127,train
72.72195816040039,3,4,5,2,1,0,E+,1,5,2,400,600,250.0,5,C14YM,128,train
90.93403816223145,3,4,5,2,1,0,E+,1,5,2,400,600,250.0,5,C14YM,129,train
75.16694068908691,3,4,5,2,1,0,E+,1,2,3,400,600,250.0,2,C14YM,130,train
75.01602172851562,3,4,5,2,1,0,E+,1,2,3,400,600,250.0,2,C14YM,131,train
40.18712043762207,3,4,5,2,1,0,E+,1,3,0,400,600,250.0,3,C14YM,132,train
91.12095832824707,3,4,5,2,1,0,E+,1,1,4,400,600,250.0,1,C14YM,133,train
123.0781078338623,3,4,5,2,1,0,E+,1,4,1,400,600,250.0,4,C14YM,134,train
91.13502502441406,3,4,5,2,1,0,E+,1,2,3,400,600,250.0,2,C14YM,135,train
90.86894989013672,3,4,5,2,1,0,E+,1,4,1,400,600,250.0,4,C14YM,136,train
90.35301208496094,3,4,5,2,1,0,E+,1,0,5,400,600,250.0,0,C14YM,137,train
27.20808982849121,3,4,5,2,1,0,E+,1,1,4,400,600,250.0,1,C14YM,138,train
74.8288631439209,3,4,5,2,1,0,E+,1,5,2,400,600,250.0,5,C14YM,139,train
219.2971706390381,3,4,5,2,1,0,E+,1,3,0,400,600,250.0,3,C14YM,140,train
91.09306335449219,3,4,5,2,1,0,E+,1,2,3,400,600,250.0,2,C14YM,141,train
123.2750415802002,3,4,5,2,1,0,E+,1,3,0,400,600,250.0,3,C14YM,142,train
43.13993453979492,3,4,5,2,1,0,E+,1,5,2,400,600,250.0,5,C14YM,143,train
202.7418613433838,3,4,5,2,1,0,E+,1,2,3,400,600,250.0,2,C14YM,144,train
27.117013931274414,3,4,5,2,1,0,E+,1,3,0,400,600,250.0,3,C14YM,145,train
75.11281967163086,3,4,5,2,1,0,E+,1,0,5,400,600,250.0,0,C14YM,146,train
26.823043823242188,3,4,5,2,1,0,E+,1,5,2,400,600,250.0,5,C14YM,147,train
58.95185470581055,3,4,5,2,1,0,E+,1,0,5,400,600,250.0,0,C14YM,148,train
43.08891296386719,3,4,5,2,1,0,E+,1,5,2,400,600,250.0,5,C14YM,149,train
75.03104209899902,3,4,5,2,1,0,E+,1,0,5,400,600,250.0,0,C14YM,150,train
72.72696495056152,3,4,5,2,1,0,E+,1,2,3,400,600,250.0,2,C14YM,151,train
10.731935501098633,3,4,5,2,1,0,E+,1,0,5,400,600,250.0,0,C14YM,152,train
74.95403289794922,3,4,5,2,1,0,E+,1,3,0,400,600,250.0,3,C14YM,153,train
123.21996688842773,3,4,5,2,1,0,E+,1,1,4,400,600,250.0,1,C14YM,154,train
91.2320613861084,3,4,5,2,1,0,E+,1,3,0,400,600,250.0,3,C14YM,155,train
74.30601119995117,3,4,5,2,1,0,E+,1,2,3,400,600,250.0,2,C14YM,156,train
42.55795478820801,3,4,5,2,1,0,E+,1,2,3,400,600,250.0,2,C14YM,157,train
59.08393859863281,3,4,5,2,1,0,E+,1,3,0,400,600,250.0,3,C14YM,158,train
43.109893798828125,3,4,5,2,1,0,E+,1,5,2,400,600,250.0,5,C14YM,159,train
107.14292526245117,3,4,5,2,1,0,E+,1,3,0,400,600,250.0,3,C14YM,160,train
75.11591911315918,3,4,5,2,1,0,E+,1,2,3,400,600,250.0,2,C14YM,161,train
43.24793815612793,3,4,5,2,1,0,E+,1,2,3,400,600,250.0,2,C14YM,162,train
75.12211799621582,3,4,5,2,1,0,E+,1,4,1,400,600,250.0,4,C14YM,163,train
107.00488090515137,3,4,5,2,1,0,E+,1,1,4,400,600,250.0,1,C14YM,164,train
90.46316146850586,3,4,5,2,1,0,E+,1,5,2,400,600,250.0,5,C14YM,165,train
75.14500617980957,3,4,5,2,1,0,E+,1,2,3,400,600,250.0,2,C14YM,166,train
74.0518569946289,3,4,5,2,1,0,E+,1,5,2,400,600,250.0,5,C14YM,167,train
170.77994346618652,3,4,5,2,1,0,E+,1,3,0,400,600,250.0,3,C14YM,168,train
11.013984680175781,3,4,5,2,1,0,E+,1,4,1,400,600,250.0,4,C14YM,169,train
74.82099533081055,3,4,5,2,1,0,E+,1,0,5,400,600,250.0,0,C14YM,170,train
27.12106704711914,3,4,5,2,1,0,E+,1,2,3,400,600,250.0,2,C14YM,171,train
26.89194679260254,3,4,5,2,1,0,E+,1,1,4,400,600,250.0,1,C14YM,172,train
105.64422607421875,3,4,5,2,1,0,E+,1,4,1,400,600,250.0,4,C14YM,173,train
58.602094650268555,3,4,5,2,1,0,E+,1,3,0,400,600,250.0,3,C14YM,174,train
42.814016342163086,3,4,5,2,1,0,E+,1,0,5,400,600,250.0,0,C14YM,175,train
27.105093002319336,3,4,5,2,1,0,E+,1,2,3,400,600,250.0,2,C14YM,176,train
73.56882095336914,3,4,5,2,1,0,E+,1,5,2,400,600,250.0,5,C14YM,177,train
42.787790298461914,3,4,5,2,1,0,E+,1,2,3,400,600,250.0,2,C14YM,178,train
59.059858322143555,3,4,5,2,1,0,E+,1,0,5,400,600,250.0,0,C14YM,179,train
58.87603759765625,3,4,5,2,1,0,E+,1,2,3,400,600,250.0,2,C14YM,180,train
10.911941528320312,3,4,5,2,1,0,E+,1,2,3,400,600,250.0,2,C14YM,181,train
27.000904083251953,3,4,5,2,1,0,E+,1,4,1,400,600,250.0,4,C14YM,182,train
27.06003189086914,3,4,5,2,1,0,E+,1,0,5,400,600,250.0,0,C14YM,183,train
43.083906173706055,3,4,5,2,1,0,E+,1,2,3,400,600,250.0,2,C14YM,184,train
123.08120727539062,3,4,5,2,1,0,E+,1,3,0,400,600,250.0,3,C14YM,185,train
58.93421173095703,3,4,5,2,1,0,E+,1,1,4,400,600,250.0,1,C14YM,186,train
121.22893333435059,3,4,5,2,1,0,E+,1,4,1,400,600,250.0,4,C14YM,187,train
122.85304069519043,3,4,5,2,1,0,E+,1,4,1,400,600,250.0,4,C14YM,188,train
59.123992919921875,3,4,5,2,1,0,E+,1,3,0,400,600,250.0,3,C14YM,189,train
74.9199390411377,3,4,5,2,1,0,E+,1,2,3,400,600,250.0,2,C14YM,190,train
0.16498565673828125,3,4,5,2,1,0,E+,0,3,0,400,600,250.0,2,C14YM,191,train
59.001922607421875,3,4,5,2,1,0,E+,1,1,4,400,600,250.0,1,C14YM,192,train
10.766983032226562,3,4,5,2,1,0,E+,1,0,5,400,600,250.0,0,C14YM,193,train
75.15287399291992,3,4,5,2,1,0,E+,1,1,4,400,600,250.0,1,C14YM,194,train
90.79790115356445,3,4,5,2,1,0,E+,1,3,0,400,600,250.0,3,C14YM,195,train
90.77811241149902,3,4,5,2,1,0,E+,1,1,4,400,600,250.0,1,C14YM,196,train
26.89194679260254,3,4,5,2,1,0,E+,1,2,3,400,600,250.0,2,C14YM,197,train
43.12705993652344,3,4,5,2,1,0,E+,1,4,1,400,600,250.0,4,C14YM,198,train
92.59486198425293,3,4,5,2,1,0,E+,1,5,2,400,600,250.0,5,C14YM,199,train
202.89087295532227,3,4,5,2,1,0,E+,1,2,3,400,600,250.0,2,C14YM,200,train
43.94197463989258,3,4,5,2,1,0,E+,1,5,2,400,600,250.0,5,C14YM,201,train
40.62914848327637,3,4,5,2,1,0,E+,1,4,1,400,600,250.0,4,C14YM,202,train
187.01410293579102,3,4,5,2,1,0,E+,1,2,3,400,600,250.0,2,C14YM,203,train
26.088953018188477,3,4,5,2,1,0,E+,1,3,0,400,600,250.0,3,C14YM,204,train
74.85008239746094,3,4,5,2,1,0,E+,1,0,5,400,600,250.0,0,C14YM,205,train
314.5749568939209,3,4,5,2,1,0,E+,1,4,1,400,600,250.0,4,C14YM,206,train
43.13182830810547,3,4,5,2,1,0,E+,1,4,1,400,600,250.0,4,C14YM,207,train
107.15007781982422,3,4,5,2,1,0,E+,1,2,3,400,600,250.0,2,C14YM,208,train
58.86101722717285,3,4,5,2,1,0,E+,1,4,1,400,600,250.0,4,C14YM,209,train
58.98785591125488,3,4,5,2,1,0,E+,1,5,2,400,600,250.0,5,C14YM,210,train
8.966922760009766,3,4,5,2,1,0,E+,1,2,3,400,600,250.0,2,C14YM,211,train
106.76288604736328,3,4,5,2,1,0,E+,1,5,2,400,600,250.0,5,C14YM,212,train
10.519981384277344,3,4,5,2,1,0,E+,1,0,5,400,600,250.0,0,C14YM,213,train
26.978015899658203,3,4,5,2,1,0,E+,1,1,4,400,600,250.0,1,C14YM,214,train
107.09714889526367,3,4,5,2,1,0,E+,1,3,0,400,600,250.0,3,C14YM,215,train
27.039051055908203,3,4,5,2,1,0,E+,1,5,2,400,600,250.0,5,C14YM,216,train
0.15687942504882812,3,4,5,2,1,0,E+,1,1,4,400,600,250.0,1,C14YM,217,train
58.62903594970703,3,4,5,2,1,0,E+,1,2,3,400,600,250.0,2,C14YM,218,train
27.05097198486328,3,4,5,2,1,0,E+,1,1,4,400,600,250.0,1,C14YM,219,train
27.17900276184082,3,4,5,2,1,0,E+,1,5,2,400,600,250.0,5,C14YM,220,train
203.1080722808838,3,4,5,2,1,0,E+,1,2,3,400,600,250.0,2,C14YM,221,train
10.887861251831055,3,4,5,2,1,0,E+,1,3,0,400,600,250.0,3,C14YM,222,train
795.1700687408447,3,4,5,2,1,0,E+,1,5,2,400,600,250.0,5,C14YM,223,train
123.05784225463867,3,4,5,2,1,0,E+,1,5,2,400,600,250.0,5,C14YM,224,train
27.200937271118164,3,4,5,2,1,0,E+,1,5,2,400,600,250.0,5,C14YM,225,train
0.18215179443359375,3,4,5,2,1,0,E+,1,5,2,400,600,250.0,5,C14YM,226,train
170.90702056884766,3,4,5,2,1,0,E+,1,3,0,400,600,250.0,3,C14YM,227,train
75.15382766723633,3,4,5,2,1,0,E+,1,0,5,400,600,250.0,0,C14YM,228,train
43.09201240539551,3,4,5,2,1,0,E+,1,1,4,400,600,250.0,1,C14YM,229,train
43.016910552978516,3,4,5,2,1,0,E+,1,0,5,400,600,250.0,0,C14YM,230,train
0.16498565673828125,3,4,5,2,1,0,E+,1,0,5,400,600,250.0,0,C14YM,231,train
107.25808143615723,3,4,5,2,1,0,E+,0,4,1,400,600,250.0,3,C14YM,232,train
106.22811317443848,3,4,5,2,1,0,E+,1,2,3,400,600,250.0,2,C14YM,233,train
106.74619674682617,3,4,5,2,1,0,E+,1,5,2,400,600,250.0,5,C14YM,234,train
538.9389991760254,3,4,5,2,1,0,E+,1,5,2,400,600,250.0,5,C14YM,235,train
74.82314109802246,3,4,5,2,1,0,E+,1,3,0,400,600,250.0,3,C14YM,236,train
55.94301223754883,3,4,5,2,1,0,E+,1,1,4,400,600,250.0,1,C14YM,237,train
42.98210144042969,3,4,5,2,1,0,E+,1,5,2,400,600,250.0,5,C14YM,238,train
11.099815368652344,3,4,5,2,1,0,E+,1,0,5,400,600,250.0,0,C14YM,239,train
410.34793853759766,3,4,5,2,1,0,E+,1,0,5,400,600,250.0,0,C14YM,240,train
11.081933975219727,3,4,5,2,1,0,E+,1,5,2,400,600,250.0,5,C14YM,241,train
266.618013381958,3,4,5,2,1,0,E+,1,4,1,400,600,250.0,4,C14YM,242,train
10.957956314086914,3,4,5,2,1,0,E+,1,5,2,400,600,250.0,5,C14YM,243,train
41.85914993286133,3,4,5,2,1,0,E+,1,3,0,400,600,250.0,3,C14YM,244,train
0.13685226440429688,3,4,5,2,1,0,E+,1,5,2,400,600,250.0,5,C14YM,245,train
107.70487785339355,3,4,5,2,1,0,E+,1,2,3,400,600,250.0,2,C14YM,246,train
522.4769115447998,3,4,5,2,1,0,E+,1,5,2,400,600,250.0,5,C14YM,247,train
152.7080535888672,3,4,5,2,1,0,E+,1,5,2,400,600,250.0,5,C14YM,248,train
74.46122169494629,3,4,5,2,1,0,E+,1,4,1,400,600,250.0,4,C14YM,249,train
2817.0111179351807,3,4,5,2,1,0,E+,1,5,2,0,1000,250.0,5,C14YM,250,test
961.1139297485352,3,4,5,2,1,0,E+,1,2,3,0,1000,250.0,2,C14YM,251,test
880.9258937835693,3,4,5,2,1,0,E+,1,3,0,0,1000,250.0,3,C14YM,252,test
1009.1700553894043,3,4,5,2,1,0,E+,1,1,4,0,1000,250.0,1,C14YM,253,test
593.0321216583252,3,4,5,2,1,0,E+,1,2,3,0,1000,250.0,2,C14YM,254,test
560.884952545166,3,4,5,2,1,0,E+,0,4,1,0,1000,250.0,5,C14YM,255,test
785.1049900054932,3,4,5,2,1,0,E+,1,3,0,0,1000,250.0,3,C14YM,256,test
465.17086029052734,3,4,5,2,1,0,E+,1,3,0,0,1000,250.0,3,C14YM,257,test
1009.0720653533936,3,4,5,2,1,0,E+,1,1,4,0,1000,250.0,1,C14YM,258,test
480.9119701385498,3,4,5,2,1,0,E+,1,0,5,0,1000,250.0,0,C14YM,259,test
1008.864164352417,3,4,5,2,1,0,E+,1,1,4,0,1000,250.0,1,C14YM,260,test
816.9019222259521,3,4,5,2,1,0,E+,1,3,0,0,1000,250.0,3,C14YM,261,test
512.9859447479248,3,4,5,2,1,0,E+,1,0,5,0,1000,250.0,0,C14YM,262,test
753.0720233917236,3,4,5,2,1,0,E+,1,5,2,0,1000,250.0,5,C14YM,263,test
417.1609878540039,3,4,5,2,1,0,E+,1,5,2,0,1000,250.0,5,C14YM,264,test
481.05788230895996,3,4,5,2,1,0,E+,0,2,3,0,1000,250.0,0,C14YM,265,test
449.1579532623291,3,4,5,2,1,0,E+,1,2,3,0,1000,250.0,2,C14YM,266,test
335.6449604034424,3,4,5,2,1,0,E+,1,2,3,0,1000,250.0,2,C14YM,267,test
624.7999668121338,3,4,5,2,1,0,E+,1,5,2,0,1000,250.0,5,C14YM,268,test
529.0329456329346,3,4,5,2,1,0,E+,1,2,3,0,1000,250.0,2,C14YM,269,test
688.917875289917,3,4,5,2,1,0,E+,1,4,1,0,1000,250.0,4,C14YM,270,test
1073.0559825897217,3,4,5,2,1,0,E+,1,1,4,0,1000,250.0,1,C14YM,271,test
768.9239978790283,3,4,5,2,1,0,E+,1,3,0,0,1000,250.0,3,C14YM,272,test
688.9448165893555,3,4,5,2,1,0,E+,1,5,2,0,1000,250.0,5,C14YM,273,test
1184.7970485687256,3,4,5,2,1,0,E+,1,1,4,0,1000,250.0,1,C14YM,274,test
656.9390296936035,3,4,5,2,1,0,E+,1,1,4,0,1000,250.0,1,C14YM,275,test
449.1229057312012,3,4,5,2,1,0,E+,1,1,4,0,1000,250.0,1,C14YM,276,test
481.0919761657715,3,4,5,2,1,0,E+,1,0,5,0,1000,250.0,0,C14YM,277,test
609.0421676635742,3,4,5,2,1,0,E+,1,2,3,0,1000,250.0,2,C14YM,278,test
624.9010562896729,3,4,5,2,1,0,E+,1,1,4,0,1000,250.0,1,C14YM,279,test
768.9290046691895,3,4,5,2,1,0,E+,1,4,1,0,1000,250.0,4,C14YM,280,test
801.0189533233643,3,4,5,2,1,0,E+,1,2,3,0,1000,250.0,2,C14YM,281,test
512.9959583282471,3,4,5,2,1,0,E+,1,0,5,0,1000,250.0,0,C14YM,282,test
432.83700942993164,3,4,5,2,1,0,E+,1,0,5,0,1000,250.0,0,C14YM,283,test
480.70406913757324,3,4,5,2,1,0,E+,1,0,5,0,1000,250.0,0,C14YM,284,test
432.69801139831543,3,4,5,2,1,0,E+,1,0,5,0,1000,250.0,0,C14YM,285,test
528.8450717926025,3,4,5,2,1,0,E+,1,2,3,0,1000,250.0,2,C14YM,286,test
752.9919147491455,3,4,5,2,1,0,E+,1,5,2,0,1000,250.0,5,C14YM,287,test
544.6429252624512,3,4,5,2,1,0,E+,1,4,1,0,1000,250.0,4,C14YM,288,test
609.1129779815674,3,4,5,2,1,0,E+,1,2,3,0,1000,250.0,2,C14YM,289,test
433.0320358276367,3,4,5,2,1,0,E+,1,2,3,0,1000,250.0,2,C14YM,290,test
383.4249973297119,3,4,5,2,1,0,E+,1,3,0,0,1000,250.0,3,C14YM,291,test
529.0071964263916,3,4,5,2,1,0,E+,1,1,4,0,1000,250.0,1,C14YM,292,test
529.1469097137451,3,4,5,2,1,0,E+,1,3,0,0,1000,250.0,3,C14YM,293,test
641.0608291625977,3,4,5,2,1,0,E+,1,1,4,0,1000,250.0,1,C14YM,294,test
705.1069736480713,3,4,5,2,1,0,E+,1,5,2,0,1000,250.0,5,C14YM,295,test
624.7360706329346,3,4,5,2,1,0,E+,1,1,4,0,1000,250.0,1,C14YM,296,test
513.045072555542,3,4,5,2,1,0,E+,0,4,1,0,1000,250.0,5,C14YM,297,test
625.0839233398438,3,4,5,2,1,0,E+,1,1,4,0,1000,250.0,1,C14YM,298,test
657.0339202880859,3,4,5,2,1,0,E+,1,5,2,0,1000,250.0,5,C14YM,299,test
513.1189823150635,3,4,5,2,1,0,E+,1,1,4,0,1000,250.0,1,C14YM,300,test
592.9720401763916,3,4,5,2,1,0,E+,0,4,1,0,1000,250.0,5,C14YM,301,test
574.6059417724609,3,4,5,2,1,0,E+,1,5,2,0,1000,250.0,5,C14YM,302,test
881.0739517211914,3,4,5,2,1,0,E+,1,2,3,0,1000,250.0,2,C14YM,303,test
384.8400115966797,3,4,5,2,1,0,E+,1,2,3,0,1000,250.0,2,C14YM,304,test
353.0559539794922,3,4,5,2,1,0,E+,1,2,3,0,1000,250.0,2,C14YM,305,test
368.8650131225586,3,4,5,2,1,0,E+,1,2,3,0,1000,250.0,2,C14YM,306,test
593.0349826812744,3,4,5,2,1,0,E+,1,5,2,0,1000,250.0,5,C14YM,307,test
384.81688499450684,3,4,5,2,1,0,E+,1,5,2,0,1000,250.0,5,C14YM,308,test
817.1141147613525,3,4,5,2,1,0,E+,1,0,5,0,1000,250.0,0,C14YM,309,test
686.6979598999023,3,4,5,2,1,0,E+,1,4,1,0,1000,250.0,4,C14YM,310,test
625.0350475311279,3,4,5,2,1,0,E+,1,5,2,0,1000,250.0,5,C14YM,311,test
721.0280895233154,3,4,5,2,1,0,E+,1,4,1,0,1000,250.0,4,C14YM,312,test
624.7580051422119,3,4,5,2,1,0,E+,1,3,0,0,1000,250.0,3,C14YM,313,test
432.8629970550537,3,4,5,2,1,0,E+,1,3,0,0,1000,250.0,3,C14YM,314,test
556.7240715026855,3,4,5,2,1,0,E+,1,5,2,0,1000,250.0,5,C14YM,315,test
465.14415740966797,3,4,5,2,1,0,E+,1,3,0,0,1000,250.0,3,C14YM,316,test
432.94286727905273,3,4,5,2,1,0,E+,1,5,2,0,1000,250.0,5,C14YM,317,test
560.8861446380615,3,4,5,2,1,0,E+,1,2,3,0,1000,250.0,2,C14YM,318,test
432.76190757751465,3,4,5,2,1,0,E+,1,3,0,0,1000,250.0,3,C14YM,319,test
401.0739326477051,3,4,5,2,1,0,E+,1,3,0,0,1000,250.0,3,C14YM,320,test
785.0701808929443,3,4,5,2,1,0,E+,1,0,5,0,1000,250.0,0,C14YM,321,test
495.90110778808594,3,4,5,2,1,0,E+,1,5,2,0,1000,250.0,5,C14YM,322,test
1089.0190601348877,3,4,5,2,1,0,E+,1,1,4,0,1000,250.0,1,C14YM,323,test
480.87406158447266,3,4,5,2,1,0,E+,1,3,0,0,1000,250.0,3,C14YM,324,test
593.040943145752,3,4,5,2,1,0,E+,1,0,5,0,1000,250.0,0,C14YM,325,test
942.6791667938232,3,4,5,2,1,0,E+,1,1,4,0,1000,250.0,1,C14YM,326,test
1009.0739727020264,3,4,5,2,1,0,E+,1,1,4,0,1000,250.0,1,C14YM,327,test
480.8831214904785,3,4,5,2,1,0,E+,1,0,5,0,1000,250.0,0,C14YM,328,test
544.7800159454346,3,4,5,2,1,0,E+,1,3,0,0,1000,250.0,3,C14YM,329,test
561.072826385498,3,4,5,2,1,0,E+,1,1,4,0,1000,250.0,1,C14YM,330,test
480.79991340637207,3,4,5,2,1,0,E+,1,3,0,0,1000,250.0,3,C14YM,331,test
513.0569934844971,3,4,5,2,1,0,E+,1,3,0,0,1000,250.0,3,C14YM,332,test
351.6218662261963,3,4,5,2,1,0,E+,1,3,0,0,1000,250.0,3,C14YM,333,test
559.6849918365479,3,4,5,2,1,0,E+,0,4,1,0,1000,250.0,5,C14YM,334,test
1216.9978618621826,3,4,5,2,1,0,E+,1,1,4,0,1000,250.0,1,C14YM,335,test
561.0530376434326,3,4,5,2,1,0,E+,0,1,4,0,1000,250.0,3,C14YM,336,test
689.0609264373779,3,4,5,2,1,0,E+,1,2,3,0,1000,250.0,2,C14YM,337,test
624.9740123748779,3,4,5,2,1,0,E+,1,4,1,0,1000,250.0,4,C14YM,338,test
960.9348773956299,3,4,5,2,1,0,E+,1,1,4,0,1000,250.0,1,C14YM,339,test
865.3109073638916,3,4,5,2,1,0,E+,1,4,1,0,1000,250.0,4,C14YM,340,test
944.8790550231934,3,4,5,2,1,0,E+,1,1,4,0,1000,250.0,1,C14YM,341,test
609.0011596679688,3,4,5,2,1,0,E+,1,5,2,0,1000,250.0,5,C14YM,342,test
545.0880527496338,3,4,5,2,1,0,E+,1,1,4,0,1000,250.0,1,C14YM,343,test
401.06892585754395,3,4,5,2,1,0,E+,1,1,4,0,1000,250.0,1,C14YM,344,test
465.1370048522949,3,4,5,2,1,0,E+,1,0,5,0,1000,250.0,0,C14YM,345,test
1089.2021656036377,3,4,5,2,1,0,E+,1,5,2,0,1000,250.0,5,C14YM,346,test
672.7371215820312,3,4,5,2,1,0,E+,1,2,3,0,1000,250.0,2,C14YM,347,test
416.79978370666504,3,4,5,2,1,0,E+,1,0,5,0,1000,250.0,0,C14YM,348,test
448.78482818603516,3,4,5,2,1,0,E+,1,2,3,0,1000,250.0,2,C14YM,349,test
511.8370056152344,3,4,5,2,1,0,E+,1,5,2,0,1000,250.0,5,C14YM,350,test
657.0830345153809,3,4,5,2,1,0,E+,1,4,1,0,1000,250.0,4,C14YM,351,test
401.16095542907715,3,4,5,2,1,0,E+,1,4,1,0,1000,250.0,4,C14YM,352,test
1008.9168548583984,3,4,5,2,1,0,E+,1,1,4,0,1000,250.0,1,C14YM,353,test
513.0338668823242,3,4,5,2,1,0,E+,1,0,5,0,1000,250.0,0,C14YM,354,test
608.9110374450684,3,4,5,2,1,0,E+,0,5,2,0,1000,250.0,4,C14YM,355,test
753.0131340026855,3,4,5,2,1,0,E+,1,0,5,0,1000,250.0,0,C14YM,356,test
545.1419353485107,3,4,5,2,1,0,E+,1,3,0,0,1000,250.0,3,C14YM,357,test
512.8130912780762,3,4,5,2,1,0,E+,1,0,5,0,1000,250.0,0,C14YM,358,test
641.287088394165,3,4,5,2,1,0,E+,1,4,1,0,1000,250.0,4,C14YM,359,test
640.9049034118652,3,4,5,2,1,0,E+,1,3,0,0,1000,250.0,3,C14YM,360,test
801.0649681091309,3,4,5,2,1,0,E+,1,5,2,0,1000,250.0,5,C14YM,361,test
689.2139911651611,3,4,5,2,1,0,E+,1,2,3,0,1000,250.0,2,C14YM,362,test
448.9297866821289,3,4,5,2,1,0,E+,1,0,5,0,1000,250.0,0,C14YM,363,test
625.1051425933838,3,4,5,2,1,0,E+,0,5,2,0,1000,250.0,4,C14YM,364,test
449.1140842437744,3,4,5,2,1,0,E+,0,5,2,0,1000,250.0,4,C14YM,365,test
993.1650161743164,3,4,5,2,1,0,E+,1,1,4,0,1000,250.0,1,C14YM,366,test
672.1808910369873,3,4,5,2,1,0,E+,1,3,0,0,1000,250.0,3,C14YM,367,test
832.6840400695801,3,4,5,2,1,0,E+,1,4,1,0,1000,250.0,4,C14YM,368,test
416.8660640716553,3,4,5,2,1,0,E+,1,5,2,0,1000,250.0,5,C14YM,369,test
464.98799324035645,3,4,5,2,1,0,E+,1,5,2,0,1000,250.0,5,C14YM,370,test
513.1220817565918,3,4,5,2,1,0,E+,1,3,0,0,1000,250.0,3,C14YM,371,test
432.9349994659424,3,4,5,2,1,0,E+,1,3,0,0,1000,250.0,3,C14YM,372,test
561.1569881439209,3,4,5,2,1,0,E+,1,5,2,0,1000,250.0,5,C14YM,373,test
591.8149948120117,3,4,5,2,1,0,E+,1,1,4,0,1000,250.0,1,C14YM,374,test
529.0839672088623,3,4,5,2,1,0,E+,1,5,2,0,1000,250.0,5,C14YM,375,test
385.06197929382324,3,4,5,2,1,0,E+,1,5,2,0,1000,250.0,5,C14YM,376,test
576.7221450805664,3,4,5,2,1,0,E+,1,2,3,0,1000,250.0,2,C14YM,377,test
464.8871421813965,3,4,5,2,1,0,E+,1,0,5,0,1000,250.0,0,C14YM,378,test
737.1320724487305,3,4,5,2,1,0,E+,1,2,3,0,1000,250.0,2,C14YM,379,test
672.7759838104248,3,4,5,2,1,0,E+,1,4,1,0,1000,250.0,4,C14YM,380,test
849.06005859375,3,4,5,2,1,0,E+,1,1,4,0,1000,250.0,1,C14YM,381,test
544.867992401123,3,4,5,2,1,0,E+,1,5,2,0,1000,250.0,5,C14YM,382,test
848.9351272583008,3,4,5,2,1,0,E+,1,0,5,0,1000,250.0,0,C14YM,383,test
527.5890827178955,3,4,5,2,1,0,E+,1,5,2,0,1000,250.0,5,C14YM,384,test
481.0900688171387,3,4,5,2,1,0,E+,1,4,1,0,1000,250.0,4,C14YM,385,test
480.9460639953613,3,4,5,2,1,0,E+,1,0,5,0,1000,250.0,0,C14YM,386,test
432.6140880584717,3,4,5,2,1,0,E+,1,0,5,0,1000,250.0,0,C14YM,387,test
879.9779415130615,3,4,5,2,1,0,E+,1,1,4,0,1000,250.0,1,C14YM,388,test
529.1409492492676,3,4,5,2,1,0,E+,1,5,2,0,1000,250.0,5,C14YM,389,test
592.9620265960693,3,4,5,2,1,0,E+,1,1,4,0,1000,250.0,1,C14YM,390,test
656.9478511810303,3,4,5,2,1,0,E+,1,3,0,0,1000,250.0,3,C14YM,391,test
688.4620189666748,3,4,5,2,1,0,E+,1,2,3,0,1000,250.0,2,C14YM,392,test
464.95604515075684,3,4,5,2,1,0,E+,1,2,3,0,1000,250.0,2,C14YM,393,test
417.08993911743164,3,4,5,2,1,0,E+,1,2,3,0,1000,250.0,2,C14YM,394,test
481.06884956359863,3,4,5,2,1,0,E+,1,0,5,0,1000,250.0,0,C14YM,395,test
560.884952545166,3,4,5,2,1,0,E+,1,2,3,0,1000,250.0,2,C14YM,396,test
352.9040813446045,3,4,5,2,1,0,E+,0,0,5,0,1000,250.0,2,C14YM,397,test
815.7958984375,3,4,5,2,1,0,E+,1,3,0,0,1000,250.0,3,C14YM,398,test
672.7821826934814,3,4,5,2,1,0,E+,1,4,1,0,1000,250.0,4,C14YM,399,test
497.0529079437256,3,4,5,2,1,0,E+,1,5,2,0,1000,250.0,5,C14YM,400,test
544.827938079834,3,4,5,2,1,0,E+,1,3,0,0,1000,250.0,3,C14YM,401,test
480.96418380737305,3,4,5,2,1,0,E+,1,5,2,0,1000,250.0,5,C14YM,402,test
624.8509883880615,3,4,5,2,1,0,E+,1,3,0,0,1000,250.0,3,C14YM,403,test
640.9790515899658,3,4,5,2,1,0,E+,1,1,4,0,1000,250.0,1,C14YM,404,test
368.00503730773926,3,4,5,2,1,0,E+,1,1,4,0,1000,250.0,1,C14YM,405,test
480.9730052947998,3,4,5,2,1,0,E+,1,3,0,0,1000,250.0,3,C14YM,406,test
800.7769584655762,3,4,5,2,1,0,E+,1,0,5,0,1000,250.0,0,C14YM,407,test
512.7918720245361,3,4,5,2,1,0,E+,1,2,3,0,1000,250.0,2,C14YM,408,test
894.5558071136475,3,4,5,2,1,0,E+,1,3,0,0,1000,250.0,3,C14YM,409,test
673.0191707611084,3,4,5,2,1,0,E+,1,1,4,0,1000,250.0,1,C14YM,410,test
688.6081695556641,3,4,5,2,1,0,E+,1,2,3,0,1000,250.0,2,C14YM,411,test
640.9139633178711,3,4,5,2,1,0,E+,1,5,2,0,1000,250.0,5,C14YM,412,test
513.1368637084961,3,4,5,2,1,0,E+,1,4,1,0,1000,250.0,4,C14YM,413,test
848.9730358123779,3,4,5,2,1,0,E+,1,1,4,0,1000,250.0,1,C14YM,414,test
609.1339588165283,3,4,5,2,1,0,E+,1,4,1,0,1000,250.0,4,C14YM,415,test
416.7358875274658,3,4,5,2,1,0,E+,1,4,1,0,1000,250.0,4,C14YM,416,test
544.964075088501,3,4,5,2,1,0,E+,1,5,2,0,1000,250.0,5,C14YM,417,test
656.9349765777588,3,4,5,2,1,0,E+,1,1,4,0,1000,250.0,1,C14YM,418,test
561.13600730896,3,4,5,2,1,0,E+,0,0,5,0,1000,250.0,2,C14YM,419,test
545.1688766479492,3,4,5,2,1,0,E+,1,5,2,0,1000,250.0,5,C14YM,420,test
446.7298984527588,3,4,5,2,1,0,E+,1,4,1,0,1000,250.0,4,C14YM,421,test
656.9719314575195,3,4,5,2,1,0,E+,1,2,3,0,1000,250.0,2,C14YM,422,test
401.05509757995605,3,4,5,2,1,0,E+,1,0,5,0,1000,250.0,0,C14YM,423,test
800.8968830108643,3,4,5,2,1,0,E+,1,2,3,0,1000,250.0,2,C14YM,424,test
513.0648612976074,3,4,5,2,1,0,E+,1,5,2,0,1000,250.0,5,C14YM,425,test
529.088020324707,3,4,5,2,1,0,E+,1,2,3,0,1000,250.0,2,C14YM,426,test
640.711784362793,3,4,5,2,1,0,E+,1,1,4,0,1000,250.0,1,C14YM,427,test
529.4389724731445,3,4,5,2,1,0,E+,1,5,2,0,1000,250.0,5,C14YM,428,test
513.0660533905029,3,4,5,2,1,0,E+,1,4,1,0,1000,250.0,4,C14YM,429,test
384.92321968078613,3,4,5,2,1,0,E+,1,4,1,0,1000,250.0,4,C14YM,430,test
513.0150318145752,3,4,5,2,1,0,E+,0,1,4,0,1000,250.0,0,C14YM,431,test
496.9501495361328,3,4,5,2,1,0,E+,1,1,4,0,1000,250.0,1,C14YM,432,test
464.94507789611816,3,4,5,2,1,0,E+,1,5,2,0,1000,250.0,5,C14YM,433,test
544.8238849639893,3,4,5,2,1,0,E+,1,2,3,0,1000,250.0,2,C14YM,434,test
337.02588081359863,3,4,5,2,1,0,E+,1,3,0,0,1000,250.0,3,C14YM,435,test
464.94293212890625,3,4,5,2,1,0,E+,0,0,5,0,1000,250.0,2,C14YM,436,test
464.77198600769043,3,4,5,2,1,0,E+,1,5,2,0,1000,250.0,5,C14YM,437,test
512.8219127655029,3,4,5,2,1,0,E+,1,0,5,0,1000,250.0,0,C14YM,438,test
673.2990741729736,3,4,5,2,1,0,E+,1,1,4,0,1000,250.0,1,C14YM,439,test
353.1529903411865,3,4,5,2,1,0,E+,1,3,0,0,1000,250.0,3,C14YM,440,test
417.064905166626,3,4,5,2,1,0,E+,1,4,1,0,1000,250.0,4,C14YM,441,test
561.1131191253662,3,4,5,2,1,0,E+,1,0,5,0,1000,250.0,0,C14YM,442,test
577.0390033721924,3,4,5,2,1,0,E+,1,2,3,0,1000,250.0,2,C14YM,443,test
481.1549186706543,3,4,5,2,1,0,E+,1,5,2,0,1000,250.0,5,C14YM,444,test
464.9021625518799,3,4,5,2,1,0,E+,1,5,2,0,1000,250.0,5,C14YM,445,test
672.8360652923584,3,4,5,2,1,0,E+,1,2,3,0,1000,250.0,2,C14YM,446,test
656.8210124969482,3,4,5,2,1,0,E+,1,1,4,0,1000,250.0,1,C14YM,447,test
561.0358715057373,3,4,5,2,1,0,E+,1,5,2,0,1000,250.0,5,C14YM,448,test
609.2879772186279,3,4,5,2,1,0,E+,1,3,0,0,1000,250.0,3,C14YM,449,test
625.136137008667,3,4,5,2,1,0,E+,0,0,5,0,1000,250.0,2,C14YM,450,test
625.1089572906494,3,4,5,2,1,0,E+,1,3,0,0,1000,250.0,3,C14YM,451,test
353.00183296203613,3,4,5,2,1,0,E+,1,3,0,0,1000,250.0,3,C14YM,452,test
833.0399990081787,3,4,5,2,1,0,E+,1,0,5,0,1000,250.0,0,C14YM,453,test
496.95491790771484,3,4,5,2,1,0,E+,1,2,3,0,1000,250.0,2,C14YM,454,test
657.2010517120361,3,4,5,2,1,0,E+,1,4,1,0,1000,250.0,4,C14YM,455,test
513.1418704986572,3,4,5,2,1,0,E+,1,3,0,0,1000,250.0,3,C14YM,456,test
496.751070022583,3,4,5,2,1,0,E+,1,5,2,0,1000,250.0,5,C14YM,457,test
512.9730701446533,3,4,5,2,1,0,E+,1,4,1,0,1000,250.0,4,C14YM,458,test
802.2220134735107,3,4,5,2,1,0,E+,1,1,4,0,1000,250.0,1,C14YM,459,test
560.8868598937988,3,4,5,2,1,0,E+,1,2,3,0,1000,250.0,2,C14YM,460,test
481.10508918762207,3,4,5,2,1,0,E+,1,3,0,0,1000,250.0,3,C14YM,461,test
784.8739624023438,3,4,5,2,1,0,E+,1,0,5,0,1000,250.0,0,C14YM,462,test
592.9899215698242,3,4,5,2,1,0,E+,1,2,3,0,1000,250.0,2,C14YM,463,test
560.9798431396484,3,4,5,2,1,0,E+,1,3,0,0,1000,250.0,3,C14YM,464,test
464.9920463562012,3,4,5,2,1,0,E+,1,3,0,0,1000,250.0,3,C14YM,465,test
592.9491519927979,3,4,5,2,1,0,E+,1,1,4,0,1000,250.0,1,C14YM,466,test
497.18403816223145,3,4,5,2,1,0,E+,1,4,1,0,1000,250.0,4,C14YM,467,test
624.8550415039062,3,4,5,2,1,0,E+,1,0,5,0,1000,250.0,0,C14YM,468,test
545.0961589813232,3,4,5,2,1,0,E+,1,1,4,0,1000,250.0,1,C14YM,469,test
625.0929832458496,3,4,5,2,1,0,E+,1,1,4,0,1000,250.0,1,C14YM,470,test
593.8608646392822,3,4,5,2,1,0,E+,1,0,5,0,1000,250.0,0,C14YM,471,test
624.4308948516846,3,4,5,2,1,0,E+,1,1,4,0,1000,250.0,1,C14YM,472,test
432.8169822692871,3,4,5,2,1,0,E+,1,1,4,0,1000,250.0,1,C14YM,473,test
433.05087089538574,3,4,5,2,1,0,E+,1,4,1,0,1000,250.0,4,C14YM,474,test
705.0018310546875,3,4,5,2,1,0,E+,1,2,3,0,1000,250.0,2,C14YM,475,test
513.1008625030518,3,4,5,2,1,0,E+,1,1,4,0,1000,250.0,1,C14YM,476,test
689.1300678253174,3,4,5,2,1,0,E+,1,2,3,0,1000,250.0,2,C14YM,477,test
480.93700408935547,3,4,5,2,1,0,E+,1,4,1,0,1000,250.0,4,C14YM,478,test
801.2599945068359,3,4,5,2,1,0,E+,1,0,5,0,1000,250.0,0,C14YM,479,test
544.88205909729,3,4,5,2,1,0,E+,1,1,4,0,1000,250.0,1,C14YM,480,test
673.1381416320801,3,4,5,2,1,0,E+,1,2,3,0,1000,250.0,2,C14YM,481,test
561.0489845275879,3,4,5,2,1,0,E+,1,5,2,0,1000,250.0,5,C14YM,482,test
592.8361415863037,3,4,5,2,1,0,E+,1,1,4,0,1000,250.0,1,C14YM,483,test
577.0299434661865,3,4,5,2,1,0,E+,1,3,0,0,1000,250.0,3,C14YM,484,test
545.0751781463623,3,4,5,2,1,0,E+,1,5,2,0,1000,250.0,5,C14YM,485,test
656.9581031799316,3,4,5,2,1,0,E+,1,3,0,0,1000,250.0,3,C14YM,486,test
593.1730270385742,3,4,5,2,1,0,E+,1,5,2,0,1000,250.0,5,C14YM,487,test
449.2049217224121,3,4,5,2,1,0,E+,1,3,0,0,1000,250.0,3,C14YM,488,test
528.9809703826904,3,4,5,2,1,0,E+,1,5,2,0,1000,250.0,5,C14YM,489,test
432.9791069030762,3,4,5,2,1,0,E+,1,3,0,0,1000,250.0,3,C14YM,490,test
608.9179515838623,3,4,5,2,1,0,E+,1,3,0,0,1000,250.0,3,C14YM,491,test
737.0429039001465,3,4,5,2,1,0,E+,1,2,3,0,1000,250.0,2,C14YM,492,test
480.9229373931885,3,4,5,2,1,0,E+,1,3,0,0,1000,250.0,3,C14YM,493,test
385.00094413757324,3,4,5,2,1,0,E+,1,3,0,0,1000,250.0,3,C14YM,494,test
529.0219783782959,3,4,5,2,1,0,E+,1,2,3,0,1000,250.0,2,C14YM,495,test
558.8061809539795,3,4,5,2,1,0,E+,1,1,4,0,1000,250.0,1,C14YM,496,test
544.5821285247803,3,4,5,2,1,0,E+,1,0,5,0,1000,250.0,0,C14YM,497,test
369.1399097442627,3,4,5,2,1,0,E+,1,0,5,0,1000,250.0,0,C14YM,498,test
496.8740940093994,3,4,5,2,1,0,E+,1,2,3,0,1000,250.0,2,C14YM,499,test
