RT,SRmap_0,SRmap_1,SRmap_2,SRmap_3,SRmap_4,SRmap_5,condition,correct,correct_response,curstim,ms-precue,ms-prestimblank,ntrials,response,subject,trial,type
602.7519702911377,0,3,4,1,2,5,E+,1,5,5,400,600,250.0,5,C01DZ,0,train
215.35181999206543,0,3,4,1,2,5,E+,1,0,0,400,600,250.0,0,C01DZ,1,train
267.1229839324951,0,3,4,1,2,5,E+,1,1,3,400,600,250.0,1,C01DZ,2,train
683.3450794219971,0,3,4,1,2,5,E+,1,5,5,400,600,250.0,5,C01DZ,3,train
460.27684211730957,0,3,4,1,2,5,E+,1,2,4,400,600,250.0,2,C01DZ,4,train
203.92513275146484,0,3,4,1,2,5,E+,1,2,4,400,600,250.0,2,C01DZ,5,train
379.24790382385254,0,3,4,1,2,5,E+,1,2,4,400,600,250.0,2,C01DZ,6,train
619.1370487213135,0,3,4,1,2,5,E+,1,4,2,400,600,250.0,4,C01DZ,7,train
459.2862129211426,0,3,4,1,2,5,E+,1,2,4,400,600,250.0,2,C01DZ,8,train
267.1959400177002,0,3,4,1,2,5,E+,1,3,1,400,600,250.0,3,C01DZ,9,train
123.33297729492188,0,3,4,1,2,5,E+,1,5,5,400,600,250.0,5,C01DZ,10,train
235.26501655578613,0,3,4,1,2,5,E+,1,2,4,400,600,250.0,2,C01DZ,11,train
315.3691291809082,0,3,4,1,2,5,E+,1,4,2,400,600,250.0,4,C01DZ,12,train
235.21089553833008,0,3,4,1,2,5,E+,1,4,2,400,600,250.0,4,C01DZ,13,train
283.2598686218262,0,3,4,1,2,5,E+,1,0,0,400,600,250.0,0,C01DZ,14,train
619.3809509277344,0,3,4,1,2,5,E+,0,3,1,400,600,250.0,4,C01DZ,15,train
267.4250602722168,0,3,4,1,2,5,E+,1,1,3,400,600,250.0,1,C01DZ,16,train
747.4238872528076,0,3,4,1,2,5,E+,1,4,2,400,600,250.0,4,C01DZ,17,train
268.04304122924805,0,3,4,1,2,5,E+,1,3,1,400,600,250.0,3,C01DZ,18,train
507.2939395904541,0,3,4,1,2,5,E+,1,1,3,400,600,250.0,1,C01DZ,19,train
251.17897987365723,0,3,4,1,2,5,E+,1,2,4,400,600,250.0,2,C01DZ,20,train
331.16888999938965,0,3,4,1,2,5,E+,1,0,0,400,600,250.0,0,C01DZ,21,train
219.37203407287598,0,3,4,1,2,5,E+,1,5,5,400,600,250.0,5,C01DZ,22,train
859.2941761016846,0,3,4,1,2,5,E+,1,3,1,400,600,250.0,3,C01DZ,23,train
460.24203300476074,0,3,4,1,2,5,E+,1,1,3,400,600,250.0,1,C01DZ,24,train
187.6821517944336,0,3,4,1,2,5,E+,1,0,0,400,600,250.0,0,C01DZ,25,train
219.8491096496582,0,3,4,1,2,5,E+,1,2,4,400,600,250.0,2,C01DZ,26,train
187.26706504821777,0,3,4,1,2,5,E+,1,0,0,400,600,250.0,0,C01DZ,27,train
363.2359504699707,0,3,4,1,2,5,E+,1,3,1,400,600,250.0,3,C01DZ,28,train
508.3808898925781,0,3,4,1,2,5,E+,0,2,4,400,600,250.0,1,C01DZ,29,train
651.6468524932861,0,3,4,1,2,5,E+,1,1,3,400,600,250.0,1,C01DZ,30,train
443.6149597167969,0,3,4,1,2,5,E+,1,1,3,400,600,250.0,1,C01DZ,31,train
619.1940307617188,0,3,4,1,2,5,E+,1,3,1,400,600,250.0,3,C01DZ,32,train
283.3080291748047,0,3,4,1,2,5,E+,1,3,1,400,600,250.0,3,C01DZ,33,train
363.1751537322998,0,3,4,1,2,5,E+,1,2,4,400,600,250.0,2,C01DZ,34,train
379.302978515625,0,3,4,1,2,5,E+,1,3,1,400,600,250.0,3,C01DZ,35,train
281.9840908050537,0,3,4,1,2,5,E+,1,3,1,400,600,250.0,3,C01DZ,36,train
59.242963790893555,0,3,4,1,2,5,E+,1,0,0,400,600,250.0,0,C01DZ,37,train
59.1731071472168,0,3,4,1,2,5,E+,1,0,0,400,600,250.0,0,C01DZ,38,train
539.2510890960693,0,3,4,1,2,5,E+,1,2,4,400,600,250.0,2,C01DZ,39,train
235.20302772521973,0,3,4,1,2,5,E+,1,2,4,400,600,250.0,2,C01DZ,40,train
475.33106803894043,0,3,4,1,2,5,E+,1,4,2,400,600,250.0,4,C01DZ,41,train
411.1769199371338,0,3,4,1,2,5,E+,1,3,1,400,600,250.0,3,C01DZ,42,train
315.230131149292,0,3,4,1,2,5,E+,1,5,5,400,600,250.0,5,C01DZ,43,train
315.15002250671387,0,3,4,1,2,5,E+,1,5,5,400,600,250.0,5,C01DZ,44,train
267.3020362854004,0,3,4,1,2,5,E+,1,1,3,400,600,250.0,1,C01DZ,45,train
155.8220386505127,0,3,4,1,2,5,E+,1,0,0,400,600,250.0,0,C01DZ,46,train
572.1991062164307,0,3,4,1,2,5,E+,1,3,1,400,600,250.0,3,C01DZ,47,train
267.24886894226074,0,3,4,1,2,5,E+,1,0,0,400,600,250.0,0,C01DZ,48,train
267.76695251464844,0,3,4,1,2,5,E+,1,3,1,400,600,250.0,3,C01DZ,49,train
171.28300666809082,0,3,4,1,2,5,E+,1,0,0,400,600,250.0,0,C01DZ,50,train
171.33593559265137,0,3,4,1,2,5,E+,1,5,5,400,600,250.0,5,C01DZ,51,train
635.261058807373,0,3,4,1,2,5,E+,1,3,1,400,600,250.0,3,C01DZ,52,train
155.19094467163086,0,3,4,1,2,5,E+,1,1,3,400,600,250.0,1,C01DZ,53,train
59.31687355041504,0,3,4,1,2,5,E+,1,0,0,400,600,250.0,0,C01DZ,54,train
123.3358383178711,0,3,4,1,2,5,E+,1,1,3,400,600,250.0,1,C01DZ,55,train
171.15306854248047,0,3,4,1,2,5,E+,1,1,3,400,600,250.0,1,C01DZ,56,train
139.2228603363037,0,3,4,1,2,5,E+,1,2,4,400,600,250.0,2,C01DZ,57,train
107.32483863830566,0,3,4,1,2,5,E+,1,0,0,400,600,250.0,0,C01DZ,58,train
123.42381477355957,0,3,4,1,2,5,E+,1,0,0,400,600,250.0,0,C01DZ,59,train
299.0729808807373,0,3,4,1,2,5,E+,0,4,2,400,600,250.0,3,C01DZ,60,train
203.23705673217773,0,3,4,1,2,5,E+,1,1,3,400,600,250.0,1,C01DZ,61,train
235.31103134155273,0,3,4,1,2,5,E+,1,5,5,400,600,250.0,5,C01DZ,62,train
123.14701080322266,0,3,4,1,2,5,E+,1,5,5,400,600,250.0,5,C01DZ,63,train
91.46499633789062,0,3,4,1,2,5,E+,1,5,5,400,600,250.0,5,C01DZ,64,train
139.26219940185547,0,3,4,1,2,5,E+,1,0,0,400,600,250.0,0,C01DZ,65,train
107.13005065917969,0,3,4,1,2,5,E+,1,1,3,400,600,250.0,1,C01DZ,66,train
556.5998554229736,0,3,4,1,2,5,E+,1,4,2,400,600,250.0,4,C01DZ,67,train
106.30917549133301,0,3,4,1,2,5,E+,1,0,0,400,600,250.0,0,C01DZ,68,train
107.06090927124023,0,3,4,1,2,5,E+,1,3,1,400,600,250.0,3,C01DZ,69,train
235.1999282836914,0,3,4,1,2,5,E+,0,2,4,400,600,250.0,1,C01DZ,70,train
235.83221435546875,0,3,4,1,2,5,E+,1,5,5,400,600,250.0,5,C01DZ,71,train
459.259033203125,0,3,4,1,2,5,E+,1,2,4,400,600,250.0,2,C01DZ,72,train
379.3940544128418,0,3,4,1,2,5,E+,1,3,1,400,600,250.0,3,C01DZ,73,train
155.80105781555176,0,3,4,1,2,5,E+,1,2,4,400,600,250.0,2,C01DZ,74,train
251.74784660339355,0,3,4,1,2,5,E+,1,2,4,400,600,250.0,2,C01DZ,75,train
219.2249298095703,0,3,4,1,2,5,E+,1,3,1,400,600,250.0,3,C01DZ,76,train
251.61099433898926,0,3,4,1,2,5,E+,1,2,4,400,600,250.0,2,C01DZ,77,train
219.2831039428711,0,3,4,1,2,5,E+,1,5,5,400,600,250.0,5,C01DZ,78,train
121.70100212097168,0,3,4,1,2,5,E+,1,0,0,400,600,250.0,0,C01DZ,79,train
443.2849884033203,0,3,4,1,2,5,E+,1,2,4,400,600,250.0,2,C01DZ,80,train
283.3278179168701,0,3,4,1,2,5,E+,1,4,2,400,600,250.0,4,C01DZ,81,train
75.25801658630371,0,3,4,1,2,5,E+,1,0,0,400,600,250.0,0,C01DZ,82,train
636.3410949707031,0,3,4,1,2,5,E+,0,3,1,400,600,250.0,2,C01DZ,83,train
475.16393661499023,0,3,4,1,2,5,E+,1,3,1,400,600,250.0,3,C01DZ,84,train
459.2111110687256,0,3,4,1,2,5,E+,1,1,3,400,600,250.0,1,C01DZ,85,train
331.2110900878906,0,3,4,1,2,5,E+,1,4,2,400,600,250.0,4,C01DZ,86,train
232.92803764343262,0,3,4,1,2,5,E+,1,5,5,400,600,250.0,5,C01DZ,87,train
139.01400566101074,0,3,4,1,2,5,E+,1,5,5,400,600,250.0,5,C01DZ,88,train
315.27209281921387,0,3,4,1,2,5,E+,1,1,3,400,600,250.0,1,C01DZ,89,train
123.35419654846191,0,3,4,1,2,5,E+,1,0,0,400,600,250.0,0,C01DZ,90,train
251.27196311950684,0,3,4,1,2,5,E+,1,5,5,400,600,250.0,5,C01DZ,91,train
267.3060894012451,0,3,4,1,2,5,E+,1,2,4,400,600,250.0,2,C01DZ,92,train
219.33507919311523,0,3,4,1,2,5,E+,1,5,5,400,600,250.0,5,C01DZ,93,train
187.2560977935791,0,3,4,1,2,5,E+,1,5,5,400,600,250.0,5,C01DZ,94,train
491.8520450592041,0,3,4,1,2,5,E+,1,2,4,400,600,250.0,2,C01DZ,95,train
91.33005142211914,0,3,4,1,2,5,E+,1,0,0,400,600,250.0,0,C01DZ,96,train
187.3610019683838,0,3,4,1,2,5,E+,1,4,2,400,600,250.0,4,C01DZ,97,train
75.27303695678711,0,3,4,1,2,5,E+,1,5,5,400,600,250.0,5,C01DZ,98,train
171.60606384277344,0,3,4,1,2,5,E+,0,3,1,400,600,250.0,2,C01DZ,99,train
315.6740665435791,0,3,4,1,2,5,E+,1,5,5,400,600,250.0,5,C01DZ,100,train
203.25088500976562,0,3,4,1,2,5,E+,1,5,5,400,600,250.0,5,C01DZ,101,train
123.26216697692871,0,3,4,1,2,5,E+,1,4,2,400,600,250.0,4,C01DZ,102,train
123.11887741088867,0,3,4,1,2,5,E+,1,0,0,400,600,250.0,0,C01DZ,103,train
219.3131446838379,0,3,4,1,2,5,E+,1,0,0,400,600,250.0,0,C01DZ,104,train
570.9781646728516,0,3,4,1,2,5,E+,1,4,2,400,600,250.0,4,C01DZ,105,train
250.7171630859375,0,3,4,1,2,5,E+,1,4,2,400,600,250.0,4,C01DZ,106,train
171.19884490966797,0,3,4,1,2,5,E+,1,3,1,400,600,250.0,3,C01DZ,107,train
187.25204467773438,0,3,4,1,2,5,E+,1,3,1,400,600,250.0,3,C01DZ,108,train
139.25886154174805,0,3,4,1,2,5,E+,1,2,4,400,600,250.0,2,C01DZ,109,train
107.6500415802002,0,3,4,1,2,5,E+,1,0,0,400,600,250.0,0,C01DZ,110,train
363.3389472961426,0,3,4,1,2,5,E+,1,3,1,400,600,250.0,3,C01DZ,111,train
27.109146118164062,0,3,4,1,2,5,E+,1,3,1,400,600,250.0,3,C01DZ,112,train
1147.367000579834,0,3,4,1,2,5,E+,1,3,1,400,600,250.0,3,C01DZ,113,train
219.1610336303711,0,3,4,1,2,5,E+,1,5,5,400,600,250.0,5,C01DZ,114,train
233.82091522216797,0,3,4,1,2,5,E+,1,2,4,400,600,250.0,2,C01DZ,115,train
315.72794914245605,0,3,4,1,2,5,E+,1,4,2,400,600,250.0,4,C01DZ,116,train
171.14496231079102,0,3,4,1,2,5,E+,1,3,1,400,600,250.0,3,C01DZ,117,train
107.2530746459961,0,3,4,1,2,5,E+,0,1,3,400,600,250.0,2,C01DZ,118,train
427.19101905822754,0,3,4,1,2,5,E+,1,3,1,400,600,250.0,3,C01DZ,119,train
155.35402297973633,0,3,4,1,2,5,E+,1,5,5,400,600,250.0,5,C01DZ,120,train
91.2160873413086,0,3,4,1,2,5,E+,1,3,1,400,600,250.0,3,C01DZ,121,train
203.2949924468994,0,3,4,1,2,5,E+,1,4,2,400,600,250.0,4,C01DZ,122,train
139.2819881439209,0,3,4,1,2,5,E+,1,0,0,400,600,250.0,0,C01DZ,123,train
107.74493217468262,0,3,4,1,2,5,E+,1,1,3,400,600,250.0,1,C01DZ,124,train
203.29999923706055,0,3,4,1,2,5,E+,1,4,2,400,600,250.0,4,C01DZ,125,train
91.01510047912598,0,3,4,1,2,5,E+,1,5,5,400,600,250.0,5,C01DZ,126,train
187.18910217285156,0,3,4,1,2,5,E+,1,3,1,400,600,250.0,3,C01DZ,127,train
139.19401168823242,0,3,4,1,2,5,E+,1,5,5,400,600,250.0,5,C01DZ,128,train
507.1520805358887,0,3,4,1,2,5,E+,1,2,4,400,600,250.0,2,C01DZ,129,train
155.181884765625,0,3,4,1,2,5,E+,1,0,0,400,600,250.0,0,C01DZ,130,train
219.34199333190918,0,3,4,1,2,5,E+,1,1,3,400,600,250.0,1,C01DZ,131,train
379.09698486328125,0,3,4,1,2,5,E+,1,3,1,400,600,250.0,3,C01DZ,132,train
171.13900184631348,0,3,4,1,2,5,E+,1,5,5,400,600,250.0,5,C01DZ,133,train
330.718994140625,0,3,4,1,2,5,E+,1,3,1,400,600,250.0,3,C01DZ,134,train
252.0279884338379,0,3,4,1,2,5,E+,1,5,5,400,600,250.0,5,C01DZ,135,train
187.29805946350098,0,3,4,1,2,5,E+,1,3,1,400,600,250.0,3,C01DZ,136,train
216.12977981567383,0,3,4,1,2,5,E+,1,0,0,400,600,250.0,0,C01DZ,137,train
187.18600273132324,0,3,4,1,2,5,E+,1,2,4,400,600,250.0,2,C01DZ,138,train
214.23888206481934,0,3,4,1,2,5,E+,1,0,0,400,600,250.0,0,C01DZ,139,train
251.06000900268555,0,3,4,1,2,5,E+,1,3,1,400,600,250.0,3,C01DZ,140,train
251.25408172607422,0,3,4,1,2,5,E+,1,1,3,400,600,250.0,1,C01DZ,141,train
74.8128890991211,0,3,4,1,2,5,E+,1,2,4,400,600,250.0,2,C01DZ,142,train
59.777021408081055,0,3,4,1,2,5,E+,1,1,3,400,600,250.0,1,C01DZ,143,train
123.3370304107666,0,3,4,1,2,5,E+,1,5,5,400,600,250.0,5,C01DZ,144,train
824.7311115264893,0,3,4,1,2,5,E+,1,0,0,400,600,250.0,0,C01DZ,145,train
281.9240093231201,0,3,4,1,2,5,E+,1,4,2,400,600,250.0,4,C01DZ,146,train
123.28195571899414,0,3,4,1,2,5,E+,1,5,5,400,600,250.0,5,C01DZ,147,train
43.3039665222168,0,3,4,1,2,5,E+,1,1,3,400,600,250.0,1,C01DZ,148,train
299.38697814941406,0,3,4,1,2,5,E+,1,1,3,400,600,250.0,1,C01DZ,149,train
11.188030242919922,0,3,4,1,2,5,E+,1,1,3,400,600,250.0,1,C01DZ,150,train
123.2600212097168,0,3,4,1,2,5,E+,0,4,2,400,600,250.0,2,C01DZ,151,train
251.2500286102295,0,3,4,1,2,5,E+,1,1,3,400,600,250.0,1,C01DZ,152,train
139.2509937286377,0,3,4,1,2,5,E+,1,5,5,400,600,250.0,5,C01DZ,153,train
299.73793029785156,0,3,4,1,2,5,E+,0,3,1,400,600,250.0,4,C01DZ,154,train
395.313024520874,0,3,4,1,2,5,E+,1,3,1,400,600,250.0,3,C01DZ,155,train
187.07013130187988,0,3,4,1,2,5,E+,1,0,0,400,600,250.0,0,C01DZ,156,train
331.33697509765625,0,3,4,1,2,5,E+,1,3,1,400,600,250.0,3,C01DZ,157,train
43.196916580200195,0,3,4,1,2,5,E+,1,5,5,400,600,250.0,5,C01DZ,158,train
155.76982498168945,0,3,4,1,2,5,E+,1,4,2,400,600,250.0,4,C01DZ,159,train
122.9100227355957,0,3,4,1,2,5,E+,1,3,1,400,600,250.0,3,C01DZ,160,train
107.19680786132812,0,3,4,1,2,5,E+,1,1,3,400,600,250.0,1,C01DZ,161,train
154.9661159515381,0,3,4,1,2,5,E+,1,0,0,400,600,250.0,0,C01DZ,162,train
169.70396041870117,0,3,4,1,2,5,E+,0,3,1,400,600,250.0,5,C01DZ,163,train
27.090072631835938,0,3,4,1,2,5,E+,1,3,1,400,600,250.0,3,C01DZ,164,train
667.2561168670654,0,3,4,1,2,5,E+,1,3,1,400,600,250.0,3,C01DZ,165,train
251.28579139709473,0,3,4,1,2,5,E+,1,3,1,400,600,250.0,3,C01DZ,166,train
331.7749500274658,0,3,4,1,2,5,E+,1,2,4,400,600,250.0,2,C01DZ,167,train
43.267011642456055,0,3,4,1,2,5,E+,1,1,3,400,600,250.0,1,C01DZ,168,train
235.07118225097656,0,3,4,1,2,5,E+,1,2,4,400,600,250.0,2,C01DZ,169,train
155.1229953765869,0,3,4,1,2,5,E+,1,5,5,400,600,250.0,5,C01DZ,170,train
219.29216384887695,0,3,4,1,2,5,E+,1,3,1,400,600,250.0,3,C01DZ,171,train
91.21513366699219,0,3,4,1,2,5,E+,0,1,3,400,600,250.0,2,C01DZ,172,train
235.71109771728516,0,3,4,1,2,5,E+,1,3,1,400,600,250.0,3,C01DZ,173,train
155.18593788146973,0,3,4,1,2,5,E+,1,4,2,400,600,250.0,4,C01DZ,174,train
235.28718948364258,0,3,4,1,2,5,E+,1,3,1,400,600,250.0,3,C01DZ,175,train
248.91304969787598,0,3,4,1,2,5,E+,0,2,4,400,600,250.0,1,C01DZ,176,train
154.74987030029297,0,3,4,1,2,5,E+,1,0,0,400,600,250.0,0,C01DZ,177,train
169.54302787780762,0,3,4,1,2,5,E+,0,2,4,400,600,250.0,1,C01DZ,178,train
235.16297340393066,0,3,4,1,2,5,E+,1,5,5,400,600,250.0,5,C01DZ,179,train
523.0779647827148,0,3,4,1,2,5,E+,1,1,3,400,600,250.0,1,C01DZ,180,train
443.07494163513184,0,3,4,1,2,5,E+,1,2,4,400,600,250.0,2,C01DZ,181,train
203.26805114746094,0,3,4,1,2,5,E+,1,2,4,400,600,250.0,2,C01DZ,182,train
267.197847366333,0,3,4,1,2,5,E+,1,5,5,400,600,250.0,5,C01DZ,183,train
299.2730140686035,0,3,4,1,2,5,E+,1,2,4,400,600,250.0,2,C01DZ,184,train
203.28593254089355,0,3,4,1,2,5,E+,1,1,3,400,600,250.0,1,C01DZ,185,train
267.2569751739502,0,3,4,1,2,5,E+,1,4,2,400,600,250.0,4,C01DZ,186,train
219.22683715820312,0,3,4,1,2,5,E+,1,1,3,400,600,250.0,1,C01DZ,187,train
203.23681831359863,0,3,4,1,2,5,E+,1,1,3,400,600,250.0,1,C01DZ,188,train
107.30099678039551,0,3,4,1,2,5,E+,1,1,3,400,600,250.0,1,C01DZ,189,train
170.23587226867676,0,3,4,1,2,5,E+,1,2,4,400,600,250.0,2,C01DZ,190,train
138.61799240112305,0,3,4,1,2,5,E+,1,4,2,400,600,250.0,4,C01DZ,191,train
203.26685905456543,0,3,4,1,2,5,E+,1,1,3,400,600,250.0,1,C01DZ,192,train
251.3270378112793,0,3,4,1,2,5,E+,1,1,3,400,600,250.0,1,C01DZ,193,train
154.34002876281738,0,3,4,1,2,5,E+,1,1,3,400,600,250.0,1,C01DZ,194,train
91.32099151611328,0,3,4,1,2,5,E+,1,0,0,400,600,250.0,0,C01DZ,195,train
106.54997825622559,0,3,4,1,2,5,E+,1,0,0,400,600,250.0,0,C01DZ,196,train
555.1910400390625,0,3,4,1,2,5,E+,1,0,0,400,600,250.0,0,C01DZ,197,train
170.7010269165039,0,3,4,1,2,5,E+,1,5,5,400,600,250.0,5,C01DZ,198,train
683.3059787750244,0,3,4,1,2,5,E+,1,3,1,400,600,250.0,3,C01DZ,199,train
139.1758918762207,0,3,4,1,2,5,E+,1,4,2,400,600,250.0,4,C01DZ,200,train
284.3499183654785,0,3,4,1,2,5,E+,1,2,4,400,600,250.0,2,C01DZ,201,train
251.1310577392578,0,3,4,1,2,5,E+,1,4,2,400,600,250.0,4,C01DZ,202,train
186.45501136779785,0,3,4,1,2,5,E+,1,1,3,400,600,250.0,1,C01DZ,203,train
203.13715934753418,0,3,4,1,2,5,E+,1,0,0,400,600,250.0,0,C01DZ,204,train
88.57893943786621,0,3,4,1,2,5,E+,1,0,0,400,600,250.0,0,C01DZ,205,train
443.12405586242676,0,3,4,1,2,5,E+,1,3,1,400,600,250.0,3,C01DZ,206,train
219.11096572875977,0,3,4,1,2,5,E+,1,5,5,400,600,250.0,5,C01DZ,207,train
442.0480728149414,0,3,4,1,2,5,E+,0,2,4,400,600,250.0,1,C01DZ,208,train
411.0279083251953,0,3,4,1,2,5,E+,1,4,2,400,600,250.0,4,C01DZ,209,train
459.13100242614746,0,3,4,1,2,5,E+,1,2,4,400,600,250.0,2,C01DZ,210,train
652.299165725708,0,3,4,1,2,5,E+,1,3,1,400,600,250.0,3,C01DZ,211,train
140.2289867401123,0,3,4,1,2,5,E+,1,0,0,400,600,250.0,0,C01DZ,212,train
603.3921241760254,0,3,4,1,2,5,E+,1,4,2,400,600,250.0,4,C01DZ,213,train
155.20381927490234,0,3,4,1,2,5,E+,1,1,3,400,600,250.0,1,C01DZ,214,train
11.307954788208008,0,3,4,1,2,5,E+,1,1,3,400,600,250.0,1,C01DZ,215,train
315.17696380615234,0,3,4,1,2,5,E+,1,3,1,400,600,250.0,3,C01DZ,216,train
219.29407119750977,0,3,4,1,2,5,E+,1,1,3,400,600,250.0,1,C01DZ,217,train
75.12998580932617,0,3,4,1,2,5,E+,1,2,4,400,600,250.0,2,C01DZ,218,train
331.6800594329834,0,3,4,1,2,5,E+,1,1,3,400,600,250.0,1,C01DZ,219,train
267.2710418701172,0,3,4,1,2,5,E+,0,4,2,400,600,250.0,3,C01DZ,220,train
250.7040500640869,0,3,4,1,2,5,E+,1,0,0,400,600,250.0,0,C01DZ,221,train
235.26501655578613,0,3,4,1,2,5,E+,1,2,4,400,600,250.0,2,C01DZ,222,train
363.16990852355957,0,3,4,1,2,5,E+,1,3,1,400,600,250.0,3,C01DZ,223,train
155.10010719299316,0,3,4,1,2,5,E+,1,2,4,400,600,250.0,2,C01DZ,224,train
140.26188850402832,0,3,4,1,2,5,E+,1,3,1,400,600,250.0,3,C01DZ,225,train
171.1728572845459,0,3,4,1,2,5,E+,1,1,3,400,600,250.0,1,C01DZ,226,train
395.22385597229004,0,3,4,1,2,5,E+,1,4,2,400,600,250.0,4,C01DZ,227,train
171.10610008239746,0,3,4,1,2,5,E+,1,1,3,400,600,250.0,1,C01DZ,228,train
155.61485290527344,0,3,4,1,2,5,E+,1,5,5,400,600,250.0,5,C01DZ,229,train
299.18384552001953,0,3,4,1,2,5,E+,1,3,1,400,600,250.0,3,C01DZ,230,train
187.10899353027344,0,3,4,1,2,5,E+,1,2,4,400,600,250.0,2,C01DZ,231,train
107.27787017822266,0,3,4,1,2,5,E+,1,3,1,400,600,250.0,3,C01DZ,232,train
155.42316436767578,0,3,4,1,2,5,E+,1,1,3,400,600,250.0,1,C01DZ,233,train
139.22595977783203,0,3,4,1,2,5,E+,1,5,5,400,600,250.0,5,C01DZ,234,train
140.20681381225586,0,3,4,1,2,5,E+,1,4,2,400,600,250.0,4,C01DZ,235,train
219.18606758117676,0,3,4,1,2,5,E+,1,0,0,400,600,250.0,0,C01DZ,236,train
363.1908893585205,0,3,4,1,2,5,E+,1,4,2,400,600,250.0,4,C01DZ,237,train
91.37105941772461,0,3,4,1,2,5,E+,1,5,5,400,600,250.0,5,C01DZ,238,train
140.32888412475586,0,3,4,1,2,5,E+,1,0,0,400,600,250.0,0,C01DZ,239,train
347.121000289917,0,3,4,1,2,5,E+,1,2,4,400,600,250.0,2,C01DZ,240,train
200.79398155212402,0,3,4,1,2,5,E+,1,4,2,400,600,250.0,4,C01DZ,241,train
107.13505744934082,0,3,4,1,2,5,E+,1,4,2,400,600,250.0,4,C01DZ,242,train
203.05705070495605,0,3,4,1,2,5,E+,1,2,4,400,600,250.0,2,C01DZ,243,train
459.1660499572754,0,3,4,1,2,5,E+,1,3,1,400,600,250.0,3,C01DZ,244,train
107.2549819946289,0,3,4,1,2,5,E+,1,0,0,400,600,250.0,0,C01DZ,245,train
155.0438404083252,0,3,4,1,2,5,E+,1,5,5,400,600,250.0,5,C01DZ,246,train
235.17394065856934,0,3,4,1,2,5,E+,1,0,0,400,600,250.0,0,C01DZ,247,train
122.32589721679688,0,3,4,1,2,5,E+,1,2,4,400,600,250.0,2,C01DZ,248,train
138.89288902282715,0,3,4,1,2,5,E+,1,3,1,400,600,250.0,3,C01DZ,249,train
977.0209789276123,0,3,4,1,2,5,E+,0,4,2,0,1000,250.0,3,C01DZ,250,test
896.9039916992188,0,3,4,1,2,5,E+,1,5,5,0,1000,250.0,5,C01DZ,251,test
622.7030754089355,0,3,4,1,2,5,E+,1,0,0,0,1000,250.0,0,C01DZ,252,test
705.2841186523438,0,3,4,1,2,5,E+,1,0,0,0,1000,250.0,0,C01DZ,253,test
512.7429962158203,0,3,4,1,2,5,E+,1,0,0,0,1000,250.0,0,C01DZ,254,test
736.8919849395752,0,3,4,1,2,5,E+,1,4,2,0,1000,250.0,4,C01DZ,255,test
574.5720863342285,0,3,4,1,2,5,E+,1,1,3,0,1000,250.0,1,C01DZ,256,test
767.7180767059326,0,3,4,1,2,5,E+,1,4,2,0,1000,250.0,4,C01DZ,257,test
672.6150512695312,0,3,4,1,2,5,E+,1,2,4,0,1000,250.0,2,C01DZ,258,test
528.95188331604,0,3,4,1,2,5,E+,1,0,0,0,1000,250.0,0,C01DZ,259,test
576.8811702728271,0,3,4,1,2,5,E+,0,4,2,0,1000,250.0,3,C01DZ,260,test
512.6969814300537,0,3,4,1,2,5,E+,1,3,1,0,1000,250.0,3,C01DZ,261,test
657.0320129394531,0,3,4,1,2,5,E+,1,4,2,0,1000,250.0,4,C01DZ,262,test
529.2160511016846,0,3,4,1,2,5,E+,1,0,0,0,1000,250.0,0,C01DZ,263,test
544.5230007171631,0,3,4,1,2,5,E+,1,2,4,0,1000,250.0,2,C01DZ,264,test
529.0148258209229,0,3,4,1,2,5,E+,1,3,1,0,1000,250.0,3,C01DZ,265,test
608.8731288909912,0,3,4,1,2,5,E+,1,2,4,0,1000,250.0,2,C01DZ,266,test
833.0228328704834,0,3,4,1,2,5,E+,1,5,5,0,1000,250.0,5,C01DZ,267,test
705.05690574646,0,3,4,1,2,5,E+,1,1,3,0,1000,250.0,1,C01DZ,268,test
1009.253978729248,0,3,4,1,2,5,E+,1,3,1,0,1000,250.0,3,C01DZ,269,test
656.8210124969482,0,3,4,1,2,5,E+,1,1,3,0,1000,250.0,1,C01DZ,270,test
560.8160495758057,0,3,4,1,2,5,E+,1,3,1,0,1000,250.0,3,C01DZ,271,test
558.884859085083,0,3,4,1,2,5,E+,1,4,2,0,1000,250.0,4,C01DZ,272,test
561.0477924346924,0,3,4,1,2,5,E+,1,5,5,0,1000,250.0,5,C01DZ,273,test
512.9270553588867,0,3,4,1,2,5,E+,1,5,5,0,1000,250.0,5,C01DZ,274,test
560.9040260314941,0,3,4,1,2,5,E+,1,2,4,0,1000,250.0,2,C01DZ,275,test
752.8171539306641,0,3,4,1,2,5,E+,1,0,0,0,1000,250.0,0,C01DZ,276,test
656.6579341888428,0,3,4,1,2,5,E+,1,2,4,0,1000,250.0,2,C01DZ,277,test
560.4879856109619,0,3,4,1,2,5,E+,1,0,0,0,1000,250.0,0,C01DZ,278,test
497.0259666442871,0,3,4,1,2,5,E+,1,2,4,0,1000,250.0,2,C01DZ,279,test
624.8641014099121,0,3,4,1,2,5,E+,1,5,5,0,1000,250.0,5,C01DZ,280,test
593.0430889129639,0,3,4,1,2,5,E+,1,2,4,0,1000,250.0,2,C01DZ,281,test
592.9110050201416,0,3,4,1,2,5,E+,1,1,3,0,1000,250.0,1,C01DZ,282,test
624.5689392089844,0,3,4,1,2,5,E+,1,0,0,0,1000,250.0,0,C01DZ,283,test
719.9280261993408,0,3,4,1,2,5,E+,0,4,2,0,1000,250.0,5,C01DZ,284,test
512.8471851348877,0,3,4,1,2,5,E+,1,3,1,0,1000,250.0,3,C01DZ,285,test
671.7269420623779,0,3,4,1,2,5,E+,1,3,1,0,1000,250.0,3,C01DZ,286,test
672.8789806365967,0,3,4,1,2,5,E+,1,1,3,0,1000,250.0,1,C01DZ,287,test
640.949010848999,0,3,4,1,2,5,E+,1,1,3,0,1000,250.0,1,C01DZ,288,test
737.0669841766357,0,3,4,1,2,5,E+,1,5,5,0,1000,250.0,5,C01DZ,289,test
625.4990100860596,0,3,4,1,2,5,E+,1,2,4,0,1000,250.0,2,C01DZ,290,test
608.9041233062744,0,3,4,1,2,5,E+,1,0,0,0,1000,250.0,0,C01DZ,291,test
624.7868537902832,0,3,4,1,2,5,E+,1,0,0,0,1000,250.0,0,C01DZ,292,test
608.9398860931396,0,3,4,1,2,5,E+,1,2,4,0,1000,250.0,2,C01DZ,293,test
592.9620265960693,0,3,4,1,2,5,E+,1,3,1,0,1000,250.0,3,C01DZ,294,test
433.0329895019531,0,3,4,1,2,5,E+,1,4,2,0,1000,250.0,4,C01DZ,295,test
641.4279937744141,0,3,4,1,2,5,E+,1,1,3,0,1000,250.0,1,C01DZ,296,test
561.046838760376,0,3,4,1,2,5,E+,1,5,5,0,1000,250.0,5,C01DZ,297,test
448.8511085510254,0,3,4,1,2,5,E+,1,5,5,0,1000,250.0,5,C01DZ,298,test
561.0268115997314,0,3,4,1,2,5,E+,1,5,5,0,1000,250.0,5,C01DZ,299,test
657.1159362792969,0,3,4,1,2,5,E+,1,1,3,0,1000,250.0,1,C01DZ,300,test
624.7329711914062,0,3,4,1,2,5,E+,1,5,5,0,1000,250.0,5,C01DZ,301,test
816.9519901275635,0,3,4,1,2,5,E+,1,0,0,0,1000,250.0,0,C01DZ,302,test
480.85498809814453,0,3,4,1,2,5,E+,1,0,0,0,1000,250.0,0,C01DZ,303,test
689.0320777893066,0,3,4,1,2,5,E+,1,4,2,0,1000,250.0,4,C01DZ,304,test
705.1551342010498,0,3,4,1,2,5,E+,1,0,0,0,1000,250.0,0,C01DZ,305,test
592.7259922027588,0,3,4,1,2,5,E+,1,3,1,0,1000,250.0,3,C01DZ,306,test
513.0710601806641,0,3,4,1,2,5,E+,1,3,1,0,1000,250.0,3,C01DZ,307,test
593.1010246276855,0,3,4,1,2,5,E+,0,2,4,0,1000,250.0,1,C01DZ,308,test
416.77308082580566,0,3,4,1,2,5,E+,1,2,4,0,1000,250.0,2,C01DZ,309,test
624.8688697814941,0,3,4,1,2,5,E+,1,5,5,0,1000,250.0,5,C01DZ,310,test
656.8338871002197,0,3,4,1,2,5,E+,1,1,3,0,1000,250.0,1,C01DZ,311,test
736.8531227111816,0,3,4,1,2,5,E+,1,4,2,0,1000,250.0,4,C01DZ,312,test
705.1610946655273,0,3,4,1,2,5,E+,1,4,2,0,1000,250.0,4,C01DZ,313,test
561.0380172729492,0,3,4,1,2,5,E+,1,0,0,0,1000,250.0,0,C01DZ,314,test
608.7441444396973,0,3,4,1,2,5,E+,1,3,1,0,1000,250.0,3,C01DZ,315,test
608.0009937286377,0,3,4,1,2,5,E+,1,2,4,0,1000,250.0,2,C01DZ,316,test
432.91401863098145,0,3,4,1,2,5,E+,1,2,4,0,1000,250.0,2,C01DZ,317,test
494.78602409362793,0,3,4,1,2,5,E+,1,1,3,0,1000,250.0,1,C01DZ,318,test
561.0120296478271,0,3,4,1,2,5,E+,1,1,3,0,1000,250.0,1,C01DZ,319,test
511.74306869506836,0,3,4,1,2,5,E+,1,2,4,0,1000,250.0,2,C01DZ,320,test
529.0319919586182,0,3,4,1,2,5,E+,1,1,3,0,1000,250.0,1,C01DZ,321,test
479.59303855895996,0,3,4,1,2,5,E+,1,1,3,0,1000,250.0,1,C01DZ,322,test
640.8848762512207,0,3,4,1,2,5,E+,1,0,0,0,1000,250.0,0,C01DZ,323,test
544.9800491333008,0,3,4,1,2,5,E+,1,3,1,0,1000,250.0,3,C01DZ,324,test
543.6849594116211,0,3,4,1,2,5,E+,1,5,5,0,1000,250.0,5,C01DZ,325,test
494.6789741516113,0,3,4,1,2,5,E+,1,5,5,0,1000,250.0,5,C01DZ,326,test
544.9221134185791,0,3,4,1,2,5,E+,1,4,2,0,1000,250.0,4,C01DZ,327,test
608.7629795074463,0,3,4,1,2,5,E+,1,2,4,0,1000,250.0,2,C01DZ,328,test
544.8830127716064,0,3,4,1,2,5,E+,1,3,1,0,1000,250.0,3,C01DZ,329,test
577.0080089569092,0,3,4,1,2,5,E+,1,5,5,0,1000,250.0,5,C01DZ,330,test
527.5900363922119,0,3,4,1,2,5,E+,1,3,1,0,1000,250.0,3,C01DZ,331,test
592.7999019622803,0,3,4,1,2,5,E+,1,2,4,0,1000,250.0,2,C01DZ,332,test
640.9108638763428,0,3,4,1,2,5,E+,1,0,0,0,1000,250.0,0,C01DZ,333,test
561.0558986663818,0,3,4,1,2,5,E+,1,5,5,0,1000,250.0,5,C01DZ,334,test
1040.8809185028076,0,3,4,1,2,5,E+,1,1,3,0,1000,250.0,1,C01DZ,335,test
592.8659439086914,0,3,4,1,2,5,E+,1,3,1,0,1000,250.0,3,C01DZ,336,test
416.26501083374023,0,3,4,1,2,5,E+,1,3,1,0,1000,250.0,3,C01DZ,337,test
704.9458026885986,0,3,4,1,2,5,E+,1,4,2,0,1000,250.0,4,C01DZ,338,test
961.0269069671631,0,3,4,1,2,5,E+,1,2,4,0,1000,250.0,2,C01DZ,339,test
496.89292907714844,0,3,4,1,2,5,E+,1,5,5,0,1000,250.0,5,C01DZ,340,test
496.9959259033203,0,3,4,1,2,5,E+,1,0,0,0,1000,250.0,0,C01DZ,341,test
464.6909236907959,0,3,4,1,2,5,E+,1,3,1,0,1000,250.0,3,C01DZ,342,test
608.8900566101074,0,3,4,1,2,5,E+,1,5,5,0,1000,250.0,5,C01DZ,343,test
560.8701705932617,0,3,4,1,2,5,E+,1,2,4,0,1000,250.0,2,C01DZ,344,test
545.0060367584229,0,3,4,1,2,5,E+,1,0,0,0,1000,250.0,0,C01DZ,345,test
512.9711627960205,0,3,4,1,2,5,E+,1,3,1,0,1000,250.0,3,C01DZ,346,test
496.85001373291016,0,3,4,1,2,5,E+,1,5,5,0,1000,250.0,5,C01DZ,347,test
574.5348930358887,0,3,4,1,2,5,E+,1,5,5,0,1000,250.0,5,C01DZ,348,test
593.0771827697754,0,3,4,1,2,5,E+,1,0,0,0,1000,250.0,0,C01DZ,349,test
304.9890995025635,0,3,4,1,2,5,E+,0,5,5,0,1000,250.0,1,C01DZ,350,test
560.9438419342041,0,3,4,1,2,5,E+,1,2,4,0,1000,250.0,2,C01DZ,351,test
561.168909072876,0,3,4,1,2,5,E+,1,3,1,0,1000,250.0,3,C01DZ,352,test
560.9540939331055,0,3,4,1,2,5,E+,1,2,4,0,1000,250.0,2,C01DZ,353,test
720.8759784698486,0,3,4,1,2,5,E+,1,1,3,0,1000,250.0,1,C01DZ,354,test
704.9989700317383,0,3,4,1,2,5,E+,1,1,3,0,1000,250.0,1,C01DZ,355,test
512.8128528594971,0,3,4,1,2,5,E+,1,5,5,0,1000,250.0,5,C01DZ,356,test
560.8711242675781,0,3,4,1,2,5,E+,1,0,0,0,1000,250.0,0,C01DZ,357,test
368.8969612121582,0,3,4,1,2,5,E+,1,0,0,0,1000,250.0,0,C01DZ,358,test
560.9700679779053,0,3,4,1,2,5,E+,0,2,4,0,1000,250.0,0,C01DZ,359,test
1057.0359230041504,0,3,4,1,2,5,E+,1,4,2,0,1000,250.0,4,C01DZ,360,test
625.0948905944824,0,3,4,1,2,5,E+,1,3,1,0,1000,250.0,3,C01DZ,361,test
544.8610782623291,0,3,4,1,2,5,E+,1,5,5,0,1000,250.0,5,C01DZ,362,test
672.7309226989746,0,3,4,1,2,5,E+,1,4,2,0,1000,250.0,4,C01DZ,363,test
528.7899971008301,0,3,4,1,2,5,E+,1,5,5,0,1000,250.0,5,C01DZ,364,test
528.9289951324463,0,3,4,1,2,5,E+,1,3,1,0,1000,250.0,3,C01DZ,365,test
480.85904121398926,0,3,4,1,2,5,E+,1,3,1,0,1000,250.0,3,C01DZ,366,test
753.0829906463623,0,3,4,1,2,5,E+,1,1,3,0,1000,250.0,1,C01DZ,367,test
750.8509159088135,0,3,4,1,2,5,E+,1,0,0,0,1000,250.0,0,C01DZ,368,test
688.8890266418457,0,3,4,1,2,5,E+,1,1,3,0,1000,250.0,1,C01DZ,369,test
784.7988605499268,0,3,4,1,2,5,E+,1,1,3,0,1000,250.0,1,C01DZ,370,test
577.0080089569092,0,3,4,1,2,5,E+,1,5,5,0,1000,250.0,5,C01DZ,371,test
416.97096824645996,0,3,4,1,2,5,E+,1,4,2,0,1000,250.0,4,C01DZ,372,test
561.9850158691406,0,3,4,1,2,5,E+,1,5,5,0,1000,250.0,5,C01DZ,373,test
512.9950046539307,0,3,4,1,2,5,E+,1,2,4,0,1000,250.0,2,C01DZ,374,test
448.90713691711426,0,3,4,1,2,5,E+,1,2,4,0,1000,250.0,2,C01DZ,375,test
480.85880279541016,0,3,4,1,2,5,E+,1,1,3,0,1000,250.0,1,C01DZ,376,test
528.5260677337646,0,3,4,1,2,5,E+,1,3,1,0,1000,250.0,3,C01DZ,377,test
464.9028778076172,0,3,4,1,2,5,E+,1,3,1,0,1000,250.0,3,C01DZ,378,test
544.9998378753662,0,3,4,1,2,5,E+,1,4,2,0,1000,250.0,4,C01DZ,379,test
672.8789806365967,0,3,4,1,2,5,E+,1,0,0,0,1000,250.0,0,C01DZ,380,test
542.7110195159912,0,3,4,1,2,5,E+,1,2,4,0,1000,250.0,2,C01DZ,381,test
576.8640041351318,0,3,4,1,2,5,E+,1,4,2,0,1000,250.0,4,C01DZ,382,test
721.1558818817139,0,3,4,1,2,5,E+,0,1,3,0,1000,250.0,2,C01DZ,383,test
576.6229629516602,0,3,4,1,2,5,E+,1,3,1,0,1000,250.0,3,C01DZ,384,test
481.12010955810547,0,3,4,1,2,5,E+,1,3,1,0,1000,250.0,3,C01DZ,385,test
641.103982925415,0,3,4,1,2,5,E+,1,0,0,0,1000,250.0,0,C01DZ,386,test
527.6551246643066,0,3,4,1,2,5,E+,0,4,2,0,1000,250.0,3,C01DZ,387,test
702.7270793914795,0,3,4,1,2,5,E+,1,4,2,0,1000,250.0,4,C01DZ,388,test
576.9598484039307,0,3,4,1,2,5,E+,1,2,4,0,1000,250.0,2,C01DZ,389,test
593.0161476135254,0,3,4,1,2,5,E+,1,4,2,0,1000,250.0,4,C01DZ,390,test
592.4289226531982,0,3,4,1,2,5,E+,1,0,0,0,1000,250.0,0,C01DZ,391,test
592.9760932922363,0,3,4,1,2,5,E+,1,0,0,0,1000,250.0,0,C01DZ,392,test
559.5290660858154,0,3,4,1,2,5,E+,1,2,4,0,1000,250.0,2,C01DZ,393,test
529.0238857269287,0,3,4,1,2,5,E+,1,2,4,0,1000,250.0,2,C01DZ,394,test
1006.6049098968506,0,3,4,1,2,5,E+,1,0,0,0,1000,250.0,0,C01DZ,395,test
592.8740501403809,0,3,4,1,2,5,E+,1,5,5,0,1000,250.0,5,C01DZ,396,test
465.0101661682129,0,3,4,1,2,5,E+,1,5,5,0,1000,250.0,5,C01DZ,397,test
656.9108963012695,0,3,4,1,2,5,E+,1,1,3,0,1000,250.0,1,C01DZ,398,test
592.5900936126709,0,3,4,1,2,5,E+,1,5,5,0,1000,250.0,5,C01DZ,399,test
640.8469676971436,0,3,4,1,2,5,E+,1,2,4,0,1000,250.0,2,C01DZ,400,test
591.5379524230957,0,3,4,1,2,5,E+,1,0,0,0,1000,250.0,0,C01DZ,401,test
609.015941619873,0,3,4,1,2,5,E+,1,4,2,0,1000,250.0,4,C01DZ,402,test
590.7728672027588,0,3,4,1,2,5,E+,1,5,5,0,1000,250.0,5,C01DZ,403,test
736.868143081665,0,3,4,1,2,5,E+,1,1,3,0,1000,250.0,1,C01DZ,404,test
593.0850505828857,0,3,4,1,2,5,E+,1,2,4,0,1000,250.0,2,C01DZ,405,test
704.9331665039062,0,3,4,1,2,5,E+,1,4,2,0,1000,250.0,4,C01DZ,406,test
752.7809143066406,0,3,4,1,2,5,E+,1,2,4,0,1000,250.0,2,C01DZ,407,test
576.9100189208984,0,3,4,1,2,5,E+,1,5,5,0,1000,250.0,5,C01DZ,408,test
720.9780216217041,0,3,4,1,2,5,E+,1,1,3,0,1000,250.0,1,C01DZ,409,test
560.8839988708496,0,3,4,1,2,5,E+,0,4,2,0,1000,250.0,5,C01DZ,410,test
512.8870010375977,0,3,4,1,2,5,E+,1,5,5,0,1000,250.0,5,C01DZ,411,test
576.9939422607422,0,3,4,1,2,5,E+,1,2,4,0,1000,250.0,2,C01DZ,412,test
496.66810035705566,0,3,4,1,2,5,E+,1,0,0,0,1000,250.0,0,C01DZ,413,test
560.6799125671387,0,3,4,1,2,5,E+,0,4,2,0,1000,250.0,5,C01DZ,414,test
656.9650173187256,0,3,4,1,2,5,E+,1,1,3,0,1000,250.0,1,C01DZ,415,test
625.0429153442383,0,3,4,1,2,5,E+,1,5,5,0,1000,250.0,5,C01DZ,416,test
382.7648162841797,0,3,4,1,2,5,E+,1,3,1,0,1000,250.0,3,C01DZ,417,test
590.6760692596436,0,3,4,1,2,5,E+,1,0,0,0,1000,250.0,0,C01DZ,418,test
545.1481342315674,0,3,4,1,2,5,E+,1,4,2,0,1000,250.0,4,C01DZ,419,test
576.8740177154541,0,3,4,1,2,5,E+,1,5,5,0,1000,250.0,5,C01DZ,420,test
576.8570899963379,0,3,4,1,2,5,E+,1,0,0,0,1000,250.0,0,C01DZ,421,test
561.6769790649414,0,3,4,1,2,5,E+,1,3,1,0,1000,250.0,3,C01DZ,422,test
497.0579147338867,0,3,4,1,2,5,E+,1,3,1,0,1000,250.0,3,C01DZ,423,test
384.8390579223633,0,3,4,1,2,5,E+,1,3,1,0,1000,250.0,3,C01DZ,424,test
528.7888050079346,0,3,4,1,2,5,E+,1,5,5,0,1000,250.0,5,C01DZ,425,test
642.0228481292725,0,3,4,1,2,5,E+,1,4,2,0,1000,250.0,4,C01DZ,426,test
606.8060398101807,0,3,4,1,2,5,E+,1,1,3,0,1000,250.0,1,C01DZ,427,test
528.8248062133789,0,3,4,1,2,5,E+,1,0,0,0,1000,250.0,0,C01DZ,428,test
416.67890548706055,0,3,4,1,2,5,E+,1,0,0,0,1000,250.0,0,C01DZ,429,test
513.0231380462646,0,3,4,1,2,5,E+,1,5,5,0,1000,250.0,5,C01DZ,430,test
400.73609352111816,0,3,4,1,2,5,E+,1,5,5,0,1000,250.0,5,C01DZ,431,test
480.9091091156006,0,3,4,1,2,5,E+,1,4,2,0,1000,250.0,4,C01DZ,432,test
496.8540668487549,0,3,4,1,2,5,E+,1,2,4,0,1000,250.0,2,C01DZ,433,test
576.8499374389648,0,3,4,1,2,5,E+,1,1,3,0,1000,250.0,1,C01DZ,434,test
496.9329833984375,0,3,4,1,2,5,E+,1,0,0,0,1000,250.0,0,C01DZ,435,test
720.775842666626,0,3,4,1,2,5,E+,1,4,2,0,1000,250.0,4,C01DZ,436,test
528.6400318145752,0,3,4,1,2,5,E+,1,2,4,0,1000,250.0,2,C01DZ,437,test
561.1629486083984,0,3,4,1,2,5,E+,1,3,1,0,1000,250.0,3,C01DZ,438,test
624.9558925628662,0,3,4,1,2,5,E+,1,5,5,0,1000,250.0,5,C01DZ,439,test
622.8110790252686,0,3,4,1,2,5,E+,1,3,1,0,1000,250.0,3,C01DZ,440,test
913.1369590759277,0,3,4,1,2,5,E+,1,0,0,0,1000,250.0,0,C01DZ,441,test
545.0530052185059,0,3,4,1,2,5,E+,1,5,5,0,1000,250.0,5,C01DZ,442,test
656.7680835723877,0,3,4,1,2,5,E+,1,2,4,0,1000,250.0,2,C01DZ,443,test
528.9340019226074,0,3,4,1,2,5,E+,1,3,1,0,1000,250.0,3,C01DZ,444,test
542.7820682525635,0,3,4,1,2,5,E+,1,2,4,0,1000,250.0,2,C01DZ,445,test
513.1299495697021,0,3,4,1,2,5,E+,1,5,5,0,1000,250.0,5,C01DZ,446,test
543.738842010498,0,3,4,1,2,5,E+,1,2,4,0,1000,250.0,2,C01DZ,447,test
752.7790069580078,0,3,4,1,2,5,E+,1,4,2,0,1000,250.0,4,C01DZ,448,test
512.8769874572754,0,3,4,1,2,5,E+,1,4,2,0,1000,250.0,4,C01DZ,449,test
513.0400657653809,0,3,4,1,2,5,E+,1,3,1,0,1000,250.0,3,C01DZ,450,test
464.9178981781006,0,3,4,1,2,5,E+,1,3,1,0,1000,250.0,3,C01DZ,451,test
624.5570182800293,0,3,4,1,2,5,E+,1,0,0,0,1000,250.0,0,C01DZ,452,test
433.00795555114746,0,3,4,1,2,5,E+,1,1,3,0,1000,250.0,1,C01DZ,453,test
752.6161670684814,0,3,4,1,2,5,E+,1,4,2,0,1000,250.0,4,C01DZ,454,test
577.0058631896973,0,3,4,1,2,5,E+,1,0,0,0,1000,250.0,0,C01DZ,455,test
817.0790672302246,0,3,4,1,2,5,E+,1,1,3,0,1000,250.0,1,C01DZ,456,test
352.802038192749,0,3,4,1,2,5,E+,0,0,0,0,1000,250.0,2,C01DZ,457,test
497.0510005950928,0,3,4,1,2,5,E+,1,5,5,0,1000,250.0,5,C01DZ,458,test
496.7529773712158,0,3,4,1,2,5,E+,0,2,4,0,1000,250.0,0,C01DZ,459,test
720.5080986022949,0,3,4,1,2,5,E+,1,0,0,0,1000,250.0,0,C01DZ,460,test
528.8197994232178,0,3,4,1,2,5,E+,1,0,0,0,1000,250.0,0,C01DZ,461,test
369.04191970825195,0,3,4,1,2,5,E+,1,1,3,0,1000,250.0,1,C01DZ,462,test
576.9491195678711,0,3,4,1,2,5,E+,1,4,2,0,1000,250.0,4,C01DZ,463,test
688.6329650878906,0,3,4,1,2,5,E+,1,1,3,0,1000,250.0,1,C01DZ,464,test
577.0280361175537,0,3,4,1,2,5,E+,1,5,5,0,1000,250.0,5,C01DZ,465,test
576.6589641571045,0,3,4,1,2,5,E+,1,2,4,0,1000,250.0,2,C01DZ,466,test
528.7728309631348,0,3,4,1,2,5,E+,1,4,2,0,1000,250.0,4,C01DZ,467,test
545.0611114501953,0,3,4,1,2,5,E+,1,5,5,0,1000,250.0,5,C01DZ,468,test
608.8061332702637,0,3,4,1,2,5,E+,1,0,0,0,1000,250.0,0,C01DZ,469,test
400.88605880737305,0,3,4,1,2,5,E+,1,0,0,0,1000,250.0,0,C01DZ,470,test
512.8400325775146,0,3,4,1,2,5,E+,1,1,3,0,1000,250.0,1,C01DZ,471,test
593.0421352386475,0,3,4,1,2,5,E+,1,0,0,0,1000,250.0,0,C01DZ,472,test
561.0089302062988,0,3,4,1,2,5,E+,1,3,1,0,1000,250.0,3,C01DZ,473,test
561.0361099243164,0,3,4,1,2,5,E+,1,1,3,0,1000,250.0,1,C01DZ,474,test
480.93700408935547,0,3,4,1,2,5,E+,1,0,0,0,1000,250.0,0,C01DZ,475,test
752.7189254760742,0,3,4,1,2,5,E+,1,4,2,0,1000,250.0,4,C01DZ,476,test
545.0649261474609,0,3,4,1,2,5,E+,1,4,2,0,1000,250.0,4,C01DZ,477,test
545.0270175933838,0,3,4,1,2,5,E+,1,5,5,0,1000,250.0,5,C01DZ,478,test
512.908935546875,0,3,4,1,2,5,E+,1,4,2,0,1000,250.0,4,C01DZ,479,test
465.04902839660645,0,3,4,1,2,5,E+,1,4,2,0,1000,250.0,4,C01DZ,480,test
560.9478950500488,0,3,4,1,2,5,E+,1,3,1,0,1000,250.0,3,C01DZ,481,test
528.9549827575684,0,3,4,1,2,5,E+,1,0,0,0,1000,250.0,0,C01DZ,482,test
288.87414932250977,0,3,4,1,2,5,E+,1,1,3,0,1000,250.0,1,C01DZ,483,test
480.881929397583,0,3,4,1,2,5,E+,1,0,0,0,1000,250.0,0,C01DZ,484,test
481.0009002685547,0,3,4,1,2,5,E+,1,5,5,0,1000,250.0,5,C01DZ,485,test
432.8470230102539,0,3,4,1,2,5,E+,1,4,2,0,1000,250.0,4,C01DZ,486,test
448.5130310058594,0,3,4,1,2,5,E+,1,1,3,0,1000,250.0,1,C01DZ,487,test
624.8879432678223,0,3,4,1,2,5,E+,1,2,4,0,1000,250.0,2,C01DZ,488,test
561.0849857330322,0,3,4,1,2,5,E+,1,5,5,0,1000,250.0,5,C01DZ,489,test
592.9791927337646,0,3,4,1,2,5,E+,1,4,2,0,1000,250.0,4,C01DZ,490,test
464.7841453552246,0,3,4,1,2,5,E+,0,1,3,0,1000,250.0,0,C01DZ,491,test
433.12907218933105,0,3,4,1,2,5,E+,1,1,3,0,1000,250.0,1,C01DZ,492,test
544.6419715881348,0,3,4,1,2,5,E+,1,2,4,0,1000,250.0,2,C01DZ,493,test
577.0268440246582,0,3,4,1,2,5,E+,1,4,2,0,1000,250.0,4,C01DZ,494,test
638.6749744415283,0,3,4,1,2,5,E+,1,2,4,0,1000,250.0,2,C01DZ,495,test
656.4850807189941,0,3,4,1,2,5,E+,0,3,1,0,1000,250.0,4,C01DZ,496,test
688.838005065918,0,3,4,1,2,5,E+,1,2,4,0,1000,250.0,2,C01DZ,497,test
544.9419021606445,0,3,4,1,2,5,E+,1,0,0,0,1000,250.0,0,C01DZ,498,test
769.0479755401611,0,3,4,1,2,5,E+,1,1,3,0,1000,250.0,1,C01DZ,499,test
