RT,correct_response,ms-prestimblank,curstim,correct,SRmap_1,SRmap_0,SRmap_3,SRmap_2,SRmap_5,SRmap_4,ms-precue,ntrials,type,response,condition
1519.7429657,0,1000,5,1,3,5,4,2,0,1,0,250.0,train,0,M
1071.98405266,4,1000,3,1,3,5,4,2,0,1,0,250.0,train,4,M
592.175006866,1,1000,4,1,3,5,4,2,0,1,0,250.0,train,1,M
496.974945068,0,1000,5,1,3,5,4,2,0,1,0,250.0,train,0,M
672.473907471,3,1000,1,0,3,5,4,2,0,1,0,250.0,train,4,M
672.247171402,5,1000,0,1,3,5,4,2,0,1,0,250.0,train,5,M
560.370922089,0,1000,5,1,3,5,4,2,0,1,0,250.0,train,0,M
528.31697464,0,1000,5,1,3,5,4,2,0,1,0,250.0,train,0,M
464.226961136,3,1000,1,1,3,5,4,2,0,1,0,250.0,train,3,M
384.552001953,0,1000,5,1,3,5,4,2,0,1,0,250.0,train,0,M
624.413013458,5,1000,0,1,3,5,4,2,0,1,0,250.0,train,5,M
368.345975876,5,1000,0,1,3,5,4,2,0,1,0,250.0,train,5,M
416.378974915,5,1000,0,1,3,5,4,2,0,1,0,250.0,train,5,M
448.268890381,0,1000,5,1,3,5,4,2,0,1,0,250.0,train,0,M
416.332006454,0,1000,5,1,3,5,4,2,0,1,0,250.0,train,0,M
912.2569561,4,1000,3,1,3,5,4,2,0,1,0,250.0,train,4,M
656.349897385,1,1000,4,1,3,5,4,2,0,1,0,250.0,train,1,M
496.36888504,1,1000,4,1,3,5,4,2,0,1,0,250.0,train,1,M
368.566989899,4,1000,3,1,3,5,4,2,0,1,0,250.0,train,4,M
416.098833084,4,1000,3,1,3,5,4,2,0,1,0,250.0,train,4,M
560.401916504,3,1000,1,0,3,5,4,2,0,1,0,250.0,train,2,M
512.422084808,5,1000,0,1,3,5,4,2,0,1,0,250.0,train,5,M
464.543104172,0,1000,5,1,3,5,4,2,0,1,0,250.0,train,0,M
432.495117188,0,1000,5,1,3,5,4,2,0,1,0,250.0,train,0,M
608.476161957,1,1000,4,1,3,5,4,2,0,1,0,250.0,train,1,M
497.025966644,5,1000,0,1,3,5,4,2,0,1,0,250.0,train,5,M
752.421855927,2,1000,2,1,3,5,4,2,0,1,0,250.0,train,2,M
576.460123062,5,1000,0,1,3,5,4,2,0,1,0,250.0,train,5,M
513.287067413,4,1000,3,1,3,5,4,2,0,1,0,250.0,train,4,M
464.416980743,0,1000,5,1,3,5,4,2,0,1,0,250.0,train,0,M
1072.46279716,2,1000,2,0,3,5,4,2,0,1,0,250.0,train,3,M
592.309951782,4,1000,3,1,3,5,4,2,0,1,0,250.0,train,4,M
512.377977371,0,1000,5,1,3,5,4,2,0,1,0,250.0,train,0,M
624.16100502,1,1000,4,1,3,5,4,2,0,1,0,250.0,train,1,M
688.606023788,2,1000,2,1,3,5,4,2,0,1,0,250.0,train,2,M
512.577056885,0,1000,5,1,3,5,4,2,0,1,0,250.0,train,0,M
592.439174652,2,1000,2,1,3,5,4,2,0,1,0,250.0,train,2,M
512.396097183,5,1000,0,1,3,5,4,2,0,1,0,250.0,train,5,M
704.430103302,4,1000,3,1,3,5,4,2,0,1,0,250.0,train,4,M
352.299928665,0,1000,5,1,3,5,4,2,0,1,0,250.0,train,0,M
704.322814941,3,1000,1,1,3,5,4,2,0,1,0,250.0,train,3,M
448.345899582,4,1000,3,1,3,5,4,2,0,1,0,250.0,train,4,M
512.053966522,4,1000,3,1,3,5,4,2,0,1,0,250.0,train,4,M
576.352119446,2,1000,2,0,3,5,4,2,0,1,0,250.0,train,3,M
496.382951736,1,1000,4,1,3,5,4,2,0,1,0,250.0,train,1,M
736.304998398,3,1000,1,1,3,5,4,2,0,1,0,250.0,train,3,M
559.783935547,4,1000,3,1,3,5,4,2,0,1,0,250.0,train,4,M
495.985031128,0,1000,5,1,3,5,4,2,0,1,0,250.0,train,0,M
576.391935349,3,1000,1,1,3,5,4,2,0,1,0,250.0,train,3,M
704.513072968,2,1000,2,1,3,5,4,2,0,1,0,250.0,train,2,M
368.379116058,0,1000,5,1,3,5,4,2,0,1,0,250.0,train,0,M
480.029821396,1,1000,4,1,3,5,4,2,0,1,0,250.0,train,1,M
368.462085724,2,1000,2,1,3,5,4,2,0,1,0,250.0,train,2,M
576.21884346,2,1000,2,1,3,5,4,2,0,1,0,250.0,train,2,M
528.473138809,3,1000,1,1,3,5,4,2,0,1,0,250.0,train,3,M
399.801969528,3,1000,1,1,3,5,4,2,0,1,0,250.0,train,3,M
448.400020599,3,1000,1,1,3,5,4,2,0,1,0,250.0,train,3,M
512.34292984,2,1000,2,0,3,5,4,2,0,1,0,250.0,train,1,M
704.42700386,3,1000,1,1,3,5,4,2,0,1,0,250.0,train,3,M
608.503103256,5,1000,0,1,3,5,4,2,0,1,0,250.0,train,5,M
480.148792267,5,1000,0,1,3,5,4,2,0,1,0,250.0,train,5,M
496.475934982,4,1000,3,1,3,5,4,2,0,1,0,250.0,train,4,M
512.462854385,5,1000,0,1,3,5,4,2,0,1,0,250.0,train,5,M
640.447854996,1,1000,4,0,3,5,4,2,0,1,0,250.0,train,2,M
592.38910675,1,1000,4,1,3,5,4,2,0,1,0,250.0,train,1,M
688.34900856,3,1000,1,1,3,5,4,2,0,1,0,250.0,train,3,M
656.346082687,2,1000,2,1,3,5,4,2,0,1,0,250.0,train,2,M
352.355003357,0,1000,5,1,3,5,4,2,0,1,0,250.0,train,0,M
448.251962662,0,1000,5,1,3,5,4,2,0,1,0,250.0,train,0,M
512.362957001,2,1000,2,0,3,5,4,2,0,1,0,250.0,train,1,M
432.244777679,2,1000,2,1,3,5,4,2,0,1,0,250.0,train,2,M
592.256784439,3,1000,1,1,3,5,4,2,0,1,0,250.0,train,3,M
528.399944305,1,1000,4,1,3,5,4,2,0,1,0,250.0,train,1,M
528.481960297,5,1000,0,1,3,5,4,2,0,1,0,250.0,train,5,M
512.125015259,4,1000,3,1,3,5,4,2,0,1,0,250.0,train,4,M
496.455907822,4,1000,3,1,3,5,4,2,0,1,0,250.0,train,4,M
688.477039337,1,1000,4,1,3,5,4,2,0,1,0,250.0,train,1,M
496.273040771,1,1000,4,1,3,5,4,2,0,1,0,250.0,train,1,M
624.101161957,4,1000,3,1,3,5,4,2,0,1,0,250.0,train,4,M
576.845884323,3,1000,1,1,3,5,4,2,0,1,0,250.0,train,3,M
736.428976059,2,1000,2,1,3,5,4,2,0,1,0,250.0,train,2,M
528.941869736,4,1000,3,1,3,5,4,2,0,1,0,250.0,train,4,M
559.756994247,1,1000,4,1,3,5,4,2,0,1,0,250.0,train,1,M
496.390104294,4,1000,3,1,3,5,4,2,0,1,0,250.0,train,4,M
480.578899384,0,1000,5,1,3,5,4,2,0,1,0,250.0,train,0,M
704.488039017,2,1000,2,1,3,5,4,2,0,1,0,250.0,train,2,M
464.58697319,3,1000,1,0,3,5,4,2,0,1,0,250.0,train,4,M
496.403932571,5,1000,0,1,3,5,4,2,0,1,0,250.0,train,5,M
545.264005661,1,1000,4,1,3,5,4,2,0,1,0,250.0,train,1,M
560.342073441,3,1000,1,0,3,5,4,2,0,1,0,250.0,train,4,M
720.300912857,3,1000,1,1,3,5,4,2,0,1,0,250.0,train,3,M
960.307836533,1,1000,4,1,3,5,4,2,0,1,0,250.0,train,1,M
688.520908356,2,1000,2,0,3,5,4,2,0,1,0,250.0,train,3,M
624.432086945,3,1000,1,1,3,5,4,2,0,1,0,250.0,train,3,M
464.467048645,5,1000,0,1,3,5,4,2,0,1,0,250.0,train,5,M
752.397060394,2,1000,2,1,3,5,4,2,0,1,0,250.0,train,2,M
640.501976013,0,1000,5,1,3,5,4,2,0,1,0,250.0,train,0,M
528.356075287,2,1000,2,0,3,5,4,2,0,1,0,250.0,train,3,M
720.388889313,3,1000,1,1,3,5,4,2,0,1,0,250.0,train,3,M
432.52491951,3,1000,1,1,3,5,4,2,0,1,0,250.0,train,3,M
400.285005569,3,1000,1,1,3,5,4,2,0,1,0,250.0,train,3,M
416.496038437,4,1000,3,1,3,5,4,2,0,1,0,250.0,train,4,M
575.570106506,1,1000,4,1,3,5,4,2,0,1,0,250.0,train,1,M
480.510950089,2,1000,2,1,3,5,4,2,0,1,0,250.0,train,2,M
448.413133621,0,1000,5,1,3,5,4,2,0,1,0,250.0,train,0,M
351.283073425,0,1000,5,1,3,5,4,2,0,1,0,250.0,train,0,M
495.718002319,5,1000,0,1,3,5,4,2,0,1,0,250.0,train,5,M
528.512954712,1,1000,4,1,3,5,4,2,0,1,0,250.0,train,1,M
528.429985046,3,1000,1,1,3,5,4,2,0,1,0,250.0,train,3,M
496.457099915,3,1000,1,1,3,5,4,2,0,1,0,250.0,train,3,M
528.320074081,4,1000,3,1,3,5,4,2,0,1,0,250.0,train,4,M
448.52399826,1,1000,4,1,3,5,4,2,0,1,0,250.0,train,1,M
560.410022736,4,1000,3,1,3,5,4,2,0,1,0,250.0,train,4,M
480.391979218,3,1000,1,1,3,5,4,2,0,1,0,250.0,train,3,M
480.439901352,4,1000,3,1,3,5,4,2,0,1,0,250.0,train,4,M
624.217987061,3,1000,1,1,3,5,4,2,0,1,0,250.0,train,3,M
384.8528862,3,1000,1,1,3,5,4,2,0,1,0,250.0,train,3,M
480.813026428,0,1000,5,1,3,5,4,2,0,1,0,250.0,train,0,M
336.951971054,0,1000,5,1,3,5,4,2,0,1,0,250.0,train,0,M
559.565782547,1,1000,4,1,3,5,4,2,0,1,0,250.0,train,1,M
528.919935226,3,1000,1,1,3,5,4,2,0,1,0,250.0,train,3,M
528.002023697,5,1000,0,1,3,5,4,2,0,1,0,250.0,train,5,M
672.911882401,2,1000,2,1,3,5,4,2,0,1,0,250.0,train,2,M
464.330911636,5,1000,0,1,3,5,4,2,0,1,0,250.0,train,5,M
623.644828796,2,1000,2,1,3,5,4,2,0,1,0,250.0,train,2,M
464.08200264,4,1000,3,1,3,5,4,2,0,1,0,250.0,train,4,M
496.850013733,1,1000,4,1,3,5,4,2,0,1,0,250.0,train,1,M
446.873903275,0,1000,5,1,3,5,4,2,0,1,0,250.0,train,0,M
592.845916748,3,1000,1,1,3,5,4,2,0,1,0,250.0,train,3,M
543.040990829,5,1000,0,1,3,5,4,2,0,1,0,250.0,train,5,M
608.867883682,2,1000,2,1,3,5,4,2,0,1,0,250.0,train,2,M
447.231054306,4,1000,3,0,3,5,4,2,0,1,0,250.0,train,1,M
480.818986893,3,1000,1,1,3,5,4,2,0,1,0,250.0,train,3,M
432.844161987,1,1000,4,1,3,5,4,2,0,1,0,250.0,train,1,M
367.605924606,5,1000,0,0,3,5,4,2,0,1,0,250.0,train,1,M
383.648872375,0,1000,5,1,3,5,4,2,0,1,0,250.0,train,0,M
288.483858109,0,1000,5,1,3,5,4,2,0,1,0,250.0,train,0,M
160.410881042,3,1000,1,0,3,5,4,2,0,1,0,250.0,train,0,M
1344.28596497,0,1000,5,1,3,5,4,2,0,1,0,250.0,train,0,M
512.552022934,2,1000,2,0,3,5,4,2,0,1,0,250.0,train,4,M
448.474884033,5,1000,0,1,3,5,4,2,0,1,0,250.0,train,5,M
464.595794678,3,1000,1,1,3,5,4,2,0,1,0,250.0,train,3,M
560.522079468,2,1000,2,1,3,5,4,2,0,1,0,250.0,train,2,M
432.454109192,0,1000,5,1,3,5,4,2,0,1,0,250.0,train,0,M
415.814876556,0,1000,5,1,3,5,4,2,0,1,0,250.0,train,0,M
384.034872055,0,1000,5,1,3,5,4,2,0,1,0,250.0,train,0,M
464.85710144,5,1000,0,1,3,5,4,2,0,1,0,250.0,train,5,M
432.421922684,5,1000,0,1,3,5,4,2,0,1,0,250.0,train,5,M
512.842178345,1,1000,4,1,3,5,4,2,0,1,0,250.0,train,1,M
767.466068268,3,1000,1,1,3,5,4,2,0,1,0,250.0,train,3,M
463.605880737,3,1000,1,1,3,5,4,2,0,1,0,250.0,train,3,M
2928.26986313,5,1000,0,1,3,5,4,2,0,1,0,250.0,train,5,M
479.900836945,2,1000,2,0,3,5,4,2,0,1,0,250.0,train,3,M
528.059005737,4,1000,3,1,3,5,4,2,0,1,0,250.0,train,4,M
432.491064072,5,1000,0,1,3,5,4,2,0,1,0,250.0,train,5,M
528.487920761,1,1000,4,1,3,5,4,2,0,1,0,250.0,train,1,M
448.453903198,0,1000,5,1,3,5,4,2,0,1,0,250.0,train,0,M
880.252838135,5,1000,0,1,3,5,4,2,0,1,0,250.0,train,5,M
576.431035995,4,1000,3,1,3,5,4,2,0,1,0,250.0,train,4,M
480.288982391,5,1000,0,1,3,5,4,2,0,1,0,250.0,train,5,M
464.35880661,2,1000,2,0,3,5,4,2,0,1,0,250.0,train,1,M
528.245925903,5,1000,0,1,3,5,4,2,0,1,0,250.0,train,5,M
560.358047485,4,1000,3,1,3,5,4,2,0,1,0,250.0,train,4,M
432.231903076,4,1000,3,1,3,5,4,2,0,1,0,250.0,train,4,M
528.527975082,1,1000,4,1,3,5,4,2,0,1,0,250.0,train,1,M
656.307935715,2,1000,2,0,3,5,4,2,0,1,0,250.0,train,3,M
464.215040207,0,1000,5,1,3,5,4,2,0,1,0,250.0,train,0,M
959.622859955,2,1000,2,1,3,5,4,2,0,1,0,250.0,train,2,M
480.170965195,0,1000,5,1,3,5,4,2,0,1,0,250.0,train,0,M
527.969837189,4,1000,3,0,3,5,4,2,0,1,0,250.0,train,5,M
640.200853348,1,1000,4,1,3,5,4,2,0,1,0,250.0,train,1,M
592.181921005,2,1000,2,1,3,5,4,2,0,1,0,250.0,train,2,M
640.22898674,5,1000,0,1,3,5,4,2,0,1,0,250.0,train,5,M
560.234069824,1,1000,4,1,3,5,4,2,0,1,0,250.0,train,1,M
672.089099884,3,1000,1,0,3,5,4,2,0,1,0,250.0,train,2,M
560.849905014,4,1000,3,1,3,5,4,2,0,1,0,250.0,train,4,M
992.038965225,2,1000,2,1,3,5,4,2,0,1,0,250.0,train,2,M
496.356010437,5,1000,0,1,3,5,4,2,0,1,0,250.0,train,5,M
464.183092117,5,1000,0,1,3,5,4,2,0,1,0,250.0,train,5,M
928.200006485,0,1000,5,1,3,5,4,2,0,1,0,250.0,train,0,M
736.232042313,3,1000,1,1,3,5,4,2,0,1,0,250.0,train,3,M
560.244083405,0,1000,5,1,3,5,4,2,0,1,0,250.0,train,0,M
816.11084938,4,1000,3,1,3,5,4,2,0,1,0,250.0,train,4,M
640.90514183,1,1000,4,1,3,5,4,2,0,1,0,250.0,train,1,M
528.565883636,2,1000,2,0,3,5,4,2,0,1,0,250.0,train,1,M
608.277082443,3,1000,1,0,3,5,4,2,0,1,0,250.0,train,4,M
416.301012039,3,1000,1,1,3,5,4,2,0,1,0,250.0,train,3,M
352.149963379,3,1000,1,1,3,5,4,2,0,1,0,250.0,train,3,M
448.505163193,5,1000,0,1,3,5,4,2,0,1,0,250.0,train,5,M
336.543083191,1,1000,4,1,3,5,4,2,0,1,0,250.0,train,1,M
368.893861771,1,1000,4,0,3,5,4,2,0,1,0,250.0,train,3,M
320.926904678,1,1000,4,1,3,5,4,2,0,1,0,250.0,train,1,M
400.200128555,0,1000,5,1,3,5,4,2,0,1,0,250.0,train,0,M
464.43104744,3,1000,1,1,3,5,4,2,0,1,0,250.0,train,3,M
496.413946152,1,1000,4,1,3,5,4,2,0,1,0,250.0,train,1,M
256.448984146,2,1000,2,0,3,5,4,2,0,1,0,250.0,train,1,M
560.323953629,2,1000,2,1,3,5,4,2,0,1,0,250.0,train,2,M
560.364961624,1,1000,4,1,3,5,4,2,0,1,0,250.0,train,1,M
544.437170029,5,1000,0,1,3,5,4,2,0,1,0,250.0,train,5,M
576.39503479,0,1000,5,1,3,5,4,2,0,1,0,250.0,train,0,M
512.307882309,1,1000,4,1,3,5,4,2,0,1,0,250.0,train,1,M
896.394014359,3,1000,1,1,3,5,4,2,0,1,0,250.0,train,3,M
672.485113144,2,1000,2,1,3,5,4,2,0,1,0,250.0,train,2,M
736.160993576,3,1000,1,1,3,5,4,2,0,1,0,250.0,train,3,M
592.420816422,4,1000,3,1,3,5,4,2,0,1,0,250.0,train,4,M
608.554840088,3,1000,1,0,3,5,4,2,0,1,0,250.0,train,2,M
1008.84914398,0,1000,5,1,3,5,4,2,0,1,0,250.0,train,0,M
1152.42695808,3,1000,1,1,3,5,4,2,0,1,0,250.0,train,3,M
512.559890747,5,1000,0,1,3,5,4,2,0,1,0,250.0,train,5,M
592.402935028,0,1000,5,1,3,5,4,2,0,1,0,250.0,train,0,M
544.595956802,1,1000,4,1,3,5,4,2,0,1,0,250.0,train,1,M
560.513973236,3,1000,1,0,3,5,4,2,0,1,0,250.0,train,2,M
799.268960953,3,1000,1,1,3,5,4,2,0,1,0,250.0,train,3,M
432.457923889,3,1000,1,1,3,5,4,2,0,1,0,250.0,train,3,M
368.428945541,3,1000,1,1,3,5,4,2,0,1,0,250.0,train,3,M
512.547016144,5,1000,0,1,3,5,4,2,0,1,0,250.0,train,5,M
432.535886765,3,1000,1,1,3,5,4,2,0,1,0,250.0,train,3,M
672.245979309,1,1000,4,1,3,5,4,2,0,1,0,250.0,train,1,M
480.182886124,1,1000,4,1,3,5,4,2,0,1,0,250.0,train,1,M
352.423906326,1,1000,4,1,3,5,4,2,0,1,0,250.0,train,1,M
528.164863586,5,1000,0,0,3,5,4,2,0,1,0,250.0,train,3,M
384.418964386,5,1000,0,1,3,5,4,2,0,1,0,250.0,train,5,M
80.2991390228,3,1000,1,0,3,5,4,2,0,1,0,250.0,train,5,M
48.3338832855,2,1000,2,0,3,5,4,2,0,1,0,250.0,train,3,M
0.654935836792,5,1000,0,0,3,5,4,2,0,1,0,250.0,train,3,M
16.7751312256,5,1000,0,0,3,5,4,2,0,1,0,250.0,train,3,M
48.8448143005,0,1000,5,0,3,5,4,2,0,1,0,250.0,train,5,M
16.8349742889,5,1000,0,0,3,5,4,2,0,1,0,250.0,train,0,M
64.1689300537,5,1000,0,0,3,5,4,2,0,1,0,250.0,train,0,M
80.3089141846,5,1000,0,0,3,5,4,2,0,1,0,250.0,train,0,M
79.41198349,5,1000,0,0,3,5,4,2,0,1,0,250.0,train,0,M
544.929027557,2,1000,2,0,3,5,4,2,0,1,0,250.0,train,4,M
207.515954971,2,1000,2,0,3,5,4,2,0,1,0,250.0,train,0,M
464.49303627,5,1000,0,1,3,5,4,2,0,1,0,250.0,train,5,M
448.569059372,4,1000,3,1,3,5,4,2,0,1,0,250.0,train,4,M
224.462985992,4,1000,3,0,3,5,4,2,0,1,0,250.0,train,0,M
464.516878128,0,1000,5,1,3,5,4,2,0,1,0,250.0,train,0,M
0.480175018311,4,1000,3,0,3,5,4,2,0,1,0,250.0,train,0,M
448.45199585,3,1000,1,1,3,5,4,2,0,1,0,250.0,train,3,M
432.286024094,1,1000,4,1,3,5,4,2,0,1,0,250.0,train,1,M
416.482925415,4,1000,3,1,3,5,4,2,0,1,0,250.0,train,4,M
496.188163757,5,1000,0,1,3,5,4,2,0,1,0,250.0,train,5,M
511.72208786,0,1000,5,1,3,5,4,2,0,1,0,250.0,train,0,M
831.7258358,3,1000,1,1,3,5,4,2,0,1,0,250.0,train,3,M
495.766878128,0,1000,5,1,3,5,4,2,0,1,0,250.0,train,0,M
591.919898987,1,1000,4,1,3,5,4,2,0,1,0,250.0,train,1,M
703.655958176,4,1000,3,1,3,5,4,2,0,1,0,250.0,train,4,M
447.886943817,0,1000,5,1,3,5,4,2,0,1,0,250.0,train,0,M
543.75910759,4,1000,3,1,3,5,4,2,0,1,0,250.0,train,4,M
543.705940247,3,1000,1,1,3,5,4,2,0,1,0,250.0,train,3,M
3823.99988174,5,1000,0,1,3,5,4,2,0,1,0,250.0,test,5,M
943.180084229,5,1000,0,1,3,5,4,2,0,1,0,250.0,test,5,M
1423.73204231,3,1000,1,1,3,5,4,2,0,1,0,250.0,test,3,M
2079.64897156,4,1000,3,1,3,5,4,2,0,1,0,250.0,test,4,M
1103.96814346,4,1000,3,1,3,5,4,2,0,1,0,250.0,test,4,M
656.30698204,5,1000,0,1,3,5,4,2,0,1,0,250.0,test,5,M
800.243854523,3,1000,1,1,3,5,4,2,0,1,0,250.0,test,3,M
544.39496994,4,1000,3,1,3,5,4,2,0,1,0,250.0,test,4,M
1504.47893143,0,1000,5,1,3,5,4,2,0,1,0,250.0,test,0,M
1056.44011497,5,1000,0,1,3,5,4,2,0,1,0,250.0,test,5,M
400.405883789,4,1000,3,1,3,5,4,2,0,1,0,250.0,test,4,M
512.326002121,3,1000,1,1,3,5,4,2,0,1,0,250.0,test,3,M
832.365989685,1,1000,4,1,3,5,4,2,0,1,0,250.0,test,1,M
976.380825043,4,1000,3,1,3,5,4,2,0,1,0,250.0,test,4,M
832.525968552,5,1000,0,1,3,5,4,2,0,1,0,250.0,test,5,M
608.35313797,4,1000,3,1,3,5,4,2,0,1,0,250.0,test,4,M
688.115119934,0,1000,5,0,3,5,4,2,0,1,0,250.0,test,4,M
688.303232193,2,1000,2,1,3,5,4,2,0,1,0,250.0,test,2,M
576.443910599,3,1000,1,1,3,5,4,2,0,1,0,250.0,test,3,M
816.366910934,3,1000,1,1,3,5,4,2,0,1,0,250.0,test,3,M
336.030960083,4,1000,3,1,3,5,4,2,0,1,0,250.0,test,4,M
576.429843903,0,1000,5,0,3,5,4,2,0,1,0,250.0,test,5,M
528.208017349,4,1000,3,1,3,5,4,2,0,1,0,250.0,test,4,M
752.353906631,0,1000,5,0,3,5,4,2,0,1,0,250.0,test,5,M
816.406011581,0,1000,5,1,3,5,4,2,0,1,0,250.0,test,0,M
399.501085281,0,1000,5,1,3,5,4,2,0,1,0,250.0,test,0,M
624.387979507,2,1000,2,1,3,5,4,2,0,1,0,250.0,test,2,M
352.385044098,3,1000,1,1,3,5,4,2,0,1,0,250.0,test,3,M
704.483032227,1,1000,4,1,3,5,4,2,0,1,0,250.0,test,1,M
608.445882797,2,1000,2,0,3,5,4,2,0,1,0,250.0,test,3,M
640.399932861,0,1000,5,1,3,5,4,2,0,1,0,250.0,test,0,M
656.335830688,1,1000,4,1,3,5,4,2,0,1,0,250.0,test,1,M
1056.42390251,2,1000,2,1,3,5,4,2,0,1,0,250.0,test,2,M
480.127096176,3,1000,1,1,3,5,4,2,0,1,0,250.0,test,3,M
608.35814476,2,1000,2,1,3,5,4,2,0,1,0,250.0,test,2,M
528.367042542,3,1000,1,1,3,5,4,2,0,1,0,250.0,test,3,M
624.481916428,2,1000,2,1,3,5,4,2,0,1,0,250.0,test,2,M
592.442989349,1,1000,4,1,3,5,4,2,0,1,0,250.0,test,1,M
656.790971756,1,1000,4,1,3,5,4,2,0,1,0,250.0,test,1,M
495.9628582,5,1000,0,1,3,5,4,2,0,1,0,250.0,test,5,M
576.664924622,4,1000,3,1,3,5,4,2,0,1,0,250.0,test,4,M
736.078977585,0,1000,5,1,3,5,4,2,0,1,0,250.0,test,0,M
736.756086349,5,1000,0,1,3,5,4,2,0,1,0,250.0,test,5,M
768.0311203,2,1000,2,1,3,5,4,2,0,1,0,250.0,test,2,M
560.830116272,4,1000,3,1,3,5,4,2,0,1,0,250.0,test,4,M
559.908866882,5,1000,0,1,3,5,4,2,0,1,0,250.0,test,5,M
672.822952271,3,1000,1,1,3,5,4,2,0,1,0,250.0,test,3,M
512.825012207,4,1000,3,1,3,5,4,2,0,1,0,250.0,test,4,M
592.77009964,2,1000,2,1,3,5,4,2,0,1,0,250.0,test,2,M
528.908967972,4,1000,3,1,3,5,4,2,0,1,0,250.0,test,4,M
592.741012573,0,1000,5,1,3,5,4,2,0,1,0,250.0,test,0,M
464.704990387,4,1000,3,1,3,5,4,2,0,1,0,250.0,test,4,M
431.654930115,5,1000,0,1,3,5,4,2,0,1,0,250.0,test,5,M
448.852062225,2,1000,2,1,3,5,4,2,0,1,0,250.0,test,2,M
495.851993561,4,1000,3,1,3,5,4,2,0,1,0,250.0,test,4,M
447.762012482,3,1000,1,1,3,5,4,2,0,1,0,250.0,test,3,M
320.350885391,1,1000,4,1,3,5,4,2,0,1,0,250.0,test,1,M
560.419082642,1,1000,4,1,3,5,4,2,0,1,0,250.0,test,1,M
560.391187668,0,1000,5,0,3,5,4,2,0,1,0,250.0,test,4,M
496.298074722,1,1000,4,1,3,5,4,2,0,1,0,250.0,test,1,M
560.373067856,2,1000,2,1,3,5,4,2,0,1,0,250.0,test,2,M
512.409925461,1,1000,4,1,3,5,4,2,0,1,0,250.0,test,1,M
512.287139893,3,1000,1,1,3,5,4,2,0,1,0,250.0,test,3,M
336.344003677,5,1000,0,1,3,5,4,2,0,1,0,250.0,test,5,M
576.170921326,1,1000,4,1,3,5,4,2,0,1,0,250.0,test,1,M
528.439044952,5,1000,0,1,3,5,4,2,0,1,0,250.0,test,5,M
384.400129318,5,1000,0,1,3,5,4,2,0,1,0,250.0,test,5,M
512.331962585,2,1000,2,0,3,5,4,2,0,1,0,250.0,test,3,M
512.330055237,4,1000,3,1,3,5,4,2,0,1,0,250.0,test,4,M
512.474060059,5,1000,0,1,3,5,4,2,0,1,0,250.0,test,5,M
912.239074707,2,1000,2,1,3,5,4,2,0,1,0,250.0,test,2,M
2160.34913063,3,1000,1,1,3,5,4,2,0,1,0,250.0,test,3,M
464.430093765,5,1000,0,1,3,5,4,2,0,1,0,250.0,test,5,M
623.81196022,3,1000,1,1,3,5,4,2,0,1,0,250.0,test,3,M
639.934062958,2,1000,2,0,3,5,4,2,0,1,0,250.0,test,3,M
7375.66709518,2,1000,2,1,3,5,4,2,0,1,0,250.0,test,2,M
463.431119919,4,1000,3,1,3,5,4,2,0,1,0,250.0,test,4,M
623.713970184,2,1000,2,0,3,5,4,2,0,1,0,250.0,test,3,M
737.013101578,1,1000,4,1,3,5,4,2,0,1,0,250.0,test,1,M
512.085199356,3,1000,1,1,3,5,4,2,0,1,0,250.0,test,3,M
512.727022171,5,1000,0,1,3,5,4,2,0,1,0,250.0,test,5,M
543.76411438,2,1000,2,0,3,5,4,2,0,1,0,250.0,test,3,M
495.802164078,5,1000,0,1,3,5,4,2,0,1,0,250.0,test,5,M
639.885902405,2,1000,2,0,3,5,4,2,0,1,0,250.0,test,3,M
592.815876007,4,1000,3,1,3,5,4,2,0,1,0,250.0,test,4,M
528.675794601,5,1000,0,1,3,5,4,2,0,1,0,250.0,test,5,M
368.268013,1,1000,4,1,3,5,4,2,0,1,0,250.0,test,1,M
576.364040375,2,1000,2,0,3,5,4,2,0,1,0,250.0,test,3,M
512.226819992,4,1000,3,1,3,5,4,2,0,1,0,250.0,test,4,M
672.482013702,0,1000,5,0,3,5,4,2,0,1,0,250.0,test,4,M
384.340047836,3,1000,1,1,3,5,4,2,0,1,0,250.0,test,3,M
528.393030167,0,1000,5,0,3,5,4,2,0,1,0,250.0,test,4,M
543.977022171,1,1000,4,1,3,5,4,2,0,1,0,250.0,test,1,M
544.361114502,2,1000,2,0,3,5,4,2,0,1,0,250.0,test,3,M
528.387784958,4,1000,3,1,3,5,4,2,0,1,0,250.0,test,4,M
624.439954758,1,1000,4,1,3,5,4,2,0,1,0,250.0,test,1,M
576.375007629,5,1000,0,1,3,5,4,2,0,1,0,250.0,test,5,M
480.114936829,5,1000,0,1,3,5,4,2,0,1,0,250.0,test,5,M
560.349941254,2,1000,2,0,3,5,4,2,0,1,0,250.0,test,3,M
1152.22406387,1,1000,4,1,3,5,4,2,0,1,0,250.0,test,1,M
896.290063858,1,1000,4,0,3,5,4,2,0,1,0,250.0,test,0,M
1136.27386093,3,1000,1,1,3,5,4,2,0,1,0,250.0,test,3,M
896.548986435,2,1000,2,1,3,5,4,2,0,1,0,250.0,test,2,M
576.35307312,1,1000,4,1,3,5,4,2,0,1,0,250.0,test,1,M
592.36907959,1,1000,4,1,3,5,4,2,0,1,0,250.0,test,1,M
544.510126114,4,1000,3,0,3,5,4,2,0,1,0,250.0,test,5,M
768.266201019,1,1000,4,1,3,5,4,2,0,1,0,250.0,test,1,M
960.37197113,2,1000,2,1,3,5,4,2,0,1,0,250.0,test,2,M
432.358026505,3,1000,1,1,3,5,4,2,0,1,0,250.0,test,3,M
288.373947144,1,1000,4,1,3,5,4,2,0,1,0,250.0,test,1,M
528.114795685,5,1000,0,1,3,5,4,2,0,1,0,250.0,test,5,M
480.464935303,4,1000,3,1,3,5,4,2,0,1,0,250.0,test,4,M
704.046964645,2,1000,2,0,3,5,4,2,0,1,0,250.0,test,3,M
576.865911484,5,1000,0,1,3,5,4,2,0,1,0,250.0,test,5,M
608.490943909,1,1000,4,1,3,5,4,2,0,1,0,250.0,test,1,M
768.3198452,3,1000,1,1,3,5,4,2,0,1,0,250.0,test,3,M
480.433940887,2,1000,2,1,3,5,4,2,0,1,0,250.0,test,2,M
448.305845261,4,1000,3,1,3,5,4,2,0,1,0,250.0,test,4,M
624.531984329,2,1000,2,0,3,5,4,2,0,1,0,250.0,test,3,M
560.271978378,4,1000,3,1,3,5,4,2,0,1,0,250.0,test,4,M
1392.31300354,0,1000,5,1,3,5,4,2,0,1,0,250.0,test,0,M
656.376838684,4,1000,3,1,3,5,4,2,0,1,0,250.0,test,4,M
1056.30707741,3,1000,1,1,3,5,4,2,0,1,0,250.0,test,3,M
720.276832581,4,1000,3,1,3,5,4,2,0,1,0,250.0,test,4,M
592.377901077,5,1000,0,1,3,5,4,2,0,1,0,250.0,test,5,M
496.408939362,5,1000,0,1,3,5,4,2,0,1,0,250.0,test,5,M
848.473072052,2,1000,2,1,3,5,4,2,0,1,0,250.0,test,2,M
976.255893707,2,1000,2,1,3,5,4,2,0,1,0,250.0,test,2,M
576.131820679,1,1000,4,1,3,5,4,2,0,1,0,250.0,test,1,M
592.501163483,2,1000,2,0,3,5,4,2,0,1,0,250.0,test,3,M
512.320041656,1,1000,4,1,3,5,4,2,0,1,0,250.0,test,1,M
512.427091599,4,1000,3,1,3,5,4,2,0,1,0,250.0,test,4,M
464.459896088,5,1000,0,1,3,5,4,2,0,1,0,250.0,test,5,M
688.491106033,3,1000,1,1,3,5,4,2,0,1,0,250.0,test,3,M
464.818954468,5,1000,0,1,3,5,4,2,0,1,0,250.0,test,5,M
464.808940887,5,1000,0,1,3,5,4,2,0,1,0,250.0,test,5,M
560.069084167,1,1000,4,1,3,5,4,2,0,1,0,250.0,test,1,M
512.789011002,4,1000,3,1,3,5,4,2,0,1,0,250.0,test,4,M
816.696166992,2,1000,2,1,3,5,4,2,0,1,0,250.0,test,2,M
544.008016586,5,1000,0,1,3,5,4,2,0,1,0,250.0,test,5,M
559.989929199,1,1000,4,1,3,5,4,2,0,1,0,250.0,test,1,M
832.061052322,3,1000,1,1,3,5,4,2,0,1,0,250.0,test,3,M
719.901800156,2,1000,2,1,3,5,4,2,0,1,0,250.0,test,2,M
559.823036194,4,1000,3,1,3,5,4,2,0,1,0,250.0,test,4,M
751.724004745,0,1000,5,1,3,5,4,2,0,1,0,250.0,test,0,M
527.528047562,1,1000,4,1,3,5,4,2,0,1,0,250.0,test,1,M
960.897922516,3,1000,1,1,3,5,4,2,0,1,0,250.0,test,3,M
464.215993881,3,1000,1,1,3,5,4,2,0,1,0,250.0,test,3,M
608.308076859,2,1000,2,1,3,5,4,2,0,1,0,250.0,test,2,M
784.363985062,3,1000,1,1,3,5,4,2,0,1,0,250.0,test,3,M
656.258106232,2,1000,2,1,3,5,4,2,0,1,0,250.0,test,2,M
624.068975449,5,1000,0,1,3,5,4,2,0,1,0,250.0,test,5,M
816.39289856,2,1000,2,1,3,5,4,2,0,1,0,250.0,test,2,M
672.321081161,0,1000,5,1,3,5,4,2,0,1,0,250.0,test,0,M
2064.29195404,5,1000,0,0,3,5,4,2,0,1,0,250.0,test,0,M
991.984128952,2,1000,2,1,3,5,4,2,0,1,0,250.0,test,2,M
560.347080231,2,1000,2,0,3,5,4,2,0,1,0,250.0,test,3,M
592.308998108,2,1000,2,0,3,5,4,2,0,1,0,250.0,test,3,M
640.559911728,1,1000,4,1,3,5,4,2,0,1,0,250.0,test,1,M
32.2079658508,4,1000,3,1,3,5,4,2,0,1,0,250.0,test,4,M
688.389062881,3,1000,1,1,3,5,4,2,0,1,0,250.0,test,3,M
784.381866455,3,1000,1,1,3,5,4,2,0,1,0,250.0,test,3,M
416.8009758,4,1000,3,1,3,5,4,2,0,1,0,250.0,test,4,M
496.730804443,4,1000,3,1,3,5,4,2,0,1,0,250.0,test,4,M
864.305019379,2,1000,2,1,3,5,4,2,0,1,0,250.0,test,2,M
848.281860352,2,1000,2,1,3,5,4,2,0,1,0,250.0,test,2,M
688.294887543,2,1000,2,1,3,5,4,2,0,1,0,250.0,test,2,M
544.300079346,2,1000,2,1,3,5,4,2,0,1,0,250.0,test,2,M
704.200029373,2,1000,2,1,3,5,4,2,0,1,0,250.0,test,2,M
720.411062241,1,1000,4,1,3,5,4,2,0,1,0,250.0,test,1,M
720.319986343,2,1000,2,1,3,5,4,2,0,1,0,250.0,test,2,M
1008.34393501,5,1000,0,1,3,5,4,2,0,1,0,250.0,test,5,M
624.357938766,2,1000,2,1,3,5,4,2,0,1,0,250.0,test,2,M
640.336036682,1,1000,4,1,3,5,4,2,0,1,0,250.0,test,1,M
640.039920807,4,1000,3,1,3,5,4,2,0,1,0,250.0,test,4,M
832.360982895,3,1000,1,1,3,5,4,2,0,1,0,250.0,test,3,M
752.305030823,5,1000,0,1,3,5,4,2,0,1,0,250.0,test,5,M
527.961969376,4,1000,3,1,3,5,4,2,0,1,0,250.0,test,4,M
736.886978149,3,1000,1,1,3,5,4,2,0,1,0,250.0,test,3,M
512.403011322,5,1000,0,1,3,5,4,2,0,1,0,250.0,test,5,M
800.37689209,2,1000,2,1,3,5,4,2,0,1,0,250.0,test,2,M
816.424846649,0,1000,5,1,3,5,4,2,0,1,0,250.0,test,0,M
672.483921051,1,1000,4,1,3,5,4,2,0,1,0,250.0,test,1,M
768.266916275,4,1000,3,1,3,5,4,2,0,1,0,250.0,test,4,M
560.247898102,4,1000,3,1,3,5,4,2,0,1,0,250.0,test,4,M
624.707937241,1,1000,4,1,3,5,4,2,0,1,0,250.0,test,1,M
656.24499321,1,1000,4,1,3,5,4,2,0,1,0,250.0,test,1,M
1024.43099022,3,1000,1,1,3,5,4,2,0,1,0,250.0,test,3,M
896.45409584,2,1000,2,1,3,5,4,2,0,1,0,250.0,test,2,M
896.36015892,5,1000,0,1,3,5,4,2,0,1,0,250.0,test,5,M
608.45208168,0,1000,5,1,3,5,4,2,0,1,0,250.0,test,0,M
688.251018524,3,1000,1,1,3,5,4,2,0,1,0,250.0,test,3,M
800.284862518,4,1000,3,1,3,5,4,2,0,1,0,250.0,test,4,M
608.355045319,1,1000,4,1,3,5,4,2,0,1,0,250.0,test,1,M
800.886869431,5,1000,0,1,3,5,4,2,0,1,0,250.0,test,5,M
576.368093491,4,1000,3,1,3,5,4,2,0,1,0,250.0,test,4,M
800.11677742,3,1000,1,1,3,5,4,2,0,1,0,250.0,test,3,M
1280.29799461,5,1000,0,1,3,5,4,2,0,1,0,250.0,test,5,M
880.44500351,4,1000,3,1,3,5,4,2,0,1,0,250.0,test,4,M
848.44493866,0,1000,5,1,3,5,4,2,0,1,0,250.0,test,0,M
912.422895432,3,1000,1,1,3,5,4,2,0,1,0,250.0,test,3,M
752.377033234,2,1000,2,1,3,5,4,2,0,1,0,250.0,test,2,M
800.388097763,4,1000,3,1,3,5,4,2,0,1,0,250.0,test,4,M
640.168190002,4,1000,3,1,3,5,4,2,0,1,0,250.0,test,4,M
624.377012253,1,1000,4,1,3,5,4,2,0,1,0,250.0,test,1,M
960.478782654,5,1000,0,1,3,5,4,2,0,1,0,250.0,test,5,M
624.339818954,0,1000,5,1,3,5,4,2,0,1,0,250.0,test,0,M
896.327018738,2,1000,2,1,3,5,4,2,0,1,0,250.0,test,2,M
673.053979874,3,1000,1,1,3,5,4,2,0,1,0,250.0,test,3,M
768.325805664,5,1000,0,1,3,5,4,2,0,1,0,250.0,test,5,M
880.219936371,2,1000,2,1,3,5,4,2,0,1,0,250.0,test,2,M
656.25,2,1000,2,1,3,5,4,2,0,1,0,250.0,test,2,M
864.513874054,5,1000,0,1,3,5,4,2,0,1,0,250.0,test,5,M
576.246023178,4,1000,3,1,3,5,4,2,0,1,0,250.0,test,4,M
672.204971313,3,1000,1,1,3,5,4,2,0,1,0,250.0,test,3,M
800.441026688,2,1000,2,1,3,5,4,2,0,1,0,250.0,test,2,M
672.28603363,3,1000,1,1,3,5,4,2,0,1,0,250.0,test,3,M
656.331062317,1,1000,4,1,3,5,4,2,0,1,0,250.0,test,1,M
784.479856491,0,1000,5,1,3,5,4,2,0,1,0,250.0,test,0,M
704.365968704,0,1000,5,1,3,5,4,2,0,1,0,250.0,test,0,M
848.304986954,5,1000,0,1,3,5,4,2,0,1,0,250.0,test,5,M
608.235120773,4,1000,3,1,3,5,4,2,0,1,0,250.0,test,4,M
768.347978592,3,1000,1,1,3,5,4,2,0,1,0,250.0,test,3,M
752.258062363,2,1000,2,1,3,5,4,2,0,1,0,250.0,test,2,M
688.473939896,2,1000,2,1,3,5,4,2,0,1,0,250.0,test,2,M
688.299894333,4,1000,3,1,3,5,4,2,0,1,0,250.0,test,4,M
640.362024307,3,1000,1,1,3,5,4,2,0,1,0,250.0,test,3,M
623.958110809,2,1000,2,1,3,5,4,2,0,1,0,250.0,test,2,M
704.44393158,2,1000,2,1,3,5,4,2,0,1,0,250.0,test,2,M
657.063961029,2,1000,2,1,3,5,4,2,0,1,0,250.0,test,2,M
1232.34009743,5,1000,0,1,3,5,4,2,0,1,0,250.0,test,5,M
704.386949539,3,1000,1,1,3,5,4,2,0,1,0,250.0,test,3,M
640.304803848,4,1000,3,1,3,5,4,2,0,1,0,250.0,test,4,M
848.192930222,3,1000,1,1,3,5,4,2,0,1,0,250.0,test,3,M
608.428001404,4,1000,3,1,3,5,4,2,0,1,0,250.0,test,4,M
448.331832886,3,1000,1,1,3,5,4,2,0,1,0,250.0,test,3,M
560.483932495,4,1000,3,1,3,5,4,2,0,1,0,250.0,test,4,M
768.085002899,0,1000,5,0,3,5,4,2,0,1,0,250.0,test,5,M
847.774028778,2,1000,2,1,3,5,4,2,0,1,0,250.0,test,2,M
735.93711853,2,1000,2,1,3,5,4,2,0,1,0,250.0,test,2,M
640.042066574,3,1000,1,1,3,5,4,2,0,1,0,250.0,test,3,M
640.561103821,4,1000,3,1,3,5,4,2,0,1,0,250.0,test,4,M
671.895027161,4,1000,3,1,3,5,4,2,0,1,0,250.0,test,4,M
784.14106369,2,1000,2,1,3,5,4,2,0,1,0,250.0,test,2,M
911.938905716,1,1000,4,1,3,5,4,2,0,1,0,250.0,test,1,M
912.202119827,0,1000,5,1,3,5,4,2,0,1,0,250.0,test,0,M
752.493858337,3,1000,1,1,3,5,4,2,0,1,0,250.0,test,3,M
896.314144135,0,1000,5,1,3,5,4,2,0,1,0,250.0,test,0,M
848.170042038,2,1000,2,1,3,5,4,2,0,1,0,250.0,test,2,M
640.383005142,2,1000,2,1,3,5,4,2,0,1,0,250.0,test,2,M
