RT,correct_response,ms-prestimblank,curstim,correct,SRmap_1,SRmap_0,SRmap_3,SRmap_2,SRmap_5,SRmap_4,ms-precue,ntrials,type,response,condition
1663.7198925,0,1000,0,1,2,0,4,5,3,1,0,250.0,train,0,M
719.722032547,4,1000,3,0,2,0,4,5,3,1,0,250.0,train,5,M
463.006973267,4,1000,3,0,2,0,4,5,3,1,0,250.0,train,5,M
766.883850098,2,1000,1,1,2,0,4,5,3,1,0,250.0,train,2,M
560.344934464,0,1000,0,1,2,0,4,5,3,1,0,250.0,train,0,M
576.294898987,5,1000,2,1,2,0,4,5,3,1,0,250.0,train,5,M
544.29101944,3,1000,5,0,2,0,4,5,3,1,0,250.0,train,2,M
560.402154922,1,1000,4,1,2,0,4,5,3,1,0,250.0,train,1,M
512.319087982,4,1000,3,1,2,0,4,5,3,1,0,250.0,train,4,M
464.34378624,1,1000,4,1,2,0,4,5,3,1,0,250.0,train,1,M
448.326826096,0,1000,0,1,2,0,4,5,3,1,0,250.0,train,0,M
560.119152069,4,1000,3,0,2,0,4,5,3,1,0,250.0,train,5,M
400.155067444,4,1000,3,1,2,0,4,5,3,1,0,250.0,train,4,M
512.490987778,5,1000,2,1,2,0,4,5,3,1,0,250.0,train,5,M
384.378910065,4,1000,3,1,2,0,4,5,3,1,0,250.0,train,4,M
432.568073273,5,1000,2,1,2,0,4,5,3,1,0,250.0,train,5,M
368.556022644,4,1000,3,1,2,0,4,5,3,1,0,250.0,train,4,M
448.514938354,0,1000,0,1,2,0,4,5,3,1,0,250.0,train,0,M
480.520009995,4,1000,3,1,2,0,4,5,3,1,0,250.0,train,4,M
384.28401947,5,1000,2,1,2,0,4,5,3,1,0,250.0,train,5,M
352.49209404,3,1000,5,1,2,0,4,5,3,1,0,250.0,train,3,M
512.099027634,3,1000,5,1,2,0,4,5,3,1,0,250.0,train,3,M
463.760137558,1,1000,4,1,2,0,4,5,3,1,0,250.0,train,1,M
592.299938202,3,1000,5,1,2,0,4,5,3,1,0,250.0,train,3,M
624.279022217,2,1000,1,0,2,0,4,5,3,1,0,250.0,train,3,M
576.283931732,4,1000,3,1,2,0,4,5,3,1,0,250.0,train,4,M
544.305801392,3,1000,5,1,2,0,4,5,3,1,0,250.0,train,3,M
496.248960495,4,1000,3,1,2,0,4,5,3,1,0,250.0,train,4,M
480.302095413,1,1000,4,1,2,0,4,5,3,1,0,250.0,train,1,M
528.402090073,3,1000,5,0,2,0,4,5,3,1,0,250.0,train,4,M
511.961936951,4,1000,3,1,2,0,4,5,3,1,0,250.0,train,4,M
528.09882164,1,1000,4,1,2,0,4,5,3,1,0,250.0,train,1,M
640.475988388,2,1000,1,1,2,0,4,5,3,1,0,250.0,train,2,M
704.41699028,3,1000,5,1,2,0,4,5,3,1,0,250.0,train,3,M
528.491020203,1,1000,4,1,2,0,4,5,3,1,0,250.0,train,1,M
368.490934372,2,1000,1,1,2,0,4,5,3,1,0,250.0,train,2,M
480.377912521,4,1000,3,0,2,0,4,5,3,1,0,250.0,train,3,M
575.694084167,3,1000,5,1,2,0,4,5,3,1,0,250.0,train,3,M
384.207010269,4,1000,3,1,2,0,4,5,3,1,0,250.0,train,4,M
527.412891388,2,1000,1,1,2,0,4,5,3,1,0,250.0,train,2,M
511.726140976,4,1000,3,1,2,0,4,5,3,1,0,250.0,train,4,M
528.254032135,1,1000,4,1,2,0,4,5,3,1,0,250.0,train,1,M
495.522975922,1,1000,4,1,2,0,4,5,3,1,0,250.0,train,1,M
463.574886322,1,1000,4,1,2,0,4,5,3,1,0,250.0,train,1,M
496.2849617,5,1000,2,1,2,0,4,5,3,1,0,250.0,train,5,M
543.688058853,2,1000,1,1,2,0,4,5,3,1,0,250.0,train,2,M
463.604211807,0,1000,0,1,2,0,4,5,3,1,0,250.0,train,0,M
496.232032776,2,1000,1,1,2,0,4,5,3,1,0,250.0,train,2,M
447.481870651,2,1000,1,1,2,0,4,5,3,1,0,250.0,train,2,M
559.756994247,5,1000,2,1,2,0,4,5,3,1,0,250.0,train,5,M
479.665994644,3,1000,5,0,2,0,4,5,3,1,0,250.0,train,2,M
511.55591011,2,1000,1,1,2,0,4,5,3,1,0,250.0,train,2,M
511.778831482,5,1000,2,1,2,0,4,5,3,1,0,250.0,train,5,M
495.01991272,0,1000,0,1,2,0,4,5,3,1,0,250.0,train,0,M
623.45790863,0,1000,0,1,2,0,4,5,3,1,0,250.0,train,0,M
720.180988312,3,1000,5,1,2,0,4,5,3,1,0,250.0,train,3,M
495.503902435,5,1000,2,1,2,0,4,5,3,1,0,250.0,train,5,M
592.200040817,1,1000,4,1,2,0,4,5,3,1,0,250.0,train,1,M
671.528816223,3,1000,5,0,2,0,4,5,3,1,0,250.0,train,4,M
528.036832809,3,1000,5,1,2,0,4,5,3,1,0,250.0,train,3,M
592.468976974,1,1000,4,1,2,0,4,5,3,1,0,250.0,train,1,M
528.397083282,4,1000,3,1,2,0,4,5,3,1,0,250.0,train,4,M
480.317115784,4,1000,3,1,2,0,4,5,3,1,0,250.0,train,4,M
479.920148849,5,1000,2,1,2,0,4,5,3,1,0,250.0,train,5,M
432.489156723,0,1000,0,1,2,0,4,5,3,1,0,250.0,train,0,M
544.267177582,2,1000,1,1,2,0,4,5,3,1,0,250.0,train,2,M
544.262170792,5,1000,2,1,2,0,4,5,3,1,0,250.0,train,5,M
480.318069458,5,1000,2,1,2,0,4,5,3,1,0,250.0,train,5,M
592.313051224,2,1000,1,1,2,0,4,5,3,1,0,250.0,train,2,M
544.375896454,4,1000,3,0,2,0,4,5,3,1,0,250.0,train,5,M
608.128070831,1,1000,4,1,2,0,4,5,3,1,0,250.0,train,1,M
672.475099564,5,1000,2,1,2,0,4,5,3,1,0,250.0,train,5,M
576.303958893,2,1000,1,1,2,0,4,5,3,1,0,250.0,train,2,M
496.152162552,5,1000,2,1,2,0,4,5,3,1,0,250.0,train,5,M
576.444149017,4,1000,3,1,2,0,4,5,3,1,0,250.0,train,4,M
592.542886734,1,1000,4,1,2,0,4,5,3,1,0,250.0,train,1,M
512.260198593,0,1000,0,1,2,0,4,5,3,1,0,250.0,train,0,M
480.36813736,3,1000,5,0,2,0,4,5,3,1,0,250.0,train,2,M
528.393983841,0,1000,0,1,2,0,4,5,3,1,0,250.0,train,0,M
432.338953018,5,1000,2,1,2,0,4,5,3,1,0,250.0,train,5,M
576.172828674,0,1000,0,1,2,0,4,5,3,1,0,250.0,train,0,M
528.439044952,5,1000,2,1,2,0,4,5,3,1,0,250.0,train,5,M
657.21988678,2,1000,1,1,2,0,4,5,3,1,0,250.0,train,2,M
529.067993164,5,1000,2,1,2,0,4,5,3,1,0,250.0,train,5,M
992.630004883,3,1000,5,1,2,0,4,5,3,1,0,250.0,train,3,M
672.375202179,3,1000,5,1,2,0,4,5,3,1,0,250.0,train,3,M
576.34305954,4,1000,3,1,2,0,4,5,3,1,0,250.0,train,4,M
464.314937592,5,1000,2,1,2,0,4,5,3,1,0,250.0,train,5,M
544.4688797,0,1000,0,1,2,0,4,5,3,1,0,250.0,train,0,M
592.324972153,4,1000,3,1,2,0,4,5,3,1,0,250.0,train,4,M
464.421987534,0,1000,0,1,2,0,4,5,3,1,0,250.0,train,0,M
432.415962219,0,1000,0,1,2,0,4,5,3,1,0,250.0,train,0,M
576.472997665,2,1000,1,1,2,0,4,5,3,1,0,250.0,train,2,M
464.306116104,5,1000,2,1,2,0,4,5,3,1,0,250.0,train,5,M
464.082956314,5,1000,2,1,2,0,4,5,3,1,0,250.0,train,5,M
480.345010757,0,1000,0,1,2,0,4,5,3,1,0,250.0,train,0,M
576.351165771,3,1000,5,1,2,0,4,5,3,1,0,250.0,train,3,M
512.465000153,5,1000,2,1,2,0,4,5,3,1,0,250.0,train,5,M
784.359931946,2,1000,1,1,2,0,4,5,3,1,0,250.0,train,2,M
592.350006104,1,1000,4,0,2,0,4,5,3,1,0,250.0,train,0,M
608.387947083,0,1000,0,1,2,0,4,5,3,1,0,250.0,train,0,M
464.305877686,1,1000,4,1,2,0,4,5,3,1,0,250.0,train,1,M
496.474981308,2,1000,1,1,2,0,4,5,3,1,0,250.0,train,2,M
528.404951096,3,1000,5,0,2,0,4,5,3,1,0,250.0,train,2,M
864.470005035,1,1000,4,1,2,0,4,5,3,1,0,250.0,train,1,M
544.459104538,1,1000,4,1,2,0,4,5,3,1,0,250.0,train,1,M
544.435024261,5,1000,2,1,2,0,4,5,3,1,0,250.0,train,5,M
784.447908401,2,1000,1,1,2,0,4,5,3,1,0,250.0,train,2,M
608.549118042,1,1000,4,1,2,0,4,5,3,1,0,250.0,train,1,M
496.499061584,1,1000,4,1,2,0,4,5,3,1,0,250.0,train,1,M
512.517929077,5,1000,2,1,2,0,4,5,3,1,0,250.0,train,5,M
640.043973923,4,1000,3,1,2,0,4,5,3,1,0,250.0,train,4,M
448.359012604,0,1000,0,1,2,0,4,5,3,1,0,250.0,train,0,M
368.444919586,1,1000,4,1,2,0,4,5,3,1,0,250.0,train,1,M
448.45700264,5,1000,2,1,2,0,4,5,3,1,0,250.0,train,5,M
496.424913406,4,1000,3,0,2,0,4,5,3,1,0,250.0,train,2,M
672.309875488,0,1000,0,1,2,0,4,5,3,1,0,250.0,train,0,M
528.383016586,5,1000,2,1,2,0,4,5,3,1,0,250.0,train,5,M
400.447845459,4,1000,3,1,2,0,4,5,3,1,0,250.0,train,4,M
784.274101257,4,1000,3,1,2,0,4,5,3,1,0,250.0,train,4,M
528.358221054,5,1000,2,1,2,0,4,5,3,1,0,250.0,train,5,M
512.387990952,0,1000,0,1,2,0,4,5,3,1,0,250.0,train,0,M
544.410943985,0,1000,0,1,2,0,4,5,3,1,0,250.0,train,0,M
671.877861023,3,1000,5,1,2,0,4,5,3,1,0,250.0,train,3,M
592.508077621,4,1000,3,1,2,0,4,5,3,1,0,250.0,train,4,M
608.38508606,2,1000,1,1,2,0,4,5,3,1,0,250.0,train,2,M
544.349908829,2,1000,1,1,2,0,4,5,3,1,0,250.0,train,2,M
640.439987183,4,1000,3,1,2,0,4,5,3,1,0,250.0,train,4,M
512.346029282,4,1000,3,1,2,0,4,5,3,1,0,250.0,train,4,M
656.452178955,2,1000,1,1,2,0,4,5,3,1,0,250.0,train,2,M
640.368938446,1,1000,4,1,2,0,4,5,3,1,0,250.0,train,1,M
416.313171387,0,1000,0,1,2,0,4,5,3,1,0,250.0,train,0,M
624.284982681,3,1000,5,0,2,0,4,5,3,1,0,250.0,train,2,M
608.309030533,3,1000,5,1,2,0,4,5,3,1,0,250.0,train,3,M
528.381824493,5,1000,2,1,2,0,4,5,3,1,0,250.0,train,5,M
784.333944321,4,1000,3,1,2,0,4,5,3,1,0,250.0,train,4,M
480.278968811,2,1000,1,1,2,0,4,5,3,1,0,250.0,train,2,M
688.34900856,0,1000,0,1,2,0,4,5,3,1,0,250.0,train,0,M
576.262950897,4,1000,3,1,2,0,4,5,3,1,0,250.0,train,4,M
672.379970551,3,1000,5,1,2,0,4,5,3,1,0,250.0,train,3,M
816.558122635,1,1000,4,1,2,0,4,5,3,1,0,250.0,train,1,M
656.419992447,5,1000,2,1,2,0,4,5,3,1,0,250.0,train,5,M
640.475034714,2,1000,1,1,2,0,4,5,3,1,0,250.0,train,2,M
512.387037277,5,1000,2,1,2,0,4,5,3,1,0,250.0,train,5,M
512.161970139,4,1000,3,0,2,0,4,5,3,1,0,250.0,train,5,M
560.437202454,5,1000,2,1,2,0,4,5,3,1,0,250.0,train,5,M
1056.40816689,1,1000,4,1,2,0,4,5,3,1,0,250.0,train,1,M
576.472043991,1,1000,4,1,2,0,4,5,3,1,0,250.0,train,1,M
512.385845184,1,1000,4,1,2,0,4,5,3,1,0,250.0,train,1,M
608.20889473,3,1000,5,1,2,0,4,5,3,1,0,250.0,train,3,M
512.508869171,5,1000,2,1,2,0,4,5,3,1,0,250.0,train,5,M
496.425867081,1,1000,4,1,2,0,4,5,3,1,0,250.0,train,1,M
640.151977539,3,1000,5,1,2,0,4,5,3,1,0,250.0,train,3,M
544.523954391,0,1000,0,1,2,0,4,5,3,1,0,250.0,train,0,M
880.539178848,3,1000,5,1,2,0,4,5,3,1,0,250.0,train,3,M
672.338008881,1,1000,4,1,2,0,4,5,3,1,0,250.0,train,1,M
640.332937241,1,1000,4,1,2,0,4,5,3,1,0,250.0,train,1,M
655.53021431,2,1000,1,1,2,0,4,5,3,1,0,250.0,train,2,M
880.923986435,5,1000,2,1,2,0,4,5,3,1,0,250.0,train,5,M
1199.51105118,1,1000,4,1,2,0,4,5,3,1,0,250.0,train,1,M
703.685998917,5,1000,2,1,2,0,4,5,3,1,0,250.0,train,5,M
815.66286087,4,1000,3,1,2,0,4,5,3,1,0,250.0,train,4,M
528.28502655,2,1000,1,1,2,0,4,5,3,1,0,250.0,train,2,M
512.297868729,1,1000,4,1,2,0,4,5,3,1,0,250.0,train,1,M
656.280994415,2,1000,1,1,2,0,4,5,3,1,0,250.0,train,2,M
1392.2560215,1,1000,4,1,2,0,4,5,3,1,0,250.0,train,1,M
608.022928238,2,1000,1,1,2,0,4,5,3,1,0,250.0,train,2,M
528.313159943,1,1000,4,1,2,0,4,5,3,1,0,250.0,train,1,M
512.420892715,2,1000,1,1,2,0,4,5,3,1,0,250.0,train,2,M
1024.41692352,0,1000,0,1,2,0,4,5,3,1,0,250.0,train,0,M
688.246011734,1,1000,4,1,2,0,4,5,3,1,0,250.0,train,1,M
1120.47100067,5,1000,2,1,2,0,4,5,3,1,0,250.0,train,5,M
864.454030991,0,1000,0,1,2,0,4,5,3,1,0,250.0,train,0,M
512.281894684,0,1000,0,1,2,0,4,5,3,1,0,250.0,train,0,M
736.06300354,2,1000,1,1,2,0,4,5,3,1,0,250.0,train,2,M
752.348184586,4,1000,3,1,2,0,4,5,3,1,0,250.0,train,4,M
864.482879639,3,1000,5,1,2,0,4,5,3,1,0,250.0,train,3,M
816.461801529,4,1000,3,1,2,0,4,5,3,1,0,250.0,train,4,M
608.448982239,3,1000,5,1,2,0,4,5,3,1,0,250.0,train,3,M
864.42899704,3,1000,5,0,2,0,4,5,3,1,0,250.0,train,4,M
640.429973602,0,1000,0,1,2,0,4,5,3,1,0,250.0,train,0,M
512.444972992,4,1000,3,1,2,0,4,5,3,1,0,250.0,train,4,M
464.349985123,4,1000,3,1,2,0,4,5,3,1,0,250.0,train,4,M
592.206954956,2,1000,1,1,2,0,4,5,3,1,0,250.0,train,2,M
496.555089951,1,1000,4,1,2,0,4,5,3,1,0,250.0,train,1,M
496.466875076,0,1000,0,1,2,0,4,5,3,1,0,250.0,train,0,M
528.571128845,5,1000,2,1,2,0,4,5,3,1,0,250.0,train,5,M
672.852039337,1,1000,4,1,2,0,4,5,3,1,0,250.0,train,1,M
672.489881516,4,1000,3,1,2,0,4,5,3,1,0,250.0,train,4,M
736.379861832,5,1000,2,1,2,0,4,5,3,1,0,250.0,train,5,M
592.384815216,4,1000,3,1,2,0,4,5,3,1,0,250.0,train,4,M
1392.30012894,4,1000,3,1,2,0,4,5,3,1,0,250.0,train,4,M
576.251029968,4,1000,3,1,2,0,4,5,3,1,0,250.0,train,4,M
528.252124786,0,1000,0,1,2,0,4,5,3,1,0,250.0,train,0,M
624.314069748,5,1000,2,1,2,0,4,5,3,1,0,250.0,train,5,M
672.264099121,1,1000,4,1,2,0,4,5,3,1,0,250.0,train,1,M
544.466972351,0,1000,0,1,2,0,4,5,3,1,0,250.0,train,0,M
496.49810791,1,1000,4,1,2,0,4,5,3,1,0,250.0,train,1,M
656.316041946,1,1000,4,1,2,0,4,5,3,1,0,250.0,train,1,M
480.277061462,1,1000,4,1,2,0,4,5,3,1,0,250.0,train,1,M
415.53902626,1,1000,4,1,2,0,4,5,3,1,0,250.0,train,1,M
639.970064163,2,1000,1,0,2,0,4,5,3,1,0,250.0,train,1,M
847.96500206,4,1000,3,1,2,0,4,5,3,1,0,250.0,train,4,M
560.441970825,0,1000,0,1,2,0,4,5,3,1,0,250.0,train,0,M
1008.52894783,3,1000,5,1,2,0,4,5,3,1,0,250.0,train,3,M
864.43400383,4,1000,3,1,2,0,4,5,3,1,0,250.0,train,4,M
560.304164886,1,1000,4,1,2,0,4,5,3,1,0,250.0,train,1,M
624.395132065,3,1000,5,1,2,0,4,5,3,1,0,250.0,train,3,M
672.544956207,1,1000,4,1,2,0,4,5,3,1,0,250.0,train,1,M
624.477863312,2,1000,1,1,2,0,4,5,3,1,0,250.0,train,2,M
656.471967697,2,1000,1,1,2,0,4,5,3,1,0,250.0,train,2,M
528.296947479,0,1000,0,1,2,0,4,5,3,1,0,250.0,train,0,M
560.482978821,2,1000,1,1,2,0,4,5,3,1,0,250.0,train,2,M
480.199813843,2,1000,1,1,2,0,4,5,3,1,0,250.0,train,2,M
544.39496994,2,1000,1,1,2,0,4,5,3,1,0,250.0,train,2,M
544.418096542,5,1000,2,1,2,0,4,5,3,1,0,250.0,train,5,M
624.300003052,0,1000,0,1,2,0,4,5,3,1,0,250.0,train,0,M
2000.28204918,1,1000,4,1,2,0,4,5,3,1,0,250.0,train,1,M
625.252008438,0,1000,0,1,2,0,4,5,3,1,0,250.0,train,0,M
832.544803619,3,1000,5,1,2,0,4,5,3,1,0,250.0,train,3,M
896.418094635,1,1000,4,1,2,0,4,5,3,1,0,250.0,train,1,M
688.413858414,1,1000,4,1,2,0,4,5,3,1,0,250.0,train,1,M
640.542030334,4,1000,3,1,2,0,4,5,3,1,0,250.0,train,4,M
624.483823776,3,1000,5,1,2,0,4,5,3,1,0,250.0,train,3,M
592.316150665,5,1000,2,1,2,0,4,5,3,1,0,250.0,train,5,M
622.460126877,3,1000,5,1,2,0,4,5,3,1,0,250.0,train,3,M
639.593839645,4,1000,3,1,2,0,4,5,3,1,0,250.0,train,4,M
3839.85900879,4,1000,3,1,2,0,4,5,3,1,0,250.0,train,4,M
879.878997803,2,1000,1,1,2,0,4,5,3,1,0,250.0,train,2,M
1136.37709618,1,1000,4,1,2,0,4,5,3,1,0,250.0,train,1,M
528.308868408,0,1000,0,1,2,0,4,5,3,1,0,250.0,train,0,M
704.252004623,4,1000,3,1,2,0,4,5,3,1,0,250.0,train,4,M
560.139894485,4,1000,3,1,2,0,4,5,3,1,0,250.0,train,4,M
736.36007309,4,1000,3,1,2,0,4,5,3,1,0,250.0,train,4,M
640.377998352,2,1000,1,1,2,0,4,5,3,1,0,250.0,train,2,M
688.235998154,2,1000,1,1,2,0,4,5,3,1,0,250.0,train,2,M
688.583850861,3,1000,5,1,2,0,4,5,3,1,0,250.0,train,3,M
928.540945053,0,1000,0,1,2,0,4,5,3,1,0,250.0,train,0,M
3424.38983917,2,1000,1,1,2,0,4,5,3,1,0,250.0,train,2,M
592.358112335,3,1000,5,1,2,0,4,5,3,1,0,250.0,train,3,M
480.448007584,2,1000,1,1,2,0,4,5,3,1,0,250.0,train,2,M
496.465921402,0,1000,0,1,2,0,4,5,3,1,0,250.0,train,0,M
448.475122452,2,1000,1,1,2,0,4,5,3,1,0,250.0,train,2,M
448.400020599,0,1000,0,1,2,0,4,5,3,1,0,250.0,train,0,M
496.290922165,3,1000,5,0,2,0,4,5,3,1,0,250.0,train,2,M
736.374139786,3,1000,5,1,2,0,4,5,3,1,0,250.0,train,3,M
688.34900856,3,1000,5,1,2,0,4,5,3,1,0,250.0,train,3,M
864.356994629,1,1000,4,1,2,0,4,5,3,1,0,250.0,train,1,M
1248.44098091,2,1000,1,1,2,0,4,5,3,1,0,250.0,train,2,M
672.272205353,3,1000,5,1,2,0,4,5,3,1,0,250.0,train,3,M
5775.89011192,2,1000,1,1,2,0,4,5,3,1,0,250.0,test,2,M
608.245849609,5,1000,2,1,2,0,4,5,3,1,0,250.0,test,5,M
656.329154968,5,1000,2,1,2,0,4,5,3,1,0,250.0,test,5,M
544.246912003,3,1000,5,1,2,0,4,5,3,1,0,250.0,test,3,M
832.272052765,1,1000,4,1,2,0,4,5,3,1,0,250.0,test,1,M
576.104164124,1,1000,4,1,2,0,4,5,3,1,0,250.0,test,1,M
496.44112587,1,1000,4,1,2,0,4,5,3,1,0,250.0,test,1,M
560.431003571,5,1000,2,1,2,0,4,5,3,1,0,250.0,test,5,M
544.293880463,5,1000,2,1,2,0,4,5,3,1,0,250.0,test,5,M
384.32097435,5,1000,2,1,2,0,4,5,3,1,0,250.0,test,5,M
432.260036469,2,1000,1,0,2,0,4,5,3,1,0,250.0,test,5,M
528.274059296,5,1000,2,1,2,0,4,5,3,1,0,250.0,test,5,M
544.285058975,5,1000,2,1,2,0,4,5,3,1,0,250.0,test,5,M
1104.35390472,3,1000,5,1,2,0,4,5,3,1,0,250.0,test,3,M
848.125934601,3,1000,5,1,2,0,4,5,3,1,0,250.0,test,3,M
960.374116898,1,1000,4,1,2,0,4,5,3,1,0,250.0,test,1,M
800.352096558,0,1000,0,1,2,0,4,5,3,1,0,250.0,test,0,M
704.348087311,1,1000,4,1,2,0,4,5,3,1,0,250.0,test,1,M
8160.13789177,5,1000,2,1,2,0,4,5,3,1,0,250.0,test,5,M
2096.04096413,4,1000,3,1,2,0,4,5,3,1,0,250.0,test,4,M
816.236019135,2,1000,1,0,2,0,4,5,3,1,0,250.0,test,1,M
1168.24698448,4,1000,3,1,2,0,4,5,3,1,0,250.0,test,4,M
640.163898468,1,1000,4,1,2,0,4,5,3,1,0,250.0,test,1,M
704.417943954,4,1000,3,1,2,0,4,5,3,1,0,250.0,test,4,M
608.328104019,1,1000,4,1,2,0,4,5,3,1,0,250.0,test,1,M
2031.95095062,3,1000,5,1,2,0,4,5,3,1,0,250.0,test,3,M
576.314926147,5,1000,2,1,2,0,4,5,3,1,0,250.0,test,5,M
624.459028244,1,1000,4,1,2,0,4,5,3,1,0,250.0,test,1,M
640.391111374,5,1000,2,1,2,0,4,5,3,1,0,250.0,test,5,M
1473.05107117,3,1000,5,0,2,0,4,5,3,1,0,250.0,test,4,M
575.992107391,1,1000,4,1,2,0,4,5,3,1,0,250.0,test,1,M
528.262853622,5,1000,2,1,2,0,4,5,3,1,0,250.0,test,5,M
1520.16806602,3,1000,5,1,2,0,4,5,3,1,0,250.0,test,3,M
1312.22605705,0,1000,0,1,2,0,4,5,3,1,0,250.0,test,0,M
624.413967133,5,1000,2,1,2,0,4,5,3,1,0,250.0,test,5,M
1408.24604034,4,1000,3,1,2,0,4,5,3,1,0,250.0,test,4,M
976.305007935,2,1000,1,1,2,0,4,5,3,1,0,250.0,test,2,M
1455.80387115,3,1000,5,1,2,0,4,5,3,1,0,250.0,test,3,M
736.335039139,2,1000,1,0,2,0,4,5,3,1,0,250.0,test,1,M
832.440137863,2,1000,1,1,2,0,4,5,3,1,0,250.0,test,2,M
512.341022491,2,1000,1,1,2,0,4,5,3,1,0,250.0,test,2,M
431.991100311,2,1000,1,1,2,0,4,5,3,1,0,250.0,test,2,M
1008.47220421,0,1000,0,1,2,0,4,5,3,1,0,250.0,test,0,M
672.371149063,2,1000,1,1,2,0,4,5,3,1,0,250.0,test,2,M
720.276117325,0,1000,0,1,2,0,4,5,3,1,0,250.0,test,0,M
736.49096489,1,1000,4,1,2,0,4,5,3,1,0,250.0,test,1,M
1504.16994095,3,1000,5,1,2,0,4,5,3,1,0,250.0,test,3,M
608.292818069,5,1000,2,1,2,0,4,5,3,1,0,250.0,test,5,M
592.262983322,1,1000,4,1,2,0,4,5,3,1,0,250.0,test,1,M
800.235033035,5,1000,2,1,2,0,4,5,3,1,0,250.0,test,5,M
672.437906265,1,1000,4,1,2,0,4,5,3,1,0,250.0,test,1,M
1408.03003311,3,1000,5,1,2,0,4,5,3,1,0,250.0,test,3,M
496.330976486,5,1000,2,1,2,0,4,5,3,1,0,250.0,test,5,M
496.310949326,2,1000,1,1,2,0,4,5,3,1,0,250.0,test,2,M
592.507123947,0,1000,0,1,2,0,4,5,3,1,0,250.0,test,0,M
544.455051422,5,1000,2,1,2,0,4,5,3,1,0,250.0,test,5,M
640.364170074,2,1000,1,1,2,0,4,5,3,1,0,250.0,test,2,M
656.361818314,1,1000,4,1,2,0,4,5,3,1,0,250.0,test,1,M
1040.3778553,1,1000,4,1,2,0,4,5,3,1,0,250.0,test,1,M
1264.12701607,3,1000,5,1,2,0,4,5,3,1,0,250.0,test,3,M
528.330087662,5,1000,2,1,2,0,4,5,3,1,0,250.0,test,5,M
1168.45703125,3,1000,5,1,2,0,4,5,3,1,0,250.0,test,3,M
816.309928894,0,1000,0,1,2,0,4,5,3,1,0,250.0,test,0,M
1232.37395287,3,1000,5,1,2,0,4,5,3,1,0,250.0,test,3,M
832.325935364,0,1000,0,1,2,0,4,5,3,1,0,250.0,test,0,M
864.219903946,0,1000,0,1,2,0,4,5,3,1,0,250.0,test,0,M
576.389074326,5,1000,2,1,2,0,4,5,3,1,0,250.0,test,5,M
1040.48299789,0,1000,0,1,2,0,4,5,3,1,0,250.0,test,0,M
992.301940918,5,1000,2,1,2,0,4,5,3,1,0,250.0,test,5,M
1168.67303848,3,1000,5,1,2,0,4,5,3,1,0,250.0,test,3,M
1104.4690609,2,1000,1,1,2,0,4,5,3,1,0,250.0,test,2,M
1248.17800522,3,1000,5,1,2,0,4,5,3,1,0,250.0,test,3,M
976.469993591,2,1000,1,1,2,0,4,5,3,1,0,250.0,test,2,M
832.39197731,1,1000,4,1,2,0,4,5,3,1,0,250.0,test,1,M
1904.25992012,1,1000,4,1,2,0,4,5,3,1,0,250.0,test,1,M
1248.51298332,4,1000,3,1,2,0,4,5,3,1,0,250.0,test,4,M
815.940141678,0,1000,0,1,2,0,4,5,3,1,0,250.0,test,0,M
1472.2571373,5,1000,2,1,2,0,4,5,3,1,0,250.0,test,5,M
640.360832214,5,1000,2,1,2,0,4,5,3,1,0,250.0,test,5,M
1024.34396744,4,1000,3,1,2,0,4,5,3,1,0,250.0,test,4,M
656.286001205,1,1000,4,1,2,0,4,5,3,1,0,250.0,test,1,M
768.265008926,3,1000,5,1,2,0,4,5,3,1,0,250.0,test,3,M
640.28096199,0,1000,0,1,2,0,4,5,3,1,0,250.0,test,0,M
528.511047363,5,1000,2,1,2,0,4,5,3,1,0,250.0,test,5,M
784.296989441,0,1000,0,1,2,0,4,5,3,1,0,250.0,test,0,M
656.424045563,0,1000,0,1,2,0,4,5,3,1,0,250.0,test,0,M
1008.38685036,2,1000,1,1,2,0,4,5,3,1,0,250.0,test,2,M
640.249013901,2,1000,1,1,2,0,4,5,3,1,0,250.0,test,2,M
608.346939087,2,1000,1,1,2,0,4,5,3,1,0,250.0,test,2,M
720.299005508,4,1000,3,1,2,0,4,5,3,1,0,250.0,test,4,M
608.354091644,0,1000,0,1,2,0,4,5,3,1,0,250.0,test,0,M
512.245178223,2,1000,1,1,2,0,4,5,3,1,0,250.0,test,2,M
768.351078033,4,1000,3,1,2,0,4,5,3,1,0,250.0,test,4,M
656.298875809,3,1000,5,1,2,0,4,5,3,1,0,250.0,test,3,M
640.274047852,2,1000,1,1,2,0,4,5,3,1,0,250.0,test,2,M
639.83297348,3,1000,5,1,2,0,4,5,3,1,0,250.0,test,3,M
464.13397789,5,1000,2,1,2,0,4,5,3,1,0,250.0,test,5,M
640.194892883,1,1000,4,1,2,0,4,5,3,1,0,250.0,test,1,M
512.086868286,5,1000,2,1,2,0,4,5,3,1,0,250.0,test,5,M
1200.68407059,3,1000,5,1,2,0,4,5,3,1,0,250.0,test,3,M
688.092947006,2,1000,1,1,2,0,4,5,3,1,0,250.0,test,2,M
976.370096207,4,1000,3,1,2,0,4,5,3,1,0,250.0,test,4,M
544.294118881,2,1000,1,1,2,0,4,5,3,1,0,250.0,test,2,M
1040.39001465,5,1000,2,1,2,0,4,5,3,1,0,250.0,test,5,M
544.418811798,4,1000,3,1,2,0,4,5,3,1,0,250.0,test,4,M
720.380067825,1,1000,4,1,2,0,4,5,3,1,0,250.0,test,1,M
592.417001724,5,1000,2,1,2,0,4,5,3,1,0,250.0,test,5,M
544.312953949,1,1000,4,1,2,0,4,5,3,1,0,250.0,test,1,M
448.29916954,5,1000,2,1,2,0,4,5,3,1,0,250.0,test,5,M
672.017097473,2,1000,1,1,2,0,4,5,3,1,0,250.0,test,2,M
608.290910721,0,1000,0,0,2,0,4,5,3,1,0,250.0,test,1,M
752.264976501,0,1000,0,1,2,0,4,5,3,1,0,250.0,test,0,M
1024.45316315,5,1000,2,1,2,0,4,5,3,1,0,250.0,test,5,M
672.3279953,1,1000,4,1,2,0,4,5,3,1,0,250.0,test,1,M
912.42814064,0,1000,0,1,2,0,4,5,3,1,0,250.0,test,0,M
848.388910294,2,1000,1,1,2,0,4,5,3,1,0,250.0,test,2,M
1312.40510941,4,1000,3,1,2,0,4,5,3,1,0,250.0,test,4,M
560.436964035,5,1000,2,1,2,0,4,5,3,1,0,250.0,test,5,M
1744.29297447,2,1000,1,1,2,0,4,5,3,1,0,250.0,test,2,M
1104.35199738,0,1000,0,1,2,0,4,5,3,1,0,250.0,test,0,M
3760.08892059,1,1000,4,1,2,0,4,5,3,1,0,250.0,test,1,M
2128.01408768,3,1000,5,0,2,0,4,5,3,1,0,250.0,test,4,M
1487.96010017,1,1000,4,1,2,0,4,5,3,1,0,250.0,test,1,M
544.207811356,5,1000,2,1,2,0,4,5,3,1,0,250.0,test,5,M
784.317970276,4,1000,3,1,2,0,4,5,3,1,0,250.0,test,4,M
560.35900116,0,1000,0,1,2,0,4,5,3,1,0,250.0,test,0,M
544.314146042,1,1000,4,1,2,0,4,5,3,1,0,250.0,test,1,M
576.068878174,0,1000,0,1,2,0,4,5,3,1,0,250.0,test,0,M
896.44908905,3,1000,5,0,2,0,4,5,3,1,0,250.0,test,4,M
1136.23189926,0,1000,0,1,2,0,4,5,3,1,0,250.0,test,0,M
1312.26801872,2,1000,1,1,2,0,4,5,3,1,0,250.0,test,2,M
736.364126205,5,1000,2,1,2,0,4,5,3,1,0,250.0,test,5,M
592.505931854,0,1000,0,1,2,0,4,5,3,1,0,250.0,test,0,M
4224.33400154,0,1000,0,1,2,0,4,5,3,1,0,250.0,test,0,M
704.5109272,3,1000,5,0,2,0,4,5,3,1,0,250.0,test,4,M
736.051082611,3,1000,5,1,2,0,4,5,3,1,0,250.0,test,3,M
800.239086151,5,1000,2,1,2,0,4,5,3,1,0,250.0,test,5,M
832.361936569,1,1000,4,1,2,0,4,5,3,1,0,250.0,test,1,M
880.411863327,0,1000,0,1,2,0,4,5,3,1,0,250.0,test,0,M
592.28682518,2,1000,1,1,2,0,4,5,3,1,0,250.0,test,2,M
224.174976349,0,1000,0,0,2,0,4,5,3,1,0,250.0,test,2,M
2720.20196915,4,1000,3,0,2,0,4,5,3,1,0,250.0,test,3,M
688.237905502,5,1000,2,1,2,0,4,5,3,1,0,250.0,test,5,M
688.204050064,3,1000,5,1,2,0,4,5,3,1,0,250.0,test,3,M
480.39484024,5,1000,2,1,2,0,4,5,3,1,0,250.0,test,5,M
576.330900192,5,1000,2,1,2,0,4,5,3,1,0,250.0,test,5,M
608.242034912,1,1000,4,1,2,0,4,5,3,1,0,250.0,test,1,M
1120.28598785,2,1000,1,1,2,0,4,5,3,1,0,250.0,test,2,M
1872.26104736,0,1000,0,1,2,0,4,5,3,1,0,250.0,test,0,M
544.298887253,5,1000,2,1,2,0,4,5,3,1,0,250.0,test,5,M
944.356918335,3,1000,5,1,2,0,4,5,3,1,0,250.0,test,3,M
688.326120377,1,1000,4,1,2,0,4,5,3,1,0,250.0,test,1,M
720.350980759,0,1000,0,1,2,0,4,5,3,1,0,250.0,test,0,M
848.44493866,5,1000,2,1,2,0,4,5,3,1,0,250.0,test,5,M
1072.30710983,0,1000,0,1,2,0,4,5,3,1,0,250.0,test,0,M
720.357894897,1,1000,4,1,2,0,4,5,3,1,0,250.0,test,1,M
48.3129024506,4,1000,3,0,2,0,4,5,3,1,0,250.0,test,1,M
1312.24417686,2,1000,1,1,2,0,4,5,3,1,0,250.0,test,2,M
864.431142807,0,1000,0,1,2,0,4,5,3,1,0,250.0,test,0,M
880.446910858,5,1000,2,1,2,0,4,5,3,1,0,250.0,test,5,M
816.379070282,1,1000,4,1,2,0,4,5,3,1,0,250.0,test,1,M
1216.2129879,3,1000,5,1,2,0,4,5,3,1,0,250.0,test,3,M
1456.28285408,5,1000,2,1,2,0,4,5,3,1,0,250.0,test,5,M
1456.87890053,0,1000,0,0,2,0,4,5,3,1,0,250.0,test,1,M
2304.18109894,2,1000,1,1,2,0,4,5,3,1,0,250.0,test,2,M
864.192008972,5,1000,2,1,2,0,4,5,3,1,0,250.0,test,5,M
1936.21706963,2,1000,1,1,2,0,4,5,3,1,0,250.0,test,2,M
1904.23107147,4,1000,3,1,2,0,4,5,3,1,0,250.0,test,4,M
2128.19600105,4,1000,3,0,2,0,4,5,3,1,0,250.0,test,1,M
816.265106201,2,1000,1,1,2,0,4,5,3,1,0,250.0,test,2,M
480.157852173,5,1000,2,1,2,0,4,5,3,1,0,250.0,test,5,M
688.47990036,4,1000,3,0,2,0,4,5,3,1,0,250.0,test,3,M
512.338876724,5,1000,2,1,2,0,4,5,3,1,0,250.0,test,5,M
768.123865128,4,1000,3,1,2,0,4,5,3,1,0,250.0,test,4,M
1216.25900269,3,1000,5,1,2,0,4,5,3,1,0,250.0,test,3,M
880.342960358,1,1000,4,1,2,0,4,5,3,1,0,250.0,test,1,M
1888.25702667,4,1000,3,0,2,0,4,5,3,1,0,250.0,test,2,M
544.234037399,5,1000,2,1,2,0,4,5,3,1,0,250.0,test,5,M
3856.28294945,0,1000,0,1,2,0,4,5,3,1,0,250.0,test,0,M
528.182983398,4,1000,3,1,2,0,4,5,3,1,0,250.0,test,4,M
592.442035675,0,1000,0,0,2,0,4,5,3,1,0,250.0,test,4,M
1168.24507713,5,1000,2,1,2,0,4,5,3,1,0,250.0,test,5,M
976.269006729,3,1000,5,1,2,0,4,5,3,1,0,250.0,test,3,M
1792.32192039,5,1000,2,1,2,0,4,5,3,1,0,250.0,test,5,M
608.202219009,2,1000,1,1,2,0,4,5,3,1,0,250.0,test,2,M
704.081058502,4,1000,3,1,2,0,4,5,3,1,0,250.0,test,4,M
2463.87982368,3,1000,5,1,2,0,4,5,3,1,0,250.0,test,3,M
719.642162323,3,1000,5,1,2,0,4,5,3,1,0,250.0,test,3,M
640.219926834,0,1000,0,1,2,0,4,5,3,1,0,250.0,test,0,M
560.077190399,2,1000,1,1,2,0,4,5,3,1,0,250.0,test,2,M
495.923042297,2,1000,1,1,2,0,4,5,3,1,0,250.0,test,2,M
704.221963882,3,1000,5,0,2,0,4,5,3,1,0,250.0,test,2,M
607.67698288,3,1000,5,1,2,0,4,5,3,1,0,250.0,test,3,M
2480.07106781,3,1000,5,1,2,0,4,5,3,1,0,250.0,test,3,M
783.550977707,4,1000,3,1,2,0,4,5,3,1,0,250.0,test,4,M
1328.15408707,3,1000,5,1,2,0,4,5,3,1,0,250.0,test,3,M
639.880895615,4,1000,3,1,2,0,4,5,3,1,0,250.0,test,4,M
768.664121628,4,1000,3,1,2,0,4,5,3,1,0,250.0,test,4,M
639.981031418,3,1000,5,0,2,0,4,5,3,1,0,250.0,test,4,M
1359.38692093,3,1000,5,0,2,0,4,5,3,1,0,250.0,test,4,M
1295.5198288,3,1000,5,1,2,0,4,5,3,1,0,250.0,test,3,M
607.673883438,2,1000,1,1,2,0,4,5,3,1,0,250.0,test,2,M
768.424034119,0,1000,0,1,2,0,4,5,3,1,0,250.0,test,0,M
560.286045074,0,1000,0,1,2,0,4,5,3,1,0,250.0,test,0,M
528.359889984,0,1000,0,1,2,0,4,5,3,1,0,250.0,test,0,M
912.128925323,4,1000,3,1,2,0,4,5,3,1,0,250.0,test,4,M
528.257131577,2,1000,1,1,2,0,4,5,3,1,0,250.0,test,2,M
784.369945526,1,1000,4,1,2,0,4,5,3,1,0,250.0,test,1,M
1216.22204781,3,1000,5,0,2,0,4,5,3,1,0,250.0,test,4,M
1552.16407776,0,1000,0,1,2,0,4,5,3,1,0,250.0,test,0,M
528.414011002,5,1000,2,1,2,0,4,5,3,1,0,250.0,test,5,M
688.409805298,2,1000,1,1,2,0,4,5,3,1,0,250.0,test,2,M
5807.97505379,4,1000,3,1,2,0,4,5,3,1,0,250.0,test,4,M
512.19201088,5,1000,2,1,2,0,4,5,3,1,0,250.0,test,5,M
320.399999619,5,1000,2,1,2,0,4,5,3,1,0,250.0,test,5,M
208.163976669,3,1000,5,0,2,0,4,5,3,1,0,250.0,test,5,M
480.391979218,2,1000,1,0,2,0,4,5,3,1,0,250.0,test,4,M
32.3879718781,4,1000,3,0,2,0,4,5,3,1,0,250.0,test,2,M
1280.75408936,1,1000,4,1,2,0,4,5,3,1,0,250.0,test,1,M
1008.00704956,5,1000,2,0,2,0,4,5,3,1,0,250.0,test,1,M
1023.97894859,1,1000,4,0,2,0,4,5,3,1,0,250.0,test,5,M
1807.83009529,3,1000,5,1,2,0,4,5,3,1,0,250.0,test,3,M
2336.21001244,5,1000,2,0,2,0,4,5,3,1,0,250.0,test,4,M
4288.07878494,4,1000,3,1,2,0,4,5,3,1,0,250.0,test,4,M
1808.23087692,0,1000,0,1,2,0,4,5,3,1,0,250.0,test,0,M
1520.26295662,4,1000,3,1,2,0,4,5,3,1,0,250.0,test,4,M
1456.18891716,2,1000,1,0,2,0,4,5,3,1,0,250.0,test,1,M
2128.20601463,4,1000,3,1,2,0,4,5,3,1,0,250.0,test,4,M
1968.4009552,5,1000,2,1,2,0,4,5,3,1,0,250.0,test,5,M
896.240949631,0,1000,0,0,2,0,4,5,3,1,0,250.0,test,1,M
736.65189743,4,1000,3,1,2,0,4,5,3,1,0,250.0,test,4,M
496.209859848,3,1000,5,0,2,0,4,5,3,1,0,250.0,test,4,M
1168.39599609,5,1000,2,1,2,0,4,5,3,1,0,250.0,test,5,M
2176.87487602,3,1000,5,0,2,0,4,5,3,1,0,250.0,test,4,M
1631.97207451,2,1000,1,1,2,0,4,5,3,1,0,250.0,test,2,M
20335.8421326,4,1000,3,0,2,0,4,5,3,1,0,250.0,test,3,M
1168.20001602,0,1000,0,0,2,0,4,5,3,1,0,250.0,test,5,M
15999.9489784,3,1000,5,0,2,0,4,5,3,1,0,250.0,test,5,M
1984.21192169,1,1000,4,0,2,0,4,5,3,1,0,250.0,test,0,M
24079.6890259,3,1000,5,0,2,0,4,5,3,1,0,250.0,test,4,M
4208.11414719,2,1000,1,1,2,0,4,5,3,1,0,250.0,test,2,M
24703.5911083,4,1000,3,0,2,0,4,5,3,1,0,250.0,test,3,M
1440.26899338,2,1000,1,0,2,0,4,5,3,1,0,250.0,test,3,M
25791.5711403,5,1000,2,0,2,0,4,5,3,1,0,250.0,test,4,M
128.263950348,2,1000,1,0,2,0,4,5,3,1,0,250.0,test,5,M
25007.5018406,2,1000,1,0,2,0,4,5,3,1,0,250.0,test,5,M
1136.23595238,2,1000,1,1,2,0,4,5,3,1,0,250.0,test,2,M
1120.24688721,3,1000,5,0,2,0,4,5,3,1,0,250.0,test,2,M
12543.9140797,5,1000,2,0,2,0,4,5,3,1,0,250.0,test,2,M
61118.4887886,5,1000,2,0,2,0,4,5,3,1,0,250.0,test,2,M
