RT,correct_response,ms-prestimblank,curstim,correct,SRmap_1,SRmap_0,SRmap_3,SRmap_2,SRmap_5,SRmap_4,ms-precue,ntrials,type,response,condition
48174.2939949,3,1000,5,1,0,2,1,4,3,5,0,250.0,train,3,M
863.956928253,1,1000,3,1,0,2,1,4,3,5,0,250.0,train,1,M
848.345994949,3,1000,5,1,0,2,1,4,3,5,0,250.0,train,3,M
1200.22583008,4,1000,2,1,0,2,1,4,3,5,0,250.0,train,4,M
752.29382515,2,1000,0,1,0,2,1,4,3,5,0,250.0,train,2,M
1920.32885551,5,1000,4,1,0,2,1,4,3,5,0,250.0,train,5,M
1248.39186668,5,1000,4,1,0,2,1,4,3,5,0,250.0,train,5,M
816.861867905,3,1000,5,1,0,2,1,4,3,5,0,250.0,train,3,M
736.482143402,0,1000,1,1,0,2,1,4,3,5,0,250.0,train,0,M
751.181125641,5,1000,4,1,0,2,1,4,3,5,0,250.0,train,5,M
751.437902451,1,1000,3,1,0,2,1,4,3,5,0,250.0,train,1,M
1104.65502739,5,1000,4,1,0,2,1,4,3,5,0,250.0,train,5,M
959.852933884,3,1000,5,1,0,2,1,4,3,5,0,250.0,train,3,M
895.581007004,4,1000,2,1,0,2,1,4,3,5,0,250.0,train,4,M
687.326192856,1,1000,3,1,0,2,1,4,3,5,0,250.0,train,1,M
511.226177216,1,1000,3,1,0,2,1,4,3,5,0,250.0,train,1,M
544.263839722,1,1000,3,1,0,2,1,4,3,5,0,250.0,train,1,M
975.440979004,4,1000,2,1,0,2,1,4,3,5,0,250.0,train,4,M
751.639842987,0,1000,1,1,0,2,1,4,3,5,0,250.0,train,0,M
496.093034744,1,1000,3,1,0,2,1,4,3,5,0,250.0,train,1,M
576.380968094,0,1000,1,1,0,2,1,4,3,5,0,250.0,train,0,M
672.225952148,1,1000,3,1,0,2,1,4,3,5,0,250.0,train,1,M
768.405914307,2,1000,0,1,0,2,1,4,3,5,0,250.0,train,2,M
463.575839996,0,1000,1,1,0,2,1,4,3,5,0,250.0,train,0,M
719.434976578,3,1000,5,1,0,2,1,4,3,5,0,250.0,train,3,M
607.628107071,2,1000,0,1,0,2,1,4,3,5,0,250.0,train,2,M
720.407962799,0,1000,1,1,0,2,1,4,3,5,0,250.0,train,0,M
720.43800354,2,1000,0,1,0,2,1,4,3,5,0,250.0,train,2,M
847.61095047,5,1000,4,1,0,2,1,4,3,5,0,250.0,train,5,M
928.828001022,3,1000,5,1,0,2,1,4,3,5,0,250.0,train,3,M
896.412134171,2,1000,0,1,0,2,1,4,3,5,0,250.0,train,2,M
688.368082047,1,1000,3,0,0,2,1,4,3,5,0,250.0,train,0,M
1008.31413269,3,1000,5,1,0,2,1,4,3,5,0,250.0,train,3,M
688.804149628,0,1000,1,1,0,2,1,4,3,5,0,250.0,train,0,M
671.332120895,0,1000,1,1,0,2,1,4,3,5,0,250.0,train,0,M
608.472108841,0,1000,1,1,0,2,1,4,3,5,0,250.0,train,0,M
655.512094498,0,1000,1,1,0,2,1,4,3,5,0,250.0,train,0,M
1007.60197639,4,1000,2,1,0,2,1,4,3,5,0,250.0,train,4,M
991.462945938,1,1000,3,1,0,2,1,4,3,5,0,250.0,train,1,M
799.582004547,3,1000,5,1,0,2,1,4,3,5,0,250.0,train,3,M
751.503944397,4,1000,2,1,0,2,1,4,3,5,0,250.0,train,4,M
479.555845261,0,1000,1,1,0,2,1,4,3,5,0,250.0,train,0,M
575.436115265,4,1000,2,1,0,2,1,4,3,5,0,250.0,train,4,M
703.994035721,1,1000,3,1,0,2,1,4,3,5,0,250.0,train,1,M
639.637947083,5,1000,4,1,0,2,1,4,3,5,0,250.0,train,5,M
543.462991714,0,1000,1,1,0,2,1,4,3,5,0,250.0,train,0,M
879.493951797,2,1000,0,0,0,2,1,4,3,5,0,250.0,train,3,M
671.514034271,2,1000,0,1,0,2,1,4,3,5,0,250.0,train,2,M
608.311891556,2,1000,0,1,0,2,1,4,3,5,0,250.0,train,2,M
735.717058182,5,1000,4,1,0,2,1,4,3,5,0,250.0,train,5,M
847.625017166,5,1000,4,1,0,2,1,4,3,5,0,250.0,train,5,M
1472.81193733,2,1000,0,1,0,2,1,4,3,5,0,250.0,train,2,M
863.554000854,0,1000,1,1,0,2,1,4,3,5,0,250.0,train,0,M
1839.38002586,5,1000,4,1,0,2,1,4,3,5,0,250.0,train,5,M
1055.81903458,3,1000,5,1,0,2,1,4,3,5,0,250.0,train,3,M
607.329130173,1,1000,3,1,0,2,1,4,3,5,0,250.0,train,1,M
847.40281105,4,1000,2,1,0,2,1,4,3,5,0,250.0,train,4,M
735.702037811,3,1000,5,0,0,2,1,4,3,5,0,250.0,train,2,M
687.53695488,4,1000,2,1,0,2,1,4,3,5,0,250.0,train,4,M
1104.26712036,3,1000,5,1,0,2,1,4,3,5,0,250.0,train,3,M
639.243841171,1,1000,3,1,0,2,1,4,3,5,0,250.0,train,1,M
688.050985336,5,1000,4,1,0,2,1,4,3,5,0,250.0,train,5,M
656.364917755,1,1000,3,1,0,2,1,4,3,5,0,250.0,train,1,M
687.659978867,2,1000,0,1,0,2,1,4,3,5,0,250.0,train,2,M
863.718032837,5,1000,4,1,0,2,1,4,3,5,0,250.0,train,5,M
575.67191124,0,1000,1,1,0,2,1,4,3,5,0,250.0,train,0,M
640.003919601,3,1000,5,1,0,2,1,4,3,5,0,250.0,train,3,M
704.358100891,3,1000,5,1,0,2,1,4,3,5,0,250.0,train,3,M
640.337944031,2,1000,0,1,0,2,1,4,3,5,0,250.0,train,2,M
847.594022751,2,1000,0,1,0,2,1,4,3,5,0,250.0,train,2,M
464.284181595,0,1000,1,1,0,2,1,4,3,5,0,250.0,train,0,M
464.486837387,4,1000,2,0,0,2,1,4,3,5,0,250.0,train,2,M
592.326879501,2,1000,0,1,0,2,1,4,3,5,0,250.0,train,2,M
672.491073608,5,1000,4,1,0,2,1,4,3,5,0,250.0,train,5,M
463.586091995,4,1000,2,1,0,2,1,4,3,5,0,250.0,train,4,M
512.387037277,3,1000,5,1,0,2,1,4,3,5,0,250.0,train,3,M
783.726215363,3,1000,5,1,0,2,1,4,3,5,0,250.0,train,3,M
735.459089279,1,1000,3,1,0,2,1,4,3,5,0,250.0,train,1,M
559.43608284,1,1000,3,1,0,2,1,4,3,5,0,250.0,train,1,M
607.619047165,5,1000,4,1,0,2,1,4,3,5,0,250.0,train,5,M
655.508995056,2,1000,0,1,0,2,1,4,3,5,0,250.0,train,2,M
543.658018112,0,1000,1,1,0,2,1,4,3,5,0,250.0,train,0,M
751.709938049,5,1000,4,1,0,2,1,4,3,5,0,250.0,train,5,M
767.580032349,2,1000,0,1,0,2,1,4,3,5,0,250.0,train,2,M
751.582860947,5,1000,4,1,0,2,1,4,3,5,0,250.0,train,5,M
687.669992447,0,1000,1,1,0,2,1,4,3,5,0,250.0,train,0,M
623.8758564,2,1000,0,1,0,2,1,4,3,5,0,250.0,train,2,M
1151.73983574,4,1000,2,1,0,2,1,4,3,5,0,250.0,train,4,M
528.789997101,4,1000,2,1,0,2,1,4,3,5,0,250.0,train,4,M
735.982894897,5,1000,4,1,0,2,1,4,3,5,0,250.0,train,5,M
528.276920319,3,1000,5,1,0,2,1,4,3,5,0,250.0,train,3,M
607.662916183,4,1000,2,1,0,2,1,4,3,5,0,250.0,train,4,M
559.653043747,5,1000,4,1,0,2,1,4,3,5,0,250.0,train,5,M
735.654830933,1,1000,3,1,0,2,1,4,3,5,0,250.0,train,1,M
591.671943665,1,1000,3,1,0,2,1,4,3,5,0,250.0,train,1,M
1664.28089142,5,1000,4,1,0,2,1,4,3,5,0,250.0,train,5,M
912.270069122,4,1000,2,1,0,2,1,4,3,5,0,250.0,train,4,M
576.406955719,4,1000,2,1,0,2,1,4,3,5,0,250.0,train,4,M
800.250053406,2,1000,0,1,0,2,1,4,3,5,0,250.0,train,2,M
1151.6289711,5,1000,4,1,0,2,1,4,3,5,0,250.0,train,5,M
623.555183411,0,1000,1,1,0,2,1,4,3,5,0,250.0,train,0,M
879.782915115,3,1000,5,0,0,2,1,4,3,5,0,250.0,train,4,M
624.277830124,3,1000,5,1,0,2,1,4,3,5,0,250.0,train,3,M
623.878002167,5,1000,4,1,0,2,1,4,3,5,0,250.0,train,5,M
624.245166779,1,1000,3,1,0,2,1,4,3,5,0,250.0,train,1,M
543.678998947,2,1000,0,1,0,2,1,4,3,5,0,250.0,train,2,M
544.008016586,1,1000,3,1,0,2,1,4,3,5,0,250.0,train,1,M
607.480049133,2,1000,0,1,0,2,1,4,3,5,0,250.0,train,2,M
575.457811356,2,1000,0,1,0,2,1,4,3,5,0,250.0,train,2,M
448.585033417,0,1000,1,1,0,2,1,4,3,5,0,250.0,train,0,M
463.697195053,0,1000,1,1,0,2,1,4,3,5,0,250.0,train,0,M
687.590122223,4,1000,2,1,0,2,1,4,3,5,0,250.0,train,4,M
607.405900955,5,1000,4,1,0,2,1,4,3,5,0,250.0,train,5,M
687.605857849,1,1000,3,1,0,2,1,4,3,5,0,250.0,train,1,M
575.40512085,5,1000,4,1,0,2,1,4,3,5,0,250.0,train,5,M
912.487983704,2,1000,0,1,0,2,1,4,3,5,0,250.0,train,2,M
624.006032944,5,1000,4,1,0,2,1,4,3,5,0,250.0,train,5,M
768.095016479,4,1000,2,0,0,2,1,4,3,5,0,250.0,train,3,M
655.520915985,4,1000,2,1,0,2,1,4,3,5,0,250.0,train,4,M
639.919996262,0,1000,1,1,0,2,1,4,3,5,0,250.0,train,0,M
559.52501297,2,1000,0,1,0,2,1,4,3,5,0,250.0,train,2,M
575.842142105,5,1000,4,1,0,2,1,4,3,5,0,250.0,train,5,M
575.565099716,4,1000,2,1,0,2,1,4,3,5,0,250.0,train,4,M
671.615123749,0,1000,1,1,0,2,1,4,3,5,0,250.0,train,0,M
415.719985962,0,1000,1,1,0,2,1,4,3,5,0,250.0,train,0,M
767.493009567,3,1000,5,1,0,2,1,4,3,5,0,250.0,train,3,M
575.505018234,1,1000,3,1,0,2,1,4,3,5,0,250.0,train,1,M
639.938831329,2,1000,0,1,0,2,1,4,3,5,0,250.0,train,2,M
560.003995895,2,1000,0,1,0,2,1,4,3,5,0,250.0,train,2,M
560.829877853,0,1000,1,1,0,2,1,4,3,5,0,250.0,train,0,M
927.757024765,3,1000,5,1,0,2,1,4,3,5,0,250.0,train,3,M
799.508094788,4,1000,2,1,0,2,1,4,3,5,0,250.0,train,4,M
831.465005875,0,1000,1,1,0,2,1,4,3,5,0,250.0,train,0,M
511.454820633,2,1000,0,0,0,2,1,4,3,5,0,250.0,train,4,M
864.315032959,2,1000,0,1,0,2,1,4,3,5,0,250.0,train,2,M
464.45608139,2,1000,0,1,0,2,1,4,3,5,0,250.0,train,2,M
560.342073441,0,1000,1,1,0,2,1,4,3,5,0,250.0,train,0,M
608.396053314,2,1000,0,1,0,2,1,4,3,5,0,250.0,train,2,M
1216.72201157,4,1000,2,1,0,2,1,4,3,5,0,250.0,train,4,M
720.124006271,2,1000,0,1,0,2,1,4,3,5,0,250.0,train,2,M
864.758968353,1,1000,3,1,0,2,1,4,3,5,0,250.0,train,1,M
751.678943634,5,1000,4,1,0,2,1,4,3,5,0,250.0,train,5,M
591.62902832,0,1000,1,1,0,2,1,4,3,5,0,250.0,train,0,M
592.068910599,1,1000,3,1,0,2,1,4,3,5,0,250.0,train,1,M
479.908943176,1,1000,3,0,0,2,1,4,3,5,0,250.0,train,2,M
719.567060471,0,1000,1,1,0,2,1,4,3,5,0,250.0,train,0,M
639.70208168,5,1000,4,1,0,2,1,4,3,5,0,250.0,train,5,M
624.442100525,1,1000,3,1,0,2,1,4,3,5,0,250.0,train,1,M
528.383970261,1,1000,3,1,0,2,1,4,3,5,0,250.0,train,1,M
2352.29992867,1,1000,3,1,0,2,1,4,3,5,0,250.0,train,1,M
640.439033508,1,1000,3,1,0,2,1,4,3,5,0,250.0,train,1,M
912.55402565,3,1000,5,1,0,2,1,4,3,5,0,250.0,train,3,M
768.548965454,1,1000,3,1,0,2,1,4,3,5,0,250.0,train,1,M
752.577066422,1,1000,3,1,0,2,1,4,3,5,0,250.0,train,1,M
560.430049896,0,1000,1,1,0,2,1,4,3,5,0,250.0,train,0,M
735.587120056,1,1000,3,1,0,2,1,4,3,5,0,250.0,train,1,M
607.662916183,1,1000,3,1,0,2,1,4,3,5,0,250.0,train,1,M
656.759023666,5,1000,4,1,0,2,1,4,3,5,0,250.0,train,5,M
1311.98000908,4,1000,2,1,0,2,1,4,3,5,0,250.0,train,4,M
624.454021454,3,1000,5,1,0,2,1,4,3,5,0,250.0,train,3,M
768.548965454,5,1000,4,1,0,2,1,4,3,5,0,250.0,train,5,M
720.559120178,2,1000,0,1,0,2,1,4,3,5,0,250.0,train,2,M
560.606002808,2,1000,0,1,0,2,1,4,3,5,0,250.0,train,2,M
720.502853394,5,1000,4,1,0,2,1,4,3,5,0,250.0,train,5,M
544.516086578,0,1000,1,1,0,2,1,4,3,5,0,250.0,train,0,M
848.667860031,2,1000,0,1,0,2,1,4,3,5,0,250.0,train,2,M
1328.54008675,4,1000,2,0,0,2,1,4,3,5,0,250.0,train,3,M
784.467935562,5,1000,4,1,0,2,1,4,3,5,0,250.0,train,5,M
624.553918839,4,1000,2,1,0,2,1,4,3,5,0,250.0,train,4,M
608.585834503,1,1000,3,1,0,2,1,4,3,5,0,250.0,train,1,M
704.493999481,4,1000,2,1,0,2,1,4,3,5,0,250.0,train,4,M
496.551990509,0,1000,1,1,0,2,1,4,3,5,0,250.0,train,0,M
528.450012207,5,1000,4,1,0,2,1,4,3,5,0,250.0,train,5,M
480.638027191,2,1000,0,0,0,2,1,4,3,5,0,250.0,train,1,M
560.69111824,0,1000,1,1,0,2,1,4,3,5,0,250.0,train,0,M
544.491052628,4,1000,2,0,0,2,1,4,3,5,0,250.0,train,5,M
800.372838974,3,1000,5,1,0,2,1,4,3,5,0,250.0,train,3,M
528.494119644,0,1000,1,1,0,2,1,4,3,5,0,250.0,train,0,M
704.304933548,4,1000,2,1,0,2,1,4,3,5,0,250.0,train,4,M
704.304933548,4,1000,2,1,0,2,1,4,3,5,0,250.0,train,4,M
752.49004364,5,1000,4,1,0,2,1,4,3,5,0,250.0,train,5,M
560.463190079,2,1000,0,1,0,2,1,4,3,5,0,250.0,train,2,M
592.368125916,5,1000,4,1,0,2,1,4,3,5,0,250.0,train,5,M
1200.43087006,4,1000,2,1,0,2,1,4,3,5,0,250.0,train,4,M
576.53093338,3,1000,5,1,0,2,1,4,3,5,0,250.0,train,3,M
672.549009323,1,1000,3,1,0,2,1,4,3,5,0,250.0,train,1,M
592.561006546,2,1000,0,1,0,2,1,4,3,5,0,250.0,train,2,M
544.492006302,4,1000,2,1,0,2,1,4,3,5,0,250.0,train,4,M
720.458984375,1,1000,3,1,0,2,1,4,3,5,0,250.0,train,1,M
992.260932922,2,1000,0,1,0,2,1,4,3,5,0,250.0,train,2,M
815.510034561,4,1000,2,1,0,2,1,4,3,5,0,250.0,train,4,M
720.502853394,1,1000,3,1,0,2,1,4,3,5,0,250.0,train,1,M
528.541088104,1,1000,3,1,0,2,1,4,3,5,0,250.0,train,1,M
480.32617569,0,1000,1,1,0,2,1,4,3,5,0,250.0,train,0,M
720.453977585,1,1000,3,1,0,2,1,4,3,5,0,250.0,train,1,M
1632.55119324,4,1000,2,1,0,2,1,4,3,5,0,250.0,train,4,M
672.507047653,2,1000,0,1,0,2,1,4,3,5,0,250.0,train,2,M
464.466094971,0,1000,1,1,0,2,1,4,3,5,0,250.0,train,0,M
784.476995468,5,1000,4,1,0,2,1,4,3,5,0,250.0,train,5,M
848.474979401,0,1000,1,1,0,2,1,4,3,5,0,250.0,train,0,M
624.927043915,5,1000,4,1,0,2,1,4,3,5,0,250.0,train,5,M
736.613988876,2,1000,0,1,0,2,1,4,3,5,0,250.0,train,2,M
688.544034958,2,1000,0,1,0,2,1,4,3,5,0,250.0,train,2,M
864.545106888,0,1000,1,1,0,2,1,4,3,5,0,250.0,train,0,M
608.549118042,1,1000,3,1,0,2,1,4,3,5,0,250.0,train,1,M
544.555187225,0,1000,1,1,0,2,1,4,3,5,0,250.0,train,0,M
464.530944824,1,1000,3,1,0,2,1,4,3,5,0,250.0,train,1,M
544.447898865,1,1000,3,1,0,2,1,4,3,5,0,250.0,train,1,M
481.225013733,1,1000,3,1,0,2,1,4,3,5,0,250.0,train,1,M
1504.81200218,2,1000,0,1,0,2,1,4,3,5,0,250.0,train,2,M
431.384086609,1,1000,3,1,0,2,1,4,3,5,0,250.0,train,1,M
592.594146729,0,1000,1,1,0,2,1,4,3,5,0,250.0,train,0,M
752.635955811,3,1000,5,1,0,2,1,4,3,5,0,250.0,train,3,M
496.486186981,3,1000,5,1,0,2,1,4,3,5,0,250.0,train,3,M
1072.81899452,5,1000,4,0,0,2,1,4,3,5,0,250.0,train,4,M
1056.44011497,3,1000,5,1,0,2,1,4,3,5,0,250.0,train,3,M
704.41699028,2,1000,0,1,0,2,1,4,3,5,0,250.0,train,2,M
512.537956238,1,1000,3,1,0,2,1,4,3,5,0,250.0,train,1,M
880.401134491,2,1000,0,1,0,2,1,4,3,5,0,250.0,train,2,M
624.490022659,2,1000,0,1,0,2,1,4,3,5,0,250.0,train,2,M
528.413057327,1,1000,3,1,0,2,1,4,3,5,0,250.0,train,1,M
495.727062225,1,1000,3,1,0,2,1,4,3,5,0,250.0,train,1,M
512.481927872,1,1000,3,1,0,2,1,4,3,5,0,250.0,train,1,M
960.454940796,3,1000,5,1,0,2,1,4,3,5,0,250.0,train,3,M
912.467002869,0,1000,1,1,0,2,1,4,3,5,0,250.0,train,0,M
736.903190613,1,1000,3,1,0,2,1,4,3,5,0,250.0,train,1,M
640.511035919,2,1000,0,0,0,2,1,4,3,5,0,250.0,train,3,M
704.358100891,1,1000,3,1,0,2,1,4,3,5,0,250.0,train,1,M
768.544912338,4,1000,2,1,0,2,1,4,3,5,0,250.0,train,4,M
672.400951385,5,1000,4,1,0,2,1,4,3,5,0,250.0,train,5,M
880.619049072,3,1000,5,1,0,2,1,4,3,5,0,250.0,train,3,M
528.474092484,3,1000,5,1,0,2,1,4,3,5,0,250.0,train,3,M
544.13485527,5,1000,4,1,0,2,1,4,3,5,0,250.0,train,5,M
576.53594017,0,1000,1,1,0,2,1,4,3,5,0,250.0,train,0,M
576.922178268,0,1000,1,1,0,2,1,4,3,5,0,250.0,train,0,M
592.628002167,2,1000,0,1,0,2,1,4,3,5,0,250.0,train,2,M
817.006826401,5,1000,4,1,0,2,1,4,3,5,0,250.0,train,5,M
1824.49793816,4,1000,2,1,0,2,1,4,3,5,0,250.0,train,4,M
512.493848801,3,1000,5,1,0,2,1,4,3,5,0,250.0,train,3,M
704.90694046,5,1000,4,1,0,2,1,4,3,5,0,250.0,train,5,M
816.471099854,3,1000,5,1,0,2,1,4,3,5,0,250.0,train,3,M
608.397006989,5,1000,4,1,0,2,1,4,3,5,0,250.0,train,5,M
656.507968903,1,1000,3,1,0,2,1,4,3,5,0,250.0,train,1,M
896.498918533,2,1000,0,1,0,2,1,4,3,5,0,250.0,train,2,M
736.50598526,2,1000,0,1,0,2,1,4,3,5,0,250.0,train,2,M
592.5989151,0,1000,1,1,0,2,1,4,3,5,0,250.0,train,0,M
960.568189621,4,1000,2,1,0,2,1,4,3,5,0,250.0,train,4,M
688.613891602,1,1000,3,0,0,2,1,4,3,5,0,250.0,train,2,M
1312.31880188,3,1000,5,1,0,2,1,4,3,5,0,250.0,train,3,M
720.492839813,4,1000,2,1,0,2,1,4,3,5,0,250.0,train,4,M
4479.90989685,1,1000,3,1,0,2,1,4,3,5,0,250.0,test,1,M
1328.15289497,5,1000,4,1,0,2,1,4,3,5,0,250.0,test,5,M
720.203876495,5,1000,4,1,0,2,1,4,3,5,0,250.0,test,5,M
1008.38088989,3,1000,5,0,0,2,1,4,3,5,0,250.0,test,4,M
672.28102684,5,1000,4,1,0,2,1,4,3,5,0,250.0,test,5,M
656.46982193,0,1000,1,1,0,2,1,4,3,5,0,250.0,test,0,M
896.306991577,1,1000,3,0,0,2,1,4,3,5,0,250.0,test,0,M
576.282024384,1,1000,3,1,0,2,1,4,3,5,0,250.0,test,1,M
640.410900116,0,1000,1,1,0,2,1,4,3,5,0,250.0,test,0,M
720.462083817,5,1000,4,1,0,2,1,4,3,5,0,250.0,test,5,M
1088.41085434,2,1000,0,1,0,2,1,4,3,5,0,250.0,test,2,M
448.416233063,3,1000,5,1,0,2,1,4,3,5,0,250.0,test,3,M
736.413955688,0,1000,1,1,0,2,1,4,3,5,0,250.0,test,0,M
1008.48388672,2,1000,0,1,0,2,1,4,3,5,0,250.0,test,2,M
512.364864349,4,1000,2,1,0,2,1,4,3,5,0,250.0,test,4,M
1104.44712639,1,1000,3,1,0,2,1,4,3,5,0,250.0,test,1,M
688.465833664,3,1000,5,1,0,2,1,4,3,5,0,250.0,test,3,M
591.938972473,0,1000,1,1,0,2,1,4,3,5,0,250.0,test,0,M
736.405134201,2,1000,0,1,0,2,1,4,3,5,0,250.0,test,2,M
912.37783432,4,1000,2,1,0,2,1,4,3,5,0,250.0,test,4,M
592.46301651,0,1000,1,1,0,2,1,4,3,5,0,250.0,test,0,M
624.477863312,3,1000,5,1,0,2,1,4,3,5,0,250.0,test,3,M
912.571191788,3,1000,5,1,0,2,1,4,3,5,0,250.0,test,3,M
640.216112137,2,1000,0,1,0,2,1,4,3,5,0,250.0,test,2,M
672.008037567,3,1000,5,1,0,2,1,4,3,5,0,250.0,test,3,M
752.496957779,2,1000,0,1,0,2,1,4,3,5,0,250.0,test,2,M
736.473083496,1,1000,3,1,0,2,1,4,3,5,0,250.0,test,1,M
560.461044312,1,1000,3,1,0,2,1,4,3,5,0,250.0,test,1,M
720.48997879,4,1000,2,1,0,2,1,4,3,5,0,250.0,test,4,M
544.384002686,5,1000,4,1,0,2,1,4,3,5,0,250.0,test,5,M
544.423103333,5,1000,4,1,0,2,1,4,3,5,0,250.0,test,5,M
608.212947845,2,1000,0,1,0,2,1,4,3,5,0,250.0,test,2,M
576.153993607,4,1000,2,1,0,2,1,4,3,5,0,250.0,test,4,M
544.17681694,4,1000,2,1,0,2,1,4,3,5,0,250.0,test,4,M
559.725999832,2,1000,0,1,0,2,1,4,3,5,0,250.0,test,2,M
384.086847305,3,1000,5,1,0,2,1,4,3,5,0,250.0,test,3,M
576.039791107,2,1000,0,0,0,2,1,4,3,5,0,250.0,test,3,M
623.620033264,3,1000,5,1,0,2,1,4,3,5,0,250.0,test,3,M
592.349052429,2,1000,0,1,0,2,1,4,3,5,0,250.0,test,2,M
608.329057693,2,1000,0,1,0,2,1,4,3,5,0,250.0,test,2,M
511.692047119,0,1000,1,1,0,2,1,4,3,5,0,250.0,test,0,M
543.953895569,3,1000,5,1,0,2,1,4,3,5,0,250.0,test,3,M
592.220067978,0,1000,1,1,0,2,1,4,3,5,0,250.0,test,0,M
591.898918152,2,1000,0,1,0,2,1,4,3,5,0,250.0,test,2,M
560.719013214,3,1000,5,1,0,2,1,4,3,5,0,250.0,test,3,M
751.878976822,4,1000,2,1,0,2,1,4,3,5,0,250.0,test,4,M
591.773986816,0,1000,1,1,0,2,1,4,3,5,0,250.0,test,0,M
607.635974884,0,1000,1,1,0,2,1,4,3,5,0,250.0,test,0,M
559.895038605,0,1000,1,1,0,2,1,4,3,5,0,250.0,test,0,M
607.866048813,5,1000,4,1,0,2,1,4,3,5,0,250.0,test,5,M
607.882976532,2,1000,0,1,0,2,1,4,3,5,0,250.0,test,2,M
543.757915497,0,1000,1,1,0,2,1,4,3,5,0,250.0,test,0,M
655.72810173,2,1000,0,1,0,2,1,4,3,5,0,250.0,test,2,M
992.453098297,1,1000,3,0,0,2,1,4,3,5,0,250.0,test,0,M
656.275033951,5,1000,4,1,0,2,1,4,3,5,0,250.0,test,5,M
623.644113541,4,1000,2,1,0,2,1,4,3,5,0,250.0,test,4,M
703.761100769,5,1000,4,1,0,2,1,4,3,5,0,250.0,test,5,M
623.673915863,5,1000,4,1,0,2,1,4,3,5,0,250.0,test,5,M
543.908834457,5,1000,4,1,0,2,1,4,3,5,0,250.0,test,5,M
511.818885803,0,1000,1,1,0,2,1,4,3,5,0,250.0,test,0,M
512.65001297,0,1000,1,1,0,2,1,4,3,5,0,250.0,test,0,M
543.807029724,1,1000,3,1,0,2,1,4,3,5,0,250.0,test,1,M
751.808166504,4,1000,2,1,0,2,1,4,3,5,0,250.0,test,4,M
687.963962555,3,1000,5,1,0,2,1,4,3,5,0,250.0,test,3,M
607.877969742,3,1000,5,1,0,2,1,4,3,5,0,250.0,test,3,M
623.777151108,5,1000,4,1,0,2,1,4,3,5,0,250.0,test,5,M
623.999118805,1,1000,3,0,0,2,1,4,3,5,0,250.0,test,2,M
399.893045425,2,1000,0,1,0,2,1,4,3,5,0,250.0,test,2,M
720.592021942,1,1000,3,1,0,2,1,4,3,5,0,250.0,test,1,M
608.258962631,0,1000,1,1,0,2,1,4,3,5,0,250.0,test,0,M
623.795032501,5,1000,4,1,0,2,1,4,3,5,0,250.0,test,5,M
703.950881958,2,1000,0,1,0,2,1,4,3,5,0,250.0,test,2,M
640.075922012,3,1000,5,1,0,2,1,4,3,5,0,250.0,test,3,M
687.945127487,3,1000,5,1,0,2,1,4,3,5,0,250.0,test,3,M
703.931093216,4,1000,2,1,0,2,1,4,3,5,0,250.0,test,4,M
576.093912125,1,1000,3,1,0,2,1,4,3,5,0,250.0,test,1,M
511.792898178,0,1000,1,1,0,2,1,4,3,5,0,250.0,test,0,M
671.938180923,2,1000,0,1,0,2,1,4,3,5,0,250.0,test,2,M
575.726032257,2,1000,0,1,0,2,1,4,3,5,0,250.0,test,2,M
687.909126282,3,1000,5,1,0,2,1,4,3,5,0,250.0,test,3,M
623.954057693,2,1000,0,1,0,2,1,4,3,5,0,250.0,test,2,M
656.337976456,3,1000,5,1,0,2,1,4,3,5,0,250.0,test,3,M
543.846130371,0,1000,1,1,0,2,1,4,3,5,0,250.0,test,0,M
640.333890915,4,1000,2,0,0,2,1,4,3,5,0,250.0,test,5,M
655.672073364,5,1000,4,1,0,2,1,4,3,5,0,250.0,test,5,M
703.934192657,2,1000,0,1,0,2,1,4,3,5,0,250.0,test,2,M
672.462940216,2,1000,0,1,0,2,1,4,3,5,0,250.0,test,2,M
479.902982712,2,1000,0,1,0,2,1,4,3,5,0,250.0,test,2,M
704.507112503,1,1000,3,1,0,2,1,4,3,5,0,250.0,test,1,M
575.864076614,0,1000,1,1,0,2,1,4,3,5,0,250.0,test,0,M
911.905050278,1,1000,3,1,0,2,1,4,3,5,0,250.0,test,1,M
592.11397171,5,1000,4,1,0,2,1,4,3,5,0,250.0,test,5,M
511.786937714,0,1000,1,1,0,2,1,4,3,5,0,250.0,test,0,M
687.755823135,3,1000,5,1,0,2,1,4,3,5,0,250.0,test,3,M
495.627164841,2,1000,0,0,0,2,1,4,3,5,0,250.0,test,3,M
623.785972595,0,1000,1,1,0,2,1,4,3,5,0,250.0,test,0,M
655.872821808,5,1000,4,1,0,2,1,4,3,5,0,250.0,test,5,M
527.685880661,0,1000,1,1,0,2,1,4,3,5,0,250.0,test,0,M
655.485153198,3,1000,5,1,0,2,1,4,3,5,0,250.0,test,3,M
719.94805336,1,1000,3,1,0,2,1,4,3,5,0,250.0,test,1,M
543.797016144,1,1000,3,1,0,2,1,4,3,5,0,250.0,test,1,M
815.815925598,4,1000,2,1,0,2,1,4,3,5,0,250.0,test,4,M
719.866037369,1,1000,3,1,0,2,1,4,3,5,0,250.0,test,1,M
591.891050339,5,1000,4,1,0,2,1,4,3,5,0,250.0,test,5,M
608.711004257,2,1000,0,0,0,2,1,4,3,5,0,250.0,test,1,M
591.454029083,0,1000,1,1,0,2,1,4,3,5,0,250.0,test,0,M
543.814897537,1,1000,3,1,0,2,1,4,3,5,0,250.0,test,1,M
591.604948044,4,1000,2,1,0,2,1,4,3,5,0,250.0,test,4,M
559.828042984,0,1000,1,0,0,2,1,4,3,5,0,250.0,test,1,M
703.605890274,4,1000,2,1,0,2,1,4,3,5,0,250.0,test,4,M
703.852176666,1,1000,3,1,0,2,1,4,3,5,0,250.0,test,1,M
703.844070435,4,1000,2,1,0,2,1,4,3,5,0,250.0,test,4,M
831.964015961,1,1000,3,1,0,2,1,4,3,5,0,250.0,test,1,M
640.066862106,4,1000,2,1,0,2,1,4,3,5,0,250.0,test,4,M
671.953201294,4,1000,2,1,0,2,1,4,3,5,0,250.0,test,4,M
848.013162613,1,1000,3,1,0,2,1,4,3,5,0,250.0,test,1,M
655.889034271,5,1000,4,1,0,2,1,4,3,5,0,250.0,test,5,M
912.735939026,1,1000,3,1,0,2,1,4,3,5,0,250.0,test,1,M
975.836992264,5,1000,4,1,0,2,1,4,3,5,0,250.0,test,5,M
879.891872406,1,1000,3,1,0,2,1,4,3,5,0,250.0,test,1,M
543.926000595,1,1000,3,1,0,2,1,4,3,5,0,250.0,test,1,M
704.514980316,4,1000,2,1,0,2,1,4,3,5,0,250.0,test,4,M
848.374128342,2,1000,0,0,0,2,1,4,3,5,0,250.0,test,1,M
719.372987747,5,1000,4,1,0,2,1,4,3,5,0,250.0,test,5,M
559.890985489,5,1000,4,1,0,2,1,4,3,5,0,250.0,test,5,M
608.773946762,3,1000,5,1,0,2,1,4,3,5,0,250.0,test,3,M
608.371019363,0,1000,1,1,0,2,1,4,3,5,0,250.0,test,0,M
592.247009277,0,1000,1,1,0,2,1,4,3,5,0,250.0,test,0,M
640.10477066,1,1000,3,1,0,2,1,4,3,5,0,250.0,test,1,M
481.49394989,2,1000,0,1,0,2,1,4,3,5,0,250.0,test,2,M
399.878978729,3,1000,5,1,0,2,1,4,3,5,0,250.0,test,3,M
912.201881409,1,1000,3,1,0,2,1,4,3,5,0,250.0,test,1,M
575.76084137,5,1000,4,1,0,2,1,4,3,5,0,250.0,test,5,M
799.865961075,3,1000,5,1,0,2,1,4,3,5,0,250.0,test,3,M
655.866861343,5,1000,4,1,0,2,1,4,3,5,0,250.0,test,5,M
639.750003815,4,1000,2,1,0,2,1,4,3,5,0,250.0,test,4,M
559.561014175,3,1000,5,1,0,2,1,4,3,5,0,250.0,test,3,M
719.881057739,4,1000,2,1,0,2,1,4,3,5,0,250.0,test,4,M
544.277906418,0,1000,1,1,0,2,1,4,3,5,0,250.0,test,0,M
848.225831985,1,1000,3,1,0,2,1,4,3,5,0,250.0,test,1,M
623.793125153,0,1000,1,1,0,2,1,4,3,5,0,250.0,test,0,M
704.127073288,4,1000,2,1,0,2,1,4,3,5,0,250.0,test,4,M
575.58298111,0,1000,1,1,0,2,1,4,3,5,0,250.0,test,0,M
576.27081871,1,1000,3,1,0,2,1,4,3,5,0,250.0,test,1,M
655.864953995,3,1000,5,1,0,2,1,4,3,5,0,250.0,test,3,M
463.907957077,3,1000,5,1,0,2,1,4,3,5,0,250.0,test,3,M
607.68699646,4,1000,2,1,0,2,1,4,3,5,0,250.0,test,4,M
655.76505661,5,1000,4,1,0,2,1,4,3,5,0,250.0,test,5,M
591.685056686,5,1000,4,1,0,2,1,4,3,5,0,250.0,test,5,M
432.415962219,5,1000,4,1,0,2,1,4,3,5,0,250.0,test,5,M
768.468141556,3,1000,5,1,0,2,1,4,3,5,0,250.0,test,3,M
608.793973923,5,1000,4,1,0,2,1,4,3,5,0,250.0,test,5,M
480.386972427,5,1000,4,1,0,2,1,4,3,5,0,250.0,test,5,M
527.865886688,5,1000,4,1,0,2,1,4,3,5,0,250.0,test,5,M
879.966020584,2,1000,0,1,0,2,1,4,3,5,0,250.0,test,2,M
736.086130142,4,1000,2,1,0,2,1,4,3,5,0,250.0,test,4,M
607.820034027,3,1000,5,1,0,2,1,4,3,5,0,250.0,test,3,M
640.076875687,4,1000,2,1,0,2,1,4,3,5,0,250.0,test,4,M
783.617019653,1,1000,3,1,0,2,1,4,3,5,0,250.0,test,1,M
543.957948685,1,1000,3,1,0,2,1,4,3,5,0,250.0,test,1,M
703.812122345,2,1000,0,1,0,2,1,4,3,5,0,250.0,test,2,M
3103.93810272,5,1000,4,1,0,2,1,4,3,5,0,250.0,test,5,M
895.738124847,1,1000,3,1,0,2,1,4,3,5,0,250.0,test,1,M
735.833883286,5,1000,4,1,0,2,1,4,3,5,0,250.0,test,5,M
719.998121262,3,1000,5,1,0,2,1,4,3,5,0,250.0,test,3,M
1247.88689613,1,1000,3,1,0,2,1,4,3,5,0,250.0,test,1,M
496.444940567,1,1000,3,1,0,2,1,4,3,5,0,250.0,test,1,M
431.772947311,0,1000,1,1,0,2,1,4,3,5,0,250.0,test,0,M
863.611936569,4,1000,2,1,0,2,1,4,3,5,0,250.0,test,4,M
736.464977264,3,1000,5,1,0,2,1,4,3,5,0,250.0,test,3,M
656.373023987,5,1000,4,1,0,2,1,4,3,5,0,250.0,test,5,M
623.912096024,1,1000,3,1,0,2,1,4,3,5,0,250.0,test,1,M
688.472032547,5,1000,4,1,0,2,1,4,3,5,0,250.0,test,5,M
480.642080307,5,1000,4,1,0,2,1,4,3,5,0,250.0,test,5,M
591.953039169,4,1000,2,1,0,2,1,4,3,5,0,250.0,test,4,M
688.201904297,1,1000,3,1,0,2,1,4,3,5,0,250.0,test,1,M
927.858114243,1,1000,3,1,0,2,1,4,3,5,0,250.0,test,1,M
607.794046402,3,1000,5,1,0,2,1,4,3,5,0,250.0,test,3,M
544.563055038,0,1000,1,1,0,2,1,4,3,5,0,250.0,test,0,M
768.401145935,3,1000,5,1,0,2,1,4,3,5,0,250.0,test,3,M
1455.960989,3,1000,5,1,0,2,1,4,3,5,0,250.0,test,3,M
671.559095383,4,1000,2,1,0,2,1,4,3,5,0,250.0,test,4,M
464.365005493,4,1000,2,1,0,2,1,4,3,5,0,250.0,test,4,M
559.742927551,3,1000,5,1,0,2,1,4,3,5,0,250.0,test,3,M
591.858863831,2,1000,0,1,0,2,1,4,3,5,0,250.0,test,2,M
784.046888351,0,1000,1,1,0,2,1,4,3,5,0,250.0,test,0,M
687.59894371,2,1000,0,1,0,2,1,4,3,5,0,250.0,test,2,M
639.897108078,3,1000,5,1,0,2,1,4,3,5,0,250.0,test,3,M
880.172014236,3,1000,5,1,0,2,1,4,3,5,0,250.0,test,3,M
559.935092926,5,1000,4,1,0,2,1,4,3,5,0,250.0,test,5,M
591.758012772,1,1000,3,1,0,2,1,4,3,5,0,250.0,test,1,M
543.920040131,4,1000,2,0,0,2,1,4,3,5,0,250.0,test,3,M
591.986894608,1,1000,3,1,0,2,1,4,3,5,0,250.0,test,1,M
543.851137161,0,1000,1,1,0,2,1,4,3,5,0,250.0,test,0,M
543.841123581,4,1000,2,1,0,2,1,4,3,5,0,250.0,test,4,M
719.859838486,1,1000,3,1,0,2,1,4,3,5,0,250.0,test,1,M
640.168190002,4,1000,2,1,0,2,1,4,3,5,0,250.0,test,4,M
607.959032059,0,1000,1,1,0,2,1,4,3,5,0,250.0,test,0,M
607.863903046,1,1000,3,1,0,2,1,4,3,5,0,250.0,test,1,M
655.662059784,2,1000,0,1,0,2,1,4,3,5,0,250.0,test,2,M
544.903039932,2,1000,0,1,0,2,1,4,3,5,0,250.0,test,2,M
656.332015991,5,1000,4,1,0,2,1,4,3,5,0,250.0,test,5,M
528.289079666,0,1000,1,1,0,2,1,4,3,5,0,250.0,test,0,M
560.712099075,4,1000,2,1,0,2,1,4,3,5,0,250.0,test,4,M
560.151100159,1,1000,3,0,0,2,1,4,3,5,0,250.0,test,2,M
640.326023102,5,1000,4,1,0,2,1,4,3,5,0,250.0,test,5,M
656.444072723,1,1000,3,1,0,2,1,4,3,5,0,250.0,test,1,M
816.437959671,3,1000,5,1,0,2,1,4,3,5,0,250.0,test,3,M
560.292959213,1,1000,3,1,0,2,1,4,3,5,0,250.0,test,1,M
592.359781265,3,1000,5,1,0,2,1,4,3,5,0,250.0,test,3,M
624.43113327,1,1000,3,1,0,2,1,4,3,5,0,250.0,test,1,M
1120.59903145,2,1000,0,1,0,2,1,4,3,5,0,250.0,test,2,M
560.408115387,3,1000,5,1,0,2,1,4,3,5,0,250.0,test,3,M
624.364852905,2,1000,0,1,0,2,1,4,3,5,0,250.0,test,2,M
608.422994614,0,1000,1,1,0,2,1,4,3,5,0,250.0,test,0,M
592.371940613,3,1000,5,1,0,2,1,4,3,5,0,250.0,test,3,M
592.439174652,1,1000,3,1,0,2,1,4,3,5,0,250.0,test,1,M
640.292167664,2,1000,0,1,0,2,1,4,3,5,0,250.0,test,2,M
624.321937561,4,1000,2,1,0,2,1,4,3,5,0,250.0,test,4,M
544.435024261,4,1000,2,1,0,2,1,4,3,5,0,250.0,test,4,M
784.517049789,3,1000,5,1,0,2,1,4,3,5,0,250.0,test,3,M
592.427968979,1,1000,3,1,0,2,1,4,3,5,0,250.0,test,1,M
784.558057785,1,1000,3,1,0,2,1,4,3,5,0,250.0,test,1,M
592.360973358,0,1000,1,1,0,2,1,4,3,5,0,250.0,test,0,M
560.348987579,1,1000,3,1,0,2,1,4,3,5,0,250.0,test,1,M
640.403985977,3,1000,5,1,0,2,1,4,3,5,0,250.0,test,3,M
752.52199173,2,1000,0,1,0,2,1,4,3,5,0,250.0,test,2,M
1296.38910294,3,1000,5,1,0,2,1,4,3,5,0,250.0,test,3,M
576.406955719,0,1000,1,1,0,2,1,4,3,5,0,250.0,test,0,M
592.365026474,5,1000,4,1,0,2,1,4,3,5,0,250.0,test,5,M
736.446142197,0,1000,1,1,0,2,1,4,3,5,0,250.0,test,0,M
624.007940292,3,1000,5,1,0,2,1,4,3,5,0,250.0,test,3,M
528.413057327,3,1000,5,1,0,2,1,4,3,5,0,250.0,test,3,M
543.946027756,0,1000,1,1,0,2,1,4,3,5,0,250.0,test,0,M
592.355966568,2,1000,0,1,0,2,1,4,3,5,0,250.0,test,2,M
896.107196808,5,1000,4,1,0,2,1,4,3,5,0,250.0,test,5,M
592.476129532,2,1000,0,1,0,2,1,4,3,5,0,250.0,test,2,M
544.298887253,3,1000,5,1,0,2,1,4,3,5,0,250.0,test,3,M
591.920852661,5,1000,4,1,0,2,1,4,3,5,0,250.0,test,5,M
592.02504158,3,1000,5,1,0,2,1,4,3,5,0,250.0,test,3,M
544.723033905,0,1000,1,1,0,2,1,4,3,5,0,250.0,test,0,M
592.23985672,0,1000,1,1,0,2,1,4,3,5,0,250.0,test,0,M
784.636974335,2,1000,0,1,0,2,1,4,3,5,0,250.0,test,2,M
816.169977188,4,1000,2,1,0,2,1,4,3,5,0,250.0,test,4,M
672.744989395,5,1000,4,1,0,2,1,4,3,5,0,250.0,test,5,M
848.721027374,4,1000,2,1,0,2,1,4,3,5,0,250.0,test,4,M
976.787805557,2,1000,0,1,0,2,1,4,3,5,0,250.0,test,2,M
720.659971237,1,1000,3,1,0,2,1,4,3,5,0,250.0,test,1,M
575.891017914,4,1000,2,1,0,2,1,4,3,5,0,250.0,test,4,M
527.961015701,4,1000,2,1,0,2,1,4,3,5,0,250.0,test,4,M
