RT,correct_response,ms-prestimblank,curstim,correct,SRmap_1,SRmap_0,SRmap_3,SRmap_2,SRmap_5,SRmap_4,ms-precue,ntrials,type,response,condition
1017.98510551,1,1000,3,1,0,5,1,3,2,4,0,250.0,train,1,M
602.285861969,0,1000,1,1,0,5,1,3,2,4,0,250.0,train,0,M
554.490089417,3,1000,2,1,0,5,1,3,2,4,0,250.0,train,3,M
410.382032394,2,1000,5,0,0,5,1,3,2,4,0,250.0,train,1,M
762.392997742,4,1000,4,1,0,5,1,3,2,4,0,250.0,train,4,M
538.419008255,1,1000,3,1,0,5,1,3,2,4,0,250.0,train,1,M
459.90896225,2,1000,5,1,0,5,1,3,2,4,0,250.0,train,2,M
443.940877914,0,1000,1,1,0,5,1,3,2,4,0,250.0,train,0,M
602.532148361,1,1000,3,1,0,5,1,3,2,4,0,250.0,train,1,M
442.375898361,0,1000,1,1,0,5,1,3,2,4,0,250.0,train,0,M
363.969087601,2,1000,5,1,0,5,1,3,2,4,0,250.0,train,2,M
427.850961685,1,1000,3,1,0,5,1,3,2,4,0,250.0,train,1,M
474.498987198,1,1000,3,1,0,5,1,3,2,4,0,250.0,train,1,M
649.212837219,5,1000,0,1,0,5,1,3,2,4,0,250.0,train,5,M
635.890007019,3,1000,2,1,0,5,1,3,2,4,0,250.0,train,3,M
442.492008209,1,1000,3,1,0,5,1,3,2,4,0,250.0,train,1,M
442.443847656,2,1000,5,1,0,5,1,3,2,4,0,250.0,train,2,M
378.455162048,1,1000,3,1,0,5,1,3,2,4,0,250.0,train,1,M
410.538196564,1,1000,3,1,0,5,1,3,2,4,0,250.0,train,1,M
411.870002747,2,1000,5,1,0,5,1,3,2,4,0,250.0,train,2,M
443.969964981,3,1000,2,0,0,5,1,3,2,4,0,250.0,train,2,M
506.518125534,1,1000,3,1,0,5,1,3,2,4,0,250.0,train,1,M
475.949048996,0,1000,1,1,0,5,1,3,2,4,0,250.0,train,0,M
506.091117859,5,1000,0,1,0,5,1,3,2,4,0,250.0,train,5,M
618.500947952,4,1000,4,1,0,5,1,3,2,4,0,250.0,train,4,M
363.941907883,5,1000,0,1,0,5,1,3,2,4,0,250.0,train,5,M
523.674964905,2,1000,5,0,0,5,1,3,2,4,0,250.0,train,1,M
522.600889206,2,1000,5,1,0,5,1,3,2,4,0,250.0,train,2,M
426.497936249,1,1000,3,1,0,5,1,3,2,4,0,250.0,train,1,M
587.881088257,2,1000,5,1,0,5,1,3,2,4,0,250.0,train,2,M
826.550006866,5,1000,0,1,0,5,1,3,2,4,0,250.0,train,5,M
491.112947464,4,1000,4,1,0,5,1,3,2,4,0,250.0,train,4,M
426.57494545,2,1000,5,1,0,5,1,3,2,4,0,250.0,train,2,M
443.125009537,2,1000,5,1,0,5,1,3,2,4,0,250.0,train,2,M
602.586984634,4,1000,4,1,0,5,1,3,2,4,0,250.0,train,4,M
490.646839142,1,1000,3,1,0,5,1,3,2,4,0,250.0,train,1,M
458.583116531,0,1000,1,1,0,5,1,3,2,4,0,250.0,train,0,M
731.178998947,4,1000,4,1,0,5,1,3,2,4,0,250.0,train,4,M
538.48695755,1,1000,3,1,0,5,1,3,2,4,0,250.0,train,1,M
427.106142044,0,1000,1,1,0,5,1,3,2,4,0,250.0,train,0,M
412.009000778,0,1000,1,1,0,5,1,3,2,4,0,250.0,train,0,M
443.109035492,2,1000,5,1,0,5,1,3,2,4,0,250.0,train,2,M
444.021940231,2,1000,5,1,0,5,1,3,2,4,0,250.0,train,2,M
410.463094711,2,1000,5,1,0,5,1,3,2,4,0,250.0,train,2,M
410.409927368,1,1000,3,1,0,5,1,3,2,4,0,250.0,train,1,M
411.078214645,1,1000,3,1,0,5,1,3,2,4,0,250.0,train,1,M
554.453134537,5,1000,0,1,0,5,1,3,2,4,0,250.0,train,5,M
410.992860794,5,1000,0,1,0,5,1,3,2,4,0,250.0,train,5,M
506.516933441,3,1000,2,1,0,5,1,3,2,4,0,250.0,train,3,M
394.523859024,4,1000,4,1,0,5,1,3,2,4,0,250.0,train,4,M
442.415952682,2,1000,5,1,0,5,1,3,2,4,0,250.0,train,2,M
475.079059601,5,1000,0,1,0,5,1,3,2,4,0,250.0,train,5,M
442.541122437,1,1000,3,1,0,5,1,3,2,4,0,250.0,train,1,M
475.103855133,5,1000,0,1,0,5,1,3,2,4,0,250.0,train,5,M
524.660110474,4,1000,4,1,0,5,1,3,2,4,0,250.0,train,4,M
459.084033966,1,1000,3,1,0,5,1,3,2,4,0,250.0,train,1,M
506.566047668,4,1000,4,1,0,5,1,3,2,4,0,250.0,train,4,M
523.897886276,4,1000,4,1,0,5,1,3,2,4,0,250.0,train,4,M
347.187042236,4,1000,4,1,0,5,1,3,2,4,0,250.0,train,4,M
490.583181381,1,1000,3,1,0,5,1,3,2,4,0,250.0,train,1,M
315.937995911,2,1000,5,0,0,5,1,3,2,4,0,250.0,train,1,M
378.540992737,1,1000,3,1,0,5,1,3,2,4,0,250.0,train,1,M
410.615205765,1,1000,3,1,0,5,1,3,2,4,0,250.0,train,1,M
522.610902786,5,1000,0,1,0,5,1,3,2,4,0,250.0,train,5,M
442.32916832,2,1000,5,0,0,5,1,3,2,4,0,250.0,train,1,M
778.594970703,3,1000,2,1,0,5,1,3,2,4,0,250.0,train,3,M
618.574142456,2,1000,5,1,0,5,1,3,2,4,0,250.0,train,2,M
410.604000092,2,1000,5,1,0,5,1,3,2,4,0,250.0,train,2,M
458.542108536,1,1000,3,1,0,5,1,3,2,4,0,250.0,train,1,M
490.566015244,2,1000,5,1,0,5,1,3,2,4,0,250.0,train,2,M
490.631103516,1,1000,3,1,0,5,1,3,2,4,0,250.0,train,1,M
719.926118851,4,1000,4,1,0,5,1,3,2,4,0,250.0,train,4,M
650.650978088,3,1000,2,1,0,5,1,3,2,4,0,250.0,train,3,M
634.435892105,2,1000,5,1,0,5,1,3,2,4,0,250.0,train,2,M
474.920988083,0,1000,1,1,0,5,1,3,2,4,0,250.0,train,0,M
348.030090332,0,1000,1,1,0,5,1,3,2,4,0,250.0,train,0,M
619.053840637,4,1000,4,1,0,5,1,3,2,4,0,250.0,train,4,M
522.413015366,2,1000,5,1,0,5,1,3,2,4,0,250.0,train,2,M
395.077943802,2,1000,5,1,0,5,1,3,2,4,0,250.0,train,2,M
348.026990891,3,1000,2,1,0,5,1,3,2,4,0,250.0,train,3,M
395.487070084,3,1000,2,1,0,5,1,3,2,4,0,250.0,train,3,M
474.358081818,5,1000,0,1,0,5,1,3,2,4,0,250.0,train,5,M
442.99697876,5,1000,0,1,0,5,1,3,2,4,0,250.0,train,5,M
410.356998444,0,1000,1,0,0,5,1,3,2,4,0,250.0,train,3,M
618.385076523,5,1000,0,1,0,5,1,3,2,4,0,250.0,train,5,M
506.504058838,2,1000,5,1,0,5,1,3,2,4,0,250.0,train,2,M
410.414934158,2,1000,5,1,0,5,1,3,2,4,0,250.0,train,2,M
410.547018051,1,1000,3,1,0,5,1,3,2,4,0,250.0,train,1,M
491.972923279,5,1000,0,1,0,5,1,3,2,4,0,250.0,train,5,M
507.975816727,0,1000,1,1,0,5,1,3,2,4,0,250.0,train,0,M
395.970106125,0,1000,1,1,0,5,1,3,2,4,0,250.0,train,0,M
427.873134613,1,1000,3,1,0,5,1,3,2,4,0,250.0,train,1,M
426.461935043,0,1000,1,1,0,5,1,3,2,4,0,250.0,train,0,M
458.546161652,5,1000,0,1,0,5,1,3,2,4,0,250.0,train,5,M
491.967201233,1,1000,3,1,0,5,1,3,2,4,0,250.0,train,1,M
587.805986404,4,1000,4,1,0,5,1,3,2,4,0,250.0,train,4,M
442.572116852,5,1000,0,1,0,5,1,3,2,4,0,250.0,train,5,M
411.849021912,5,1000,0,1,0,5,1,3,2,4,0,250.0,train,5,M
458.502054214,5,1000,0,1,0,5,1,3,2,4,0,250.0,train,5,M
490.519046783,2,1000,5,1,0,5,1,3,2,4,0,250.0,train,2,M
617.356061935,4,1000,4,1,0,5,1,3,2,4,0,250.0,train,4,M
506.567955017,1,1000,3,1,0,5,1,3,2,4,0,250.0,train,1,M
651.185035706,5,1000,0,1,0,5,1,3,2,4,0,250.0,train,5,M
394.604921341,4,1000,4,0,0,5,1,3,2,4,0,250.0,train,5,M
474.653959274,1,1000,3,1,0,5,1,3,2,4,0,250.0,train,1,M
458.516120911,2,1000,5,1,0,5,1,3,2,4,0,250.0,train,2,M
554.525136948,3,1000,2,1,0,5,1,3,2,4,0,250.0,train,3,M
506.438970566,2,1000,5,1,0,5,1,3,2,4,0,250.0,train,2,M
458.544969559,3,1000,2,1,0,5,1,3,2,4,0,250.0,train,3,M
442.538022995,2,1000,5,0,0,5,1,3,2,4,0,250.0,train,1,M
666.409015656,3,1000,2,1,0,5,1,3,2,4,0,250.0,train,3,M
650.473833084,2,1000,5,1,0,5,1,3,2,4,0,250.0,train,2,M
474.526166916,1,1000,3,1,0,5,1,3,2,4,0,250.0,train,1,M
634.487867355,4,1000,4,0,0,5,1,3,2,4,0,250.0,train,3,M
601.191997528,3,1000,2,1,0,5,1,3,2,4,0,250.0,train,3,M
538.959980011,2,1000,5,1,0,5,1,3,2,4,0,250.0,train,2,M
554.485082626,5,1000,0,1,0,5,1,3,2,4,0,250.0,train,5,M
506.451129913,5,1000,0,1,0,5,1,3,2,4,0,250.0,train,5,M
506.453037262,2,1000,5,1,0,5,1,3,2,4,0,250.0,train,2,M
554.478168488,1,1000,3,1,0,5,1,3,2,4,0,250.0,train,1,M
666.487932205,4,1000,4,1,0,5,1,3,2,4,0,250.0,train,4,M
538.4349823,5,1000,0,1,0,5,1,3,2,4,0,250.0,train,5,M
427.073001862,0,1000,1,1,0,5,1,3,2,4,0,250.0,train,0,M
363.849878311,1,1000,3,1,0,5,1,3,2,4,0,250.0,train,1,M
395.092964172,0,1000,1,1,0,5,1,3,2,4,0,250.0,train,0,M
458.63699913,4,1000,4,0,0,5,1,3,2,4,0,250.0,train,5,M
586.550951004,5,1000,0,1,0,5,1,3,2,4,0,250.0,train,5,M
490.448951721,0,1000,1,1,0,5,1,3,2,4,0,250.0,train,0,M
555.099010468,2,1000,5,1,0,5,1,3,2,4,0,250.0,train,2,M
506.482124329,1,1000,3,1,0,5,1,3,2,4,0,250.0,train,1,M
555.365085602,1,1000,3,1,0,5,1,3,2,4,0,250.0,train,1,M
474.561214447,1,1000,3,1,0,5,1,3,2,4,0,250.0,train,1,M
490.561962128,2,1000,5,1,0,5,1,3,2,4,0,250.0,train,2,M
635.928153992,4,1000,4,1,0,5,1,3,2,4,0,250.0,train,4,M
490.597009659,4,1000,4,1,0,5,1,3,2,4,0,250.0,train,4,M
410.60090065,4,1000,4,1,0,5,1,3,2,4,0,250.0,train,4,M
330.557107925,5,1000,0,1,0,5,1,3,2,4,0,250.0,train,5,M
538.565158844,2,1000,5,1,0,5,1,3,2,4,0,250.0,train,2,M
714.846134186,4,1000,4,1,0,5,1,3,2,4,0,250.0,train,4,M
394.479036331,4,1000,4,1,0,5,1,3,2,4,0,250.0,train,4,M
683.151006699,1,1000,3,1,0,5,1,3,2,4,0,250.0,train,1,M
362.996101379,0,1000,1,1,0,5,1,3,2,4,0,250.0,train,0,M
507.970094681,2,1000,5,1,0,5,1,3,2,4,0,250.0,train,2,M
554.427146912,2,1000,5,1,0,5,1,3,2,4,0,250.0,train,2,M
683.046102524,3,1000,2,1,0,5,1,3,2,4,0,250.0,train,3,M
378.51691246,1,1000,3,1,0,5,1,3,2,4,0,250.0,train,1,M
362.982988358,1,1000,3,1,0,5,1,3,2,4,0,250.0,train,1,M
362.451791763,1,1000,3,1,0,5,1,3,2,4,0,250.0,train,1,M
379.046201706,2,1000,5,0,0,5,1,3,2,4,0,250.0,train,1,M
474.442005157,0,1000,1,1,0,5,1,3,2,4,0,250.0,train,0,M
394.482135773,0,1000,1,1,0,5,1,3,2,4,0,250.0,train,0,M
394.477128983,0,1000,1,1,0,5,1,3,2,4,0,250.0,train,0,M
442.538022995,2,1000,5,1,0,5,1,3,2,4,0,250.0,train,2,M
666.509151459,5,1000,0,1,0,5,1,3,2,4,0,250.0,train,5,M
634.454011917,4,1000,4,1,0,5,1,3,2,4,0,250.0,train,4,M
683.952093124,2,1000,5,1,0,5,1,3,2,4,0,250.0,train,2,M
442.435026169,0,1000,1,1,0,5,1,3,2,4,0,250.0,train,0,M
603.785991669,5,1000,0,1,0,5,1,3,2,4,0,250.0,train,5,M
539.949893951,5,1000,0,1,0,5,1,3,2,4,0,250.0,train,5,M
523.790836334,1,1000,3,1,0,5,1,3,2,4,0,250.0,train,1,M
426.523208618,1,1000,3,1,0,5,1,3,2,4,0,250.0,train,1,M
426.549196243,2,1000,5,1,0,5,1,3,2,4,0,250.0,train,2,M
443.067073822,0,1000,1,1,0,5,1,3,2,4,0,250.0,train,0,M
634.464979172,3,1000,2,1,0,5,1,3,2,4,0,250.0,train,3,M
634.469032288,2,1000,5,1,0,5,1,3,2,4,0,250.0,train,2,M
410.582065582,0,1000,1,1,0,5,1,3,2,4,0,250.0,train,0,M
538.628816605,3,1000,2,1,0,5,1,3,2,4,0,250.0,train,3,M
538.558959961,4,1000,4,1,0,5,1,3,2,4,0,250.0,train,4,M
490.547180176,1,1000,3,1,0,5,1,3,2,4,0,250.0,train,1,M
410.544872284,0,1000,1,1,0,5,1,3,2,4,0,250.0,train,0,M
427.114009857,1,1000,3,1,0,5,1,3,2,4,0,250.0,train,1,M
602.535009384,3,1000,2,1,0,5,1,3,2,4,0,250.0,train,3,M
459.130048752,1,1000,3,1,0,5,1,3,2,4,0,250.0,train,1,M
778.460025787,3,1000,2,1,0,5,1,3,2,4,0,250.0,train,3,M
602.408885956,5,1000,0,1,0,5,1,3,2,4,0,250.0,train,5,M
523.777008057,3,1000,2,0,0,5,1,3,2,4,0,250.0,train,2,M
426.373004913,0,1000,1,1,0,5,1,3,2,4,0,250.0,train,0,M
474.413871765,1,1000,3,1,0,5,1,3,2,4,0,250.0,train,1,M
522.486925125,5,1000,0,1,0,5,1,3,2,4,0,250.0,train,5,M
603.757858276,2,1000,5,1,0,5,1,3,2,4,0,250.0,train,2,M
554.466962814,3,1000,2,1,0,5,1,3,2,4,0,250.0,train,3,M
603.811979294,2,1000,5,1,0,5,1,3,2,4,0,250.0,train,2,M
458.498001099,0,1000,1,1,0,5,1,3,2,4,0,250.0,train,0,M
522.485017776,1,1000,3,1,0,5,1,3,2,4,0,250.0,train,1,M
458.518028259,2,1000,5,1,0,5,1,3,2,4,0,250.0,train,2,M
458.458900452,1,1000,3,1,0,5,1,3,2,4,0,250.0,train,1,M
426.549196243,3,1000,2,0,0,5,1,3,2,4,0,250.0,train,2,M
459.911823273,1,1000,3,1,0,5,1,3,2,4,0,250.0,train,1,M
522.494077682,1,1000,3,1,0,5,1,3,2,4,0,250.0,train,1,M
540.946960449,5,1000,0,1,0,5,1,3,2,4,0,250.0,train,5,M
907.871007919,3,1000,2,1,0,5,1,3,2,4,0,250.0,train,3,M
635.009050369,3,1000,2,1,0,5,1,3,2,4,0,250.0,train,3,M
458.436965942,3,1000,2,1,0,5,1,3,2,4,0,250.0,train,3,M
474.553823471,3,1000,2,1,0,5,1,3,2,4,0,250.0,train,3,M
474.560976028,1,1000,3,1,0,5,1,3,2,4,0,250.0,train,1,M
426.555156708,0,1000,1,1,0,5,1,3,2,4,0,250.0,train,0,M
730.551958084,3,1000,2,1,0,5,1,3,2,4,0,250.0,train,3,M
538.522958755,0,1000,1,1,0,5,1,3,2,4,0,250.0,train,0,M
458.478927612,0,1000,1,1,0,5,1,3,2,4,0,250.0,train,0,M
602.489948273,2,1000,5,1,0,5,1,3,2,4,0,250.0,train,2,M
714.544773102,4,1000,4,1,0,5,1,3,2,4,0,250.0,train,4,M
522.574901581,5,1000,0,1,0,5,1,3,2,4,0,250.0,train,5,M
458.618164062,1,1000,3,1,0,5,1,3,2,4,0,250.0,train,1,M
634.668111801,2,1000,5,1,0,5,1,3,2,4,0,250.0,train,2,M
715.065956116,3,1000,2,1,0,5,1,3,2,4,0,250.0,train,3,M
458.482027054,3,1000,2,1,0,5,1,3,2,4,0,250.0,train,3,M
410.473823547,3,1000,2,1,0,5,1,3,2,4,0,250.0,train,3,M
459.547996521,0,1000,1,1,0,5,1,3,2,4,0,250.0,train,0,M
683.165788651,4,1000,4,1,0,5,1,3,2,4,0,250.0,train,4,M
602.509975433,2,1000,5,1,0,5,1,3,2,4,0,250.0,train,2,M
378.445863724,0,1000,1,1,0,5,1,3,2,4,0,250.0,train,0,M
586.390018463,3,1000,2,1,0,5,1,3,2,4,0,250.0,train,3,M
410.253047943,0,1000,1,1,0,5,1,3,2,4,0,250.0,train,0,M
331.887960434,1,1000,3,1,0,5,1,3,2,4,0,250.0,train,1,M
570.478916168,3,1000,2,1,0,5,1,3,2,4,0,250.0,train,3,M
442.33417511,1,1000,3,1,0,5,1,3,2,4,0,250.0,train,1,M
538.470983505,3,1000,2,1,0,5,1,3,2,4,0,250.0,train,3,M
394.469976425,0,1000,1,1,0,5,1,3,2,4,0,250.0,train,0,M
459.004878998,5,1000,0,1,0,5,1,3,2,4,0,250.0,train,5,M
651.980876923,2,1000,5,1,0,5,1,3,2,4,0,250.0,train,2,M
427.047967911,0,1000,1,1,0,5,1,3,2,4,0,250.0,train,0,M
395.811080933,0,1000,1,1,0,5,1,3,2,4,0,250.0,train,0,M
443.024158478,0,1000,1,1,0,5,1,3,2,4,0,250.0,train,0,M
459.953069687,5,1000,0,1,0,5,1,3,2,4,0,250.0,train,5,M
699.939012527,3,1000,2,0,0,5,1,3,2,4,0,250.0,train,2,M
538.254976273,4,1000,4,1,0,5,1,3,2,4,0,250.0,train,4,M
522.619009018,5,1000,0,1,0,5,1,3,2,4,0,250.0,train,5,M
586.574077606,4,1000,4,1,0,5,1,3,2,4,0,250.0,train,4,M
522.588968277,3,1000,2,1,0,5,1,3,2,4,0,250.0,train,3,M
506.539821625,0,1000,1,1,0,5,1,3,2,4,0,250.0,train,0,M
586.585044861,5,1000,0,1,0,5,1,3,2,4,0,250.0,train,5,M
570.53899765,1,1000,3,1,0,5,1,3,2,4,0,250.0,train,1,M
458.54306221,0,1000,1,1,0,5,1,3,2,4,0,250.0,train,0,M
714.551925659,4,1000,4,0,0,5,1,3,2,4,0,250.0,train,5,M
987.920999527,3,1000,2,1,0,5,1,3,2,4,0,250.0,train,3,M
507.111787796,3,1000,2,1,0,5,1,3,2,4,0,250.0,train,3,M
426.553964615,4,1000,4,1,0,5,1,3,2,4,0,250.0,train,4,M
522.948980331,1,1000,3,1,0,5,1,3,2,4,0,250.0,train,1,M
410.29882431,1,1000,3,1,0,5,1,3,2,4,0,250.0,train,1,M
362.512111664,0,1000,1,1,0,5,1,3,2,4,0,250.0,train,0,M
603.975057602,3,1000,2,1,0,5,1,3,2,4,0,250.0,train,3,M
538.388967514,4,1000,4,1,0,5,1,3,2,4,0,250.0,train,4,M
538.405895233,5,1000,0,1,0,5,1,3,2,4,0,250.0,train,5,M
619.961977005,1,1000,3,1,0,5,1,3,2,4,0,250.0,train,1,M
602.390050888,5,1000,0,1,0,5,1,3,2,4,0,250.0,train,5,M
426.395177841,0,1000,1,1,0,5,1,3,2,4,0,250.0,train,0,M
490.530014038,5,1000,0,1,0,5,1,3,2,4,0,250.0,train,5,M
426.379203796,5,1000,0,1,0,5,1,3,2,4,0,250.0,train,5,M
570.280790329,3,1000,2,0,0,5,1,3,2,4,0,250.0,train,2,M
570.359945297,3,1000,2,1,0,5,1,3,2,4,0,250.0,train,3,M
4123.6281395,3,1000,2,1,0,5,1,3,2,4,0,250.0,test,3,M
1947.70002365,1,1000,3,0,0,5,1,3,2,4,0,250.0,test,2,M
875.336170197,1,1000,3,1,0,5,1,3,2,4,0,250.0,test,1,M
1083.74381065,1,1000,3,1,0,5,1,3,2,4,0,250.0,test,1,M
666.314840317,1,1000,3,1,0,5,1,3,2,4,0,250.0,test,1,M
810.256958008,1,1000,3,1,0,5,1,3,2,4,0,250.0,test,1,M
858.905076981,0,1000,1,1,0,5,1,3,2,4,0,250.0,test,0,M
714.372873306,1,1000,3,1,0,5,1,3,2,4,0,250.0,test,1,M
506.317853928,1,1000,3,1,0,5,1,3,2,4,0,250.0,test,1,M
1306.28585815,5,1000,0,1,0,5,1,3,2,4,0,250.0,test,5,M
2714.43295479,5,1000,0,1,0,5,1,3,2,4,0,250.0,test,5,M
458.31990242,3,1000,2,0,0,5,1,3,2,4,0,250.0,test,5,M
1050.33993721,5,1000,0,1,0,5,1,3,2,4,0,250.0,test,5,M
922.326803207,4,1000,4,1,0,5,1,3,2,4,0,250.0,test,4,M
1178.41100693,4,1000,4,1,0,5,1,3,2,4,0,250.0,test,4,M
794.28601265,1,1000,3,1,0,5,1,3,2,4,0,250.0,test,1,M
1227.83088684,0,1000,1,1,0,5,1,3,2,4,0,250.0,test,0,M
1690.39297104,4,1000,4,1,0,5,1,3,2,4,0,250.0,test,4,M
1579.68115807,3,1000,2,1,0,5,1,3,2,4,0,250.0,test,3,M
1802.93393135,5,1000,0,1,0,5,1,3,2,4,0,250.0,test,5,M
1370.31602859,2,1000,5,1,0,5,1,3,2,4,0,250.0,test,2,M
1306.33592606,5,1000,0,1,0,5,1,3,2,4,0,250.0,test,5,M
1162.31298447,0,1000,1,1,0,5,1,3,2,4,0,250.0,test,0,M
1018.88489723,2,1000,5,1,0,5,1,3,2,4,0,250.0,test,2,M
699.708938599,1,1000,3,1,0,5,1,3,2,4,0,250.0,test,1,M
875.782012939,2,1000,5,1,0,5,1,3,2,4,0,250.0,test,2,M
763.720035553,1,1000,3,1,0,5,1,3,2,4,0,250.0,test,1,M
794.372081757,3,1000,2,1,0,5,1,3,2,4,0,250.0,test,3,M
843.683004379,5,1000,0,1,0,5,1,3,2,4,0,250.0,test,5,M
554.254055023,4,1000,4,1,0,5,1,3,2,4,0,250.0,test,4,M
475.718021393,3,1000,2,1,0,5,1,3,2,4,0,250.0,test,3,M
634.392976761,3,1000,2,0,0,5,1,3,2,4,0,250.0,test,5,M
683.723926544,4,1000,4,1,0,5,1,3,2,4,0,250.0,test,4,M
842.842102051,1,1000,3,1,0,5,1,3,2,4,0,250.0,test,1,M
1019.74606514,1,1000,3,1,0,5,1,3,2,4,0,250.0,test,1,M
618.332862854,0,1000,1,1,0,5,1,3,2,4,0,250.0,test,0,M
666.3210392,2,1000,5,0,0,5,1,3,2,4,0,250.0,test,1,M
554.408073425,0,1000,1,1,0,5,1,3,2,4,0,250.0,test,0,M
586.302042007,1,1000,3,1,0,5,1,3,2,4,0,250.0,test,1,M
602.339982986,0,1000,1,1,0,5,1,3,2,4,0,250.0,test,0,M
762.317895889,1,1000,3,1,0,5,1,3,2,4,0,250.0,test,1,M
778.303861618,3,1000,2,1,0,5,1,3,2,4,0,250.0,test,3,M
874.313831329,3,1000,2,1,0,5,1,3,2,4,0,250.0,test,3,M
826.873779297,2,1000,5,1,0,5,1,3,2,4,0,250.0,test,2,M
1130.26404381,2,1000,5,1,0,5,1,3,2,4,0,250.0,test,2,M
650.252103806,4,1000,4,1,0,5,1,3,2,4,0,250.0,test,4,M
939.800977707,5,1000,0,1,0,5,1,3,2,4,0,250.0,test,5,M
779.718875885,3,1000,2,1,0,5,1,3,2,4,0,250.0,test,3,M
1210.35003662,1,1000,3,1,0,5,1,3,2,4,0,250.0,test,1,M
698.36807251,3,1000,2,1,0,5,1,3,2,4,0,250.0,test,3,M
587.53490448,0,1000,1,1,0,5,1,3,2,4,0,250.0,test,0,M
1098.36912155,1,1000,3,1,0,5,1,3,2,4,0,250.0,test,1,M
474.184036255,1,1000,3,1,0,5,1,3,2,4,0,250.0,test,1,M
970.796823502,5,1000,0,1,0,5,1,3,2,4,0,250.0,test,5,M
586.292028427,4,1000,4,1,0,5,1,3,2,4,0,250.0,test,4,M
970.300197601,2,1000,5,1,0,5,1,3,2,4,0,250.0,test,2,M
890.295028687,5,1000,0,1,0,5,1,3,2,4,0,250.0,test,5,M
570.255041122,0,1000,1,1,0,5,1,3,2,4,0,250.0,test,0,M
953.8230896,4,1000,4,1,0,5,1,3,2,4,0,250.0,test,4,M
539.777994156,4,1000,4,1,0,5,1,3,2,4,0,250.0,test,4,M
667.783021927,2,1000,5,1,0,5,1,3,2,4,0,250.0,test,2,M
553.021907806,2,1000,5,1,0,5,1,3,2,4,0,250.0,test,2,M
955.770015717,4,1000,4,1,0,5,1,3,2,4,0,250.0,test,4,M
730.364084244,2,1000,5,1,0,5,1,3,2,4,0,250.0,test,2,M
1210.93893051,4,1000,4,1,0,5,1,3,2,4,0,250.0,test,4,M
618.358135223,0,1000,1,1,0,5,1,3,2,4,0,250.0,test,0,M
1114.28499222,1,1000,3,1,0,5,1,3,2,4,0,250.0,test,1,M
666.359186172,3,1000,2,1,0,5,1,3,2,4,0,250.0,test,3,M
682.373046875,2,1000,5,1,0,5,1,3,2,4,0,250.0,test,2,M
618.347883224,5,1000,0,1,0,5,1,3,2,4,0,250.0,test,5,M
538.363933563,4,1000,4,1,0,5,1,3,2,4,0,250.0,test,4,M
1114.41922188,3,1000,2,1,0,5,1,3,2,4,0,250.0,test,3,M
874.387979507,5,1000,0,0,0,5,1,3,2,4,0,250.0,test,4,M
554.317951202,0,1000,1,1,0,5,1,3,2,4,0,250.0,test,0,M
810.625076294,2,1000,5,1,0,5,1,3,2,4,0,250.0,test,2,M
874.347925186,4,1000,4,1,0,5,1,3,2,4,0,250.0,test,4,M
698.871135712,2,1000,5,1,0,5,1,3,2,4,0,250.0,test,2,M
970.392942429,5,1000,0,1,0,5,1,3,2,4,0,250.0,test,5,M
651.767015457,1,1000,3,1,0,5,1,3,2,4,0,250.0,test,1,M
955.817222595,4,1000,4,1,0,5,1,3,2,4,0,250.0,test,4,M
874.351978302,2,1000,5,1,0,5,1,3,2,4,0,250.0,test,2,M
795.601129532,1,1000,3,1,0,5,1,3,2,4,0,250.0,test,1,M
970.325946808,0,1000,1,1,0,5,1,3,2,4,0,250.0,test,0,M
586.265802383,0,1000,1,1,0,5,1,3,2,4,0,250.0,test,0,M
810.256958008,5,1000,0,1,0,5,1,3,2,4,0,250.0,test,5,M
666.216135025,4,1000,4,1,0,5,1,3,2,4,0,250.0,test,4,M
634.323835373,1,1000,3,1,0,5,1,3,2,4,0,250.0,test,1,M
698.348045349,3,1000,2,1,0,5,1,3,2,4,0,250.0,test,3,M
873.095989227,5,1000,0,1,0,5,1,3,2,4,0,250.0,test,5,M
602.246999741,1,1000,3,1,0,5,1,3,2,4,0,250.0,test,1,M
714.324951172,2,1000,5,1,0,5,1,3,2,4,0,250.0,test,2,M
570.370912552,3,1000,2,1,0,5,1,3,2,4,0,250.0,test,3,M
539.870023727,0,1000,1,1,0,5,1,3,2,4,0,250.0,test,0,M
539.687156677,0,1000,1,1,0,5,1,3,2,4,0,250.0,test,0,M
634.318828583,5,1000,0,1,0,5,1,3,2,4,0,250.0,test,5,M
586.111068726,0,1000,1,1,0,5,1,3,2,4,0,250.0,test,0,M
602.444887161,2,1000,5,1,0,5,1,3,2,4,0,250.0,test,2,M
586.361885071,0,1000,1,1,0,5,1,3,2,4,0,250.0,test,0,M
714.361906052,2,1000,5,1,0,5,1,3,2,4,0,250.0,test,2,M
698.330879211,3,1000,2,1,0,5,1,3,2,4,0,250.0,test,3,M
826.370954514,5,1000,0,1,0,5,1,3,2,4,0,250.0,test,5,M
490.266084671,4,1000,4,1,0,5,1,3,2,4,0,250.0,test,4,M
730.941057205,3,1000,2,1,0,5,1,3,2,4,0,250.0,test,3,M
825.071811676,5,1000,0,1,0,5,1,3,2,4,0,250.0,test,5,M
618.377923965,3,1000,2,1,0,5,1,3,2,4,0,250.0,test,3,M
586.246013641,0,1000,1,1,0,5,1,3,2,4,0,250.0,test,0,M
730.419158936,3,1000,2,1,0,5,1,3,2,4,0,250.0,test,3,M
1034.34491158,1,1000,3,1,0,5,1,3,2,4,0,250.0,test,1,M
714.998006821,2,1000,5,1,0,5,1,3,2,4,0,250.0,test,2,M
538.507938385,0,1000,1,1,0,5,1,3,2,4,0,250.0,test,0,M
875.629901886,4,1000,4,1,0,5,1,3,2,4,0,250.0,test,4,M
922.847032547,4,1000,4,1,0,5,1,3,2,4,0,250.0,test,4,M
602.33092308,0,1000,1,1,0,5,1,3,2,4,0,250.0,test,0,M
427.713871002,0,1000,1,1,0,5,1,3,2,4,0,250.0,test,0,M
763.756990433,5,1000,0,1,0,5,1,3,2,4,0,250.0,test,5,M
458.235025406,2,1000,5,1,0,5,1,3,2,4,0,250.0,test,2,M
618.235826492,5,1000,0,1,0,5,1,3,2,4,0,250.0,test,5,M
618.305921555,3,1000,2,1,0,5,1,3,2,4,0,250.0,test,3,M
587.526082993,2,1000,5,1,0,5,1,3,2,4,0,250.0,test,2,M
650.334835052,4,1000,4,1,0,5,1,3,2,4,0,250.0,test,4,M
842.191934586,4,1000,4,0,0,5,1,3,2,4,0,250.0,test,5,M
650.30503273,2,1000,5,1,0,5,1,3,2,4,0,250.0,test,2,M
682.332992554,5,1000,0,1,0,5,1,3,2,4,0,250.0,test,5,M
698.338031769,1,1000,3,1,0,5,1,3,2,4,0,250.0,test,1,M
555.343866348,0,1000,1,1,0,5,1,3,2,4,0,250.0,test,0,M
1050.33016205,5,1000,0,1,0,5,1,3,2,4,0,250.0,test,5,M
763.809919357,2,1000,5,1,0,5,1,3,2,4,0,250.0,test,2,M
554.905891418,4,1000,4,1,0,5,1,3,2,4,0,250.0,test,4,M
651.774168015,5,1000,0,1,0,5,1,3,2,4,0,250.0,test,5,M
570.91999054,2,1000,5,1,0,5,1,3,2,4,0,250.0,test,2,M
859.846830368,4,1000,4,1,0,5,1,3,2,4,0,250.0,test,4,M
474.215984344,3,1000,2,1,0,5,1,3,2,4,0,250.0,test,3,M
858.355998993,5,1000,0,1,0,5,1,3,2,4,0,250.0,test,5,M
618.448019028,4,1000,4,1,0,5,1,3,2,4,0,250.0,test,4,M
490.297079086,0,1000,1,1,0,5,1,3,2,4,0,250.0,test,0,M
634.848833084,4,1000,4,1,0,5,1,3,2,4,0,250.0,test,4,M
682.286024094,1,1000,3,1,0,5,1,3,2,4,0,250.0,test,1,M
634.41491127,2,1000,5,1,0,5,1,3,2,4,0,250.0,test,2,M
538.379192352,3,1000,2,1,0,5,1,3,2,4,0,250.0,test,3,M
586.480855942,0,1000,1,1,0,5,1,3,2,4,0,250.0,test,0,M
617.208003998,3,1000,2,1,0,5,1,3,2,4,0,250.0,test,3,M
506.378889084,1,1000,3,1,0,5,1,3,2,4,0,250.0,test,1,M
666.351795197,2,1000,5,1,0,5,1,3,2,4,0,250.0,test,2,M
426.367044449,1,1000,3,1,0,5,1,3,2,4,0,250.0,test,1,M
538.215875626,1,1000,3,1,0,5,1,3,2,4,0,250.0,test,1,M
554.300069809,0,1000,1,1,0,5,1,3,2,4,0,250.0,test,0,M
602.236032486,4,1000,4,1,0,5,1,3,2,4,0,250.0,test,4,M
618.329048157,1,1000,3,1,0,5,1,3,2,4,0,250.0,test,1,M
586.861848831,3,1000,2,1,0,5,1,3,2,4,0,250.0,test,3,M
555.455207825,0,1000,1,1,0,5,1,3,2,4,0,250.0,test,0,M
842.350006104,5,1000,0,1,0,5,1,3,2,4,0,250.0,test,5,M
538.313150406,1,1000,3,1,0,5,1,3,2,4,0,250.0,test,1,M
571.613788605,3,1000,2,1,0,5,1,3,2,4,0,250.0,test,3,M
634.28902626,3,1000,2,1,0,5,1,3,2,4,0,250.0,test,3,M
683.00485611,5,1000,0,1,0,5,1,3,2,4,0,250.0,test,5,M
666.364908218,2,1000,5,1,0,5,1,3,2,4,0,250.0,test,2,M
570.328950882,2,1000,5,1,0,5,1,3,2,4,0,250.0,test,2,M
650.377035141,0,1000,1,1,0,5,1,3,2,4,0,250.0,test,0,M
523.509979248,0,1000,1,1,0,5,1,3,2,4,0,250.0,test,0,M
474.263191223,0,1000,1,1,0,5,1,3,2,4,0,250.0,test,0,M
459.811925888,0,1000,1,1,0,5,1,3,2,4,0,250.0,test,0,M
634.383916855,1,1000,3,1,0,5,1,3,2,4,0,250.0,test,1,M
731.840848923,4,1000,4,1,0,5,1,3,2,4,0,250.0,test,4,M
699.720144272,5,1000,0,1,0,5,1,3,2,4,0,250.0,test,5,M
651.767969131,2,1000,5,1,0,5,1,3,2,4,0,250.0,test,2,M
618.363142014,5,1000,0,1,0,5,1,3,2,4,0,250.0,test,5,M
762.391090393,2,1000,5,1,0,5,1,3,2,4,0,250.0,test,2,M
1242.40803719,1,1000,3,1,0,5,1,3,2,4,0,250.0,test,1,M
618.293046951,2,1000,5,1,0,5,1,3,2,4,0,250.0,test,2,M
954.417943954,2,1000,5,1,0,5,1,3,2,4,0,250.0,test,2,M
682.422876358,1,1000,3,1,0,5,1,3,2,4,0,250.0,test,1,M
474.289894104,1,1000,3,0,0,5,1,3,2,4,0,250.0,test,2,M
874.403953552,4,1000,4,1,0,5,1,3,2,4,0,250.0,test,4,M
602.417945862,0,1000,1,1,0,5,1,3,2,4,0,250.0,test,0,M
778.416872025,3,1000,2,1,0,5,1,3,2,4,0,250.0,test,3,M
618.322849274,2,1000,5,1,0,5,1,3,2,4,0,250.0,test,2,M
634.315013885,3,1000,2,1,0,5,1,3,2,4,0,250.0,test,3,M
1146.43788338,5,1000,0,1,0,5,1,3,2,4,0,250.0,test,5,M
586.350917816,2,1000,5,1,0,5,1,3,2,4,0,250.0,test,2,M
635.763883591,1,1000,3,1,0,5,1,3,2,4,0,250.0,test,1,M
523.80490303,1,1000,3,1,0,5,1,3,2,4,0,250.0,test,1,M
538.382053375,1,1000,3,1,0,5,1,3,2,4,0,250.0,test,1,M
939.787149429,4,1000,4,1,0,5,1,3,2,4,0,250.0,test,4,M
571.563005447,2,1000,5,1,0,5,1,3,2,4,0,250.0,test,2,M
651.795148849,2,1000,5,1,0,5,1,3,2,4,0,250.0,test,2,M
362.926006317,4,1000,4,1,0,5,1,3,2,4,0,250.0,test,4,M
570.312023163,0,1000,1,1,0,5,1,3,2,4,0,250.0,test,0,M
586.889028549,2,1000,5,1,0,5,1,3,2,4,0,250.0,test,2,M
522.345066071,1,1000,3,1,0,5,1,3,2,4,0,250.0,test,1,M
570.906877518,5,1000,0,0,0,5,1,3,2,4,0,250.0,test,4,M
602.30588913,2,1000,5,1,0,5,1,3,2,4,0,250.0,test,2,M
682.259082794,3,1000,2,1,0,5,1,3,2,4,0,250.0,test,3,M
538.415908813,0,1000,1,1,0,5,1,3,2,4,0,250.0,test,0,M
618.349075317,2,1000,5,1,0,5,1,3,2,4,0,250.0,test,2,M
475.816965103,2,1000,5,1,0,5,1,3,2,4,0,250.0,test,2,M
554.200172424,0,1000,1,1,0,5,1,3,2,4,0,250.0,test,0,M
696.090936661,1,1000,3,1,0,5,1,3,2,4,0,250.0,test,1,M
907.786846161,5,1000,0,1,0,5,1,3,2,4,0,250.0,test,5,M
586.843013763,1,1000,3,1,0,5,1,3,2,4,0,250.0,test,1,M
619.71616745,2,1000,5,1,0,5,1,3,2,4,0,250.0,test,2,M
506.339788437,2,1000,5,1,0,5,1,3,2,4,0,250.0,test,2,M
554.240942001,1,1000,3,1,0,5,1,3,2,4,0,250.0,test,1,M
490.442991257,2,1000,5,0,0,5,1,3,2,4,0,250.0,test,1,M
890.398025513,4,1000,4,1,0,5,1,3,2,4,0,250.0,test,4,M
682.407855988,2,1000,5,1,0,5,1,3,2,4,0,250.0,test,2,M
506.401062012,2,1000,5,1,0,5,1,3,2,4,0,250.0,test,2,M
1642.50683784,5,1000,0,1,0,5,1,3,2,4,0,250.0,test,5,M
682.3990345,2,1000,5,1,0,5,1,3,2,4,0,250.0,test,2,M
602.219104767,2,1000,5,1,0,5,1,3,2,4,0,250.0,test,2,M
666.332006454,3,1000,2,1,0,5,1,3,2,4,0,250.0,test,3,M
634.186029434,2,1000,5,1,0,5,1,3,2,4,0,250.0,test,2,M
410.284042358,4,1000,4,0,0,5,1,3,2,4,0,250.0,test,5,M
426.341056824,5,1000,0,1,0,5,1,3,2,4,0,250.0,test,5,M
602.349042892,0,1000,1,1,0,5,1,3,2,4,0,250.0,test,0,M
442.358970642,3,1000,2,0,0,5,1,3,2,4,0,250.0,test,0,M
714.308023453,1,1000,3,1,0,5,1,3,2,4,0,250.0,test,1,M
603.645086288,4,1000,4,1,0,5,1,3,2,4,0,250.0,test,4,M
618.290185928,0,1000,1,1,0,5,1,3,2,4,0,250.0,test,0,M
602.27394104,4,1000,4,1,0,5,1,3,2,4,0,250.0,test,4,M
587.54491806,0,1000,1,1,0,5,1,3,2,4,0,250.0,test,0,M
763.705015182,3,1000,2,1,0,5,1,3,2,4,0,250.0,test,3,M
762.326955795,3,1000,2,1,0,5,1,3,2,4,0,250.0,test,3,M
475.051164627,3,1000,2,1,0,5,1,3,2,4,0,250.0,test,3,M
490.30995369,3,1000,2,1,0,5,1,3,2,4,0,250.0,test,3,M
586.397171021,1,1000,3,1,0,5,1,3,2,4,0,250.0,test,1,M
875.817060471,4,1000,4,1,0,5,1,3,2,4,0,250.0,test,4,M
682.322025299,1,1000,3,1,0,5,1,3,2,4,0,250.0,test,1,M
619.839906693,5,1000,0,1,0,5,1,3,2,4,0,250.0,test,5,M
1098.37293625,4,1000,4,1,0,5,1,3,2,4,0,250.0,test,4,M
667.815923691,0,1000,1,1,0,5,1,3,2,4,0,250.0,test,0,M
970.430135727,5,1000,0,1,0,5,1,3,2,4,0,250.0,test,5,M
682.289123535,2,1000,5,1,0,5,1,3,2,4,0,250.0,test,2,M
554.342985153,0,1000,1,1,0,5,1,3,2,4,0,250.0,test,0,M
1114.26520348,1,1000,3,1,0,5,1,3,2,4,0,250.0,test,1,M
810.91094017,5,1000,0,1,0,5,1,3,2,4,0,250.0,test,5,M
730.314016342,5,1000,0,1,0,5,1,3,2,4,0,250.0,test,5,M
618.362903595,1,1000,3,1,0,5,1,3,2,4,0,250.0,test,1,M
602.386951447,5,1000,0,1,0,5,1,3,2,4,0,250.0,test,5,M
410.223960876,5,1000,0,0,0,5,1,3,2,4,0,250.0,test,4,M
586.804866791,0,1000,1,1,0,5,1,3,2,4,0,250.0,test,0,M
1018.38207245,5,1000,0,1,0,5,1,3,2,4,0,250.0,test,5,M
1019.82402802,1,1000,3,1,0,5,1,3,2,4,0,250.0,test,1,M
746.295928955,5,1000,0,1,0,5,1,3,2,4,0,250.0,test,5,M
587.703943253,0,1000,1,1,0,5,1,3,2,4,0,250.0,test,0,M
826.270103455,0,1000,1,1,0,5,1,3,2,4,0,250.0,test,0,M
618.360996246,1,1000,3,1,0,5,1,3,2,4,0,250.0,test,1,M
538.378953934,1,1000,3,1,0,5,1,3,2,4,0,250.0,test,1,M
634.314060211,4,1000,4,1,0,5,1,3,2,4,0,250.0,test,4,M
682.269096375,5,1000,0,1,0,5,1,3,2,4,0,250.0,test,5,M
635.6549263,0,1000,1,1,0,5,1,3,2,4,0,250.0,test,0,M
