RT,correct_response,ms-prestimblank,curstim,correct,SRmap_1,SRmap_0,SRmap_3,SRmap_2,SRmap_5,SRmap_4,ms-precue,ntrials,type,response,condition
1551.71298981,5,1000,1,1,5,0,2,4,3,1,0,250.0,train,5,M
560.150146484,5,1000,1,1,5,0,2,4,3,1,0,250.0,train,5,M
559.996843338,2,1000,3,0,5,0,2,4,3,1,0,250.0,train,1,M
495.976924896,5,1000,1,1,5,0,2,4,3,1,0,250.0,train,5,M
496.245145798,0,1000,0,1,5,0,2,4,3,1,0,250.0,train,0,M
655.627012253,1,1000,4,1,5,0,2,4,3,1,0,250.0,train,1,M
656.228065491,0,1000,0,1,5,0,2,4,3,1,0,250.0,train,0,M
576.246976852,2,1000,3,1,5,0,2,4,3,1,0,250.0,train,2,M
560.220003128,0,1000,0,1,5,0,2,4,3,1,0,250.0,train,0,M
574.641942978,5,1000,1,1,5,0,2,4,3,1,0,250.0,train,5,M
655.910968781,4,1000,2,0,5,0,2,4,3,1,0,250.0,train,1,M
512.219905853,5,1000,1,1,5,0,2,4,3,1,0,250.0,train,5,M
575.256824493,3,1000,5,0,5,0,2,4,3,1,0,250.0,train,2,M
528.065919876,5,1000,1,1,5,0,2,4,3,1,0,250.0,train,5,M
463.922023773,5,1000,1,1,5,0,2,4,3,1,0,250.0,train,5,M
496.283054352,5,1000,1,1,5,0,2,4,3,1,0,250.0,train,5,M
575.901985168,2,1000,3,1,5,0,2,4,3,1,0,250.0,train,2,M
511.942863464,2,1000,3,1,5,0,2,4,3,1,0,250.0,train,2,M
528.22303772,5,1000,1,1,5,0,2,4,3,1,0,250.0,train,5,M
480.170965195,2,1000,3,0,5,0,2,4,3,1,0,250.0,train,5,M
864.172935486,3,1000,5,1,5,0,2,4,3,1,0,250.0,train,3,M
672.255992889,5,1000,1,1,5,0,2,4,3,1,0,250.0,train,5,M
528.138160706,3,1000,5,0,5,0,2,4,3,1,0,250.0,train,2,M
463.631153107,5,1000,1,1,5,0,2,4,3,1,0,250.0,train,5,M
560.138940811,2,1000,3,1,5,0,2,4,3,1,0,250.0,train,2,M
496.317148209,2,1000,3,1,5,0,2,4,3,1,0,250.0,train,2,M
656.136989594,2,1000,3,0,5,0,2,4,3,1,0,250.0,train,3,M
576.154947281,0,1000,0,1,5,0,2,4,3,1,0,250.0,train,0,M
544.003009796,1,1000,4,1,5,0,2,4,3,1,0,250.0,train,1,M
560.219049454,5,1000,1,1,5,0,2,4,3,1,0,250.0,train,5,M
671.718120575,2,1000,3,1,5,0,2,4,3,1,0,250.0,train,2,M
784.287929535,4,1000,2,1,5,0,2,4,3,1,0,250.0,train,4,M
512.258052826,5,1000,1,1,5,0,2,4,3,1,0,250.0,train,5,M
592.573165894,1,1000,4,1,5,0,2,4,3,1,0,250.0,train,1,M
688.357114792,4,1000,2,1,5,0,2,4,3,1,0,250.0,train,4,M
512.413978577,4,1000,2,0,5,0,2,4,3,1,0,250.0,train,5,M
576.443910599,0,1000,0,1,5,0,2,4,3,1,0,250.0,train,0,M
592.425107956,5,1000,1,1,5,0,2,4,3,1,0,250.0,train,5,M
560.456037521,0,1000,0,1,5,0,2,4,3,1,0,250.0,train,0,M
480.458021164,0,1000,0,1,5,0,2,4,3,1,0,250.0,train,0,M
736.331939697,3,1000,5,0,5,0,2,4,3,1,0,250.0,train,4,M
512.269020081,5,1000,1,1,5,0,2,4,3,1,0,250.0,train,5,M
816.137075424,3,1000,5,0,5,0,2,4,3,1,0,250.0,train,2,M
512.274980545,5,1000,1,1,5,0,2,4,3,1,0,250.0,train,5,M
544.325828552,0,1000,0,1,5,0,2,4,3,1,0,250.0,train,0,M
640.424966812,4,1000,2,1,5,0,2,4,3,1,0,250.0,train,4,M
496.470928192,4,1000,2,1,5,0,2,4,3,1,0,250.0,train,4,M
608.507871628,2,1000,3,1,5,0,2,4,3,1,0,250.0,train,2,M
608.399152756,3,1000,5,1,5,0,2,4,3,1,0,250.0,train,3,M
640.388965607,1,1000,4,1,5,0,2,4,3,1,0,250.0,train,1,M
832.271814346,3,1000,5,1,5,0,2,4,3,1,0,250.0,train,3,M
496.323108673,5,1000,1,1,5,0,2,4,3,1,0,250.0,train,5,M
624.306917191,3,1000,5,1,5,0,2,4,3,1,0,250.0,train,3,M
560.520172119,1,1000,4,1,5,0,2,4,3,1,0,250.0,train,1,M
608.510017395,0,1000,0,1,5,0,2,4,3,1,0,250.0,train,0,M
1360.43310165,4,1000,2,1,5,0,2,4,3,1,0,250.0,train,4,M
432.359933853,4,1000,2,1,5,0,2,4,3,1,0,250.0,train,4,M
608.366012573,1,1000,4,1,5,0,2,4,3,1,0,250.0,train,1,M
656.444072723,3,1000,5,1,5,0,2,4,3,1,0,250.0,train,3,M
816.378831863,2,1000,3,1,5,0,2,4,3,1,0,250.0,train,2,M
720.465183258,3,1000,5,1,5,0,2,4,3,1,0,250.0,train,3,M
480.401039124,5,1000,1,1,5,0,2,4,3,1,0,250.0,train,5,M
528.496026993,0,1000,0,1,5,0,2,4,3,1,0,250.0,train,0,M
512.60304451,1,1000,4,1,5,0,2,4,3,1,0,250.0,train,1,M
512.500047684,5,1000,1,1,5,0,2,4,3,1,0,250.0,train,5,M
592.555046082,2,1000,3,1,5,0,2,4,3,1,0,250.0,train,2,M
720.404863358,1,1000,4,1,5,0,2,4,3,1,0,250.0,train,1,M
528.378009796,1,1000,4,1,5,0,2,4,3,1,0,250.0,train,1,M
576.514959335,2,1000,3,1,5,0,2,4,3,1,0,250.0,train,2,M
560.451984406,5,1000,1,1,5,0,2,4,3,1,0,250.0,train,5,M
736.526012421,3,1000,5,1,5,0,2,4,3,1,0,250.0,train,3,M
640.044927597,2,1000,3,1,5,0,2,4,3,1,0,250.0,train,2,M
464.415073395,2,1000,3,1,5,0,2,4,3,1,0,250.0,train,2,M
624.263048172,3,1000,5,1,5,0,2,4,3,1,0,250.0,train,3,M
672.513961792,1,1000,4,1,5,0,2,4,3,1,0,250.0,train,1,M
464.514017105,5,1000,1,1,5,0,2,4,3,1,0,250.0,train,5,M
544.558048248,4,1000,2,1,5,0,2,4,3,1,0,250.0,train,4,M
528.530836105,3,1000,5,1,5,0,2,4,3,1,0,250.0,train,3,M
560.502052307,3,1000,5,1,5,0,2,4,3,1,0,250.0,train,3,M
592.277050018,4,1000,2,0,5,0,2,4,3,1,0,250.0,train,5,M
496.375083923,5,1000,1,1,5,0,2,4,3,1,0,250.0,train,5,M
688.435792923,1,1000,4,1,5,0,2,4,3,1,0,250.0,train,1,M
511.703014374,2,1000,3,0,5,0,2,4,3,1,0,250.0,train,3,M
800.280094147,3,1000,5,1,5,0,2,4,3,1,0,250.0,train,3,M
687.597990036,1,1000,4,1,5,0,2,4,3,1,0,250.0,train,1,M
863.700151443,3,1000,5,0,5,0,2,4,3,1,0,250.0,train,2,M
623.414993286,5,1000,1,1,5,0,2,4,3,1,0,250.0,train,5,M
544.542074203,5,1000,1,1,5,0,2,4,3,1,0,250.0,train,5,M
512.37988472,5,1000,1,1,5,0,2,4,3,1,0,250.0,train,5,M
1024.37090874,3,1000,5,1,5,0,2,4,3,1,0,250.0,train,3,M
511.595010757,5,1000,1,1,5,0,2,4,3,1,0,250.0,train,5,M
672.477960587,3,1000,5,1,5,0,2,4,3,1,0,250.0,train,3,M
608.47401619,0,1000,0,1,5,0,2,4,3,1,0,250.0,train,0,M
527.562141418,1,1000,4,1,5,0,2,4,3,1,0,250.0,train,1,M
575.582027435,5,1000,1,1,5,0,2,4,3,1,0,250.0,train,5,M
847.774028778,2,1000,3,1,5,0,2,4,3,1,0,250.0,train,2,M
575.645923615,5,1000,1,1,5,0,2,4,3,1,0,250.0,train,5,M
575.335025787,5,1000,1,1,5,0,2,4,3,1,0,250.0,train,5,M
607.372999191,4,1000,2,1,5,0,2,4,3,1,0,250.0,train,4,M
655.658960342,2,1000,3,1,5,0,2,4,3,1,0,250.0,train,2,M
559.598922729,5,1000,1,1,5,0,2,4,3,1,0,250.0,train,5,M
703.751087189,4,1000,2,1,5,0,2,4,3,1,0,250.0,train,4,M
799.823999405,1,1000,4,1,5,0,2,4,3,1,0,250.0,train,1,M
575.600862503,3,1000,5,0,5,0,2,4,3,1,0,250.0,train,2,M
783.643960953,4,1000,2,1,5,0,2,4,3,1,0,250.0,train,4,M
687.680959702,1,1000,4,1,5,0,2,4,3,1,0,250.0,train,1,M
719.63596344,4,1000,2,1,5,0,2,4,3,1,0,250.0,train,4,M
975.566148758,5,1000,1,1,5,0,2,4,3,1,0,250.0,train,5,M
511.345148087,5,1000,1,1,5,0,2,4,3,1,0,250.0,train,5,M
639.647006989,1,1000,4,1,5,0,2,4,3,1,0,250.0,train,1,M
592.338085175,2,1000,3,1,5,0,2,4,3,1,0,250.0,train,2,M
671.59318924,4,1000,2,1,5,0,2,4,3,1,0,250.0,train,4,M
591.568946838,1,1000,4,1,5,0,2,4,3,1,0,250.0,train,1,M
607.73897171,1,1000,4,1,5,0,2,4,3,1,0,250.0,train,1,M
575.695991516,2,1000,3,1,5,0,2,4,3,1,0,250.0,train,2,M
783.607006073,3,1000,5,0,5,0,2,4,3,1,0,250.0,train,4,M
623.54016304,5,1000,1,1,5,0,2,4,3,1,0,250.0,train,5,M
591.705083847,0,1000,0,1,5,0,2,4,3,1,0,250.0,train,0,M
991.66893959,4,1000,2,1,5,0,2,4,3,1,0,250.0,train,4,M
816.027879715,2,1000,3,1,5,0,2,4,3,1,0,250.0,train,2,M
527.246952057,2,1000,3,1,5,0,2,4,3,1,0,250.0,train,2,M
639.698982239,5,1000,1,1,5,0,2,4,3,1,0,250.0,train,5,M
543.713092804,5,1000,1,1,5,0,2,4,3,1,0,250.0,train,5,M
719.419956207,1,1000,4,1,5,0,2,4,3,1,0,250.0,train,1,M
607.219219208,5,1000,1,1,5,0,2,4,3,1,0,250.0,train,5,M
799.81803894,3,1000,5,1,5,0,2,4,3,1,0,250.0,train,3,M
608.412027359,4,1000,2,1,5,0,2,4,3,1,0,250.0,train,4,M
624.483823776,1,1000,4,1,5,0,2,4,3,1,0,250.0,train,1,M
560.503959656,0,1000,0,1,5,0,2,4,3,1,0,250.0,train,0,M
416.377067566,1,1000,4,1,5,0,2,4,3,1,0,250.0,train,1,M
528.383016586,0,1000,0,1,5,0,2,4,3,1,0,250.0,train,0,M
895.607948303,4,1000,2,1,5,0,2,4,3,1,0,250.0,train,4,M
511.435031891,0,1000,0,1,5,0,2,4,3,1,0,250.0,train,0,M
528.390169144,1,1000,4,1,5,0,2,4,3,1,0,250.0,train,1,M
672.504901886,5,1000,1,1,5,0,2,4,3,1,0,250.0,train,5,M
832.544088364,4,1000,2,1,5,0,2,4,3,1,0,250.0,train,4,M
640.478849411,0,1000,0,1,5,0,2,4,3,1,0,250.0,train,0,M
816.523075104,3,1000,5,0,5,0,2,4,3,1,0,250.0,train,4,M
608.424186707,0,1000,0,1,5,0,2,4,3,1,0,250.0,train,0,M
592.320919037,5,1000,1,1,5,0,2,4,3,1,0,250.0,train,5,M
864.169120789,2,1000,3,0,5,0,2,4,3,1,0,250.0,train,3,M
704.221963882,4,1000,2,1,5,0,2,4,3,1,0,250.0,train,4,M
703.611135483,2,1000,3,1,5,0,2,4,3,1,0,250.0,train,2,M
815.586090088,3,1000,5,1,5,0,2,4,3,1,0,250.0,train,3,M
560.283899307,0,1000,0,1,5,0,2,4,3,1,0,250.0,train,0,M
591.75491333,0,1000,0,1,5,0,2,4,3,1,0,250.0,train,0,M
704.782962799,4,1000,2,1,5,0,2,4,3,1,0,250.0,train,4,M
560.33205986,0,1000,0,1,5,0,2,4,3,1,0,250.0,train,0,M
959.833145142,2,1000,3,1,5,0,2,4,3,1,0,250.0,train,2,M
784.507989883,3,1000,5,1,5,0,2,4,3,1,0,250.0,train,3,M
624.586105347,4,1000,2,1,5,0,2,4,3,1,0,250.0,train,4,M
464.45608139,0,1000,0,1,5,0,2,4,3,1,0,250.0,train,0,M
544.610023499,5,1000,1,1,5,0,2,4,3,1,0,250.0,train,5,M
688.593864441,2,1000,3,1,5,0,2,4,3,1,0,250.0,train,2,M
688.581943512,1,1000,4,1,5,0,2,4,3,1,0,250.0,train,1,M
432.480812073,1,1000,4,1,5,0,2,4,3,1,0,250.0,train,1,M
432.598829269,2,1000,3,0,5,0,2,4,3,1,0,250.0,train,1,M
592.459917068,5,1000,1,1,5,0,2,4,3,1,0,250.0,train,5,M
576.44701004,1,1000,4,1,5,0,2,4,3,1,0,250.0,train,1,M
560.459852219,1,1000,4,1,5,0,2,4,3,1,0,250.0,train,1,M
496.324062347,4,1000,2,0,5,0,2,4,3,1,0,250.0,train,5,M
976.490974426,3,1000,5,1,5,0,2,4,3,1,0,250.0,train,3,M
608.568191528,1,1000,4,1,5,0,2,4,3,1,0,250.0,train,1,M
576.550006866,0,1000,0,1,5,0,2,4,3,1,0,250.0,train,0,M
720.57890892,3,1000,5,1,5,0,2,4,3,1,0,250.0,train,3,M
576.54094696,1,1000,4,1,5,0,2,4,3,1,0,250.0,train,1,M
544.513940811,0,1000,0,1,5,0,2,4,3,1,0,250.0,train,0,M
672.477006912,2,1000,3,1,5,0,2,4,3,1,0,250.0,train,2,M
480.12804985,1,1000,4,1,5,0,2,4,3,1,0,250.0,train,1,M
736.479997635,3,1000,5,1,5,0,2,4,3,1,0,250.0,train,3,M
544.317960739,5,1000,1,1,5,0,2,4,3,1,0,250.0,train,5,M
752.541065216,3,1000,5,1,5,0,2,4,3,1,0,250.0,train,3,M
640.398979187,0,1000,0,1,5,0,2,4,3,1,0,250.0,train,0,M
656.590223312,3,1000,5,1,5,0,2,4,3,1,0,250.0,train,3,M
960.520982742,5,1000,1,1,5,0,2,4,3,1,0,250.0,train,5,M
608.436822891,1,1000,4,1,5,0,2,4,3,1,0,250.0,train,1,M
816.457033157,4,1000,2,1,5,0,2,4,3,1,0,250.0,train,4,M
1279.61397171,3,1000,5,1,5,0,2,4,3,1,0,250.0,train,3,M
559.857845306,5,1000,1,1,5,0,2,4,3,1,0,250.0,train,5,M
528.254032135,0,1000,0,1,5,0,2,4,3,1,0,250.0,train,0,M
511.626005173,0,1000,0,1,5,0,2,4,3,1,0,250.0,train,0,M
351.493120193,0,1000,0,1,5,0,2,4,3,1,0,250.0,train,0,M
688.547134399,2,1000,3,0,5,0,2,4,3,1,0,250.0,train,3,M
688.505172729,4,1000,2,1,5,0,2,4,3,1,0,250.0,train,4,M
624.548912048,4,1000,2,1,5,0,2,4,3,1,0,250.0,train,4,M
384.559869766,4,1000,2,1,5,0,2,4,3,1,0,250.0,train,4,M
848.448991776,1,1000,4,1,5,0,2,4,3,1,0,250.0,train,1,M
464.405059814,1,1000,4,1,5,0,2,4,3,1,0,250.0,train,1,M
512.47215271,0,1000,0,1,5,0,2,4,3,1,0,250.0,train,0,M
896.502971649,4,1000,2,0,5,0,2,4,3,1,0,250.0,train,3,M
720.108985901,1,1000,4,1,5,0,2,4,3,1,0,250.0,train,1,M
672.318935394,2,1000,3,0,5,0,2,4,3,1,0,250.0,train,5,M
544.418096542,5,1000,1,1,5,0,2,4,3,1,0,250.0,train,5,M
736.469984055,3,1000,5,1,5,0,2,4,3,1,0,250.0,train,3,M
528.482913971,0,1000,0,1,5,0,2,4,3,1,0,250.0,train,0,M
592.58890152,1,1000,4,1,5,0,2,4,3,1,0,250.0,train,1,M
576.556921005,4,1000,2,0,5,0,2,4,3,1,0,250.0,train,5,M
528.486013412,1,1000,4,1,5,0,2,4,3,1,0,250.0,train,1,M
576.43699646,0,1000,0,1,5,0,2,4,3,1,0,250.0,train,0,M
608.413934708,0,1000,0,1,5,0,2,4,3,1,0,250.0,train,0,M
480.399131775,1,1000,4,1,5,0,2,4,3,1,0,250.0,train,1,M
704.18214798,4,1000,2,1,5,0,2,4,3,1,0,250.0,train,4,M
496.49310112,0,1000,0,1,5,0,2,4,3,1,0,250.0,train,0,M
896.424055099,4,1000,2,1,5,0,2,4,3,1,0,250.0,train,4,M
544.501781464,0,1000,0,1,5,0,2,4,3,1,0,250.0,train,0,M
448.453903198,0,1000,0,1,5,0,2,4,3,1,0,250.0,train,0,M
624.497175217,5,1000,1,1,5,0,2,4,3,1,0,250.0,train,5,M
448.360919952,0,1000,0,1,5,0,2,4,3,1,0,250.0,train,0,M
832.586050034,2,1000,3,1,5,0,2,4,3,1,0,250.0,train,2,M
704.442977905,3,1000,5,1,5,0,2,4,3,1,0,250.0,train,3,M
832.232952118,1,1000,4,1,5,0,2,4,3,1,0,250.0,train,1,M
528.46288681,0,1000,0,1,5,0,2,4,3,1,0,250.0,train,0,M
864.521980286,4,1000,2,1,5,0,2,4,3,1,0,250.0,train,4,M
672.312021255,3,1000,5,1,5,0,2,4,3,1,0,250.0,train,3,M
800.515890121,2,1000,3,1,5,0,2,4,3,1,0,250.0,train,2,M
848.557949066,3,1000,5,1,5,0,2,4,3,1,0,250.0,train,3,M
528.459072113,3,1000,5,1,5,0,2,4,3,1,0,250.0,train,3,M
640.43879509,0,1000,0,1,5,0,2,4,3,1,0,250.0,train,0,M
608.488798141,5,1000,1,1,5,0,2,4,3,1,0,250.0,train,5,M
688.458919525,2,1000,3,1,5,0,2,4,3,1,0,250.0,train,2,M
624.381780624,1,1000,4,1,5,0,2,4,3,1,0,250.0,train,1,M
768.129825592,3,1000,5,0,5,0,2,4,3,1,0,250.0,train,4,M
544.343948364,1,1000,4,1,5,0,2,4,3,1,0,250.0,train,1,M
752.452135086,2,1000,3,1,5,0,2,4,3,1,0,250.0,train,2,M
1008.29315186,4,1000,2,1,5,0,2,4,3,1,0,250.0,train,4,M
528.477907181,0,1000,0,1,5,0,2,4,3,1,0,250.0,train,0,M
880.385875702,3,1000,5,1,5,0,2,4,3,1,0,250.0,train,3,M
2048.60019684,1,1000,4,1,5,0,2,4,3,1,0,250.0,train,1,M
544.440031052,1,1000,4,1,5,0,2,4,3,1,0,250.0,train,1,M
1104.47502136,3,1000,5,1,5,0,2,4,3,1,0,250.0,train,3,M
640.218019485,5,1000,1,1,5,0,2,4,3,1,0,250.0,train,5,M
752.421140671,2,1000,3,1,5,0,2,4,3,1,0,250.0,train,2,M
544.22211647,2,1000,3,1,5,0,2,4,3,1,0,250.0,train,2,M
560.538053513,0,1000,0,1,5,0,2,4,3,1,0,250.0,train,0,M
544.429063797,2,1000,3,1,5,0,2,4,3,1,0,250.0,train,2,M
560.468912125,0,1000,0,1,5,0,2,4,3,1,0,250.0,train,0,M
784.436941147,3,1000,5,1,5,0,2,4,3,1,0,250.0,train,3,M
736.49096489,2,1000,3,1,5,0,2,4,3,1,0,250.0,train,2,M
1088.47212791,4,1000,2,1,5,0,2,4,3,1,0,250.0,train,4,M
576.35807991,5,1000,1,1,5,0,2,4,3,1,0,250.0,train,5,M
784.423828125,4,1000,2,1,5,0,2,4,3,1,0,250.0,train,4,M
976.433992386,2,1000,3,0,5,0,2,4,3,1,0,250.0,train,3,M
752.389907837,4,1000,2,1,5,0,2,4,3,1,0,250.0,train,4,M
528.21803093,0,1000,0,1,5,0,2,4,3,1,0,250.0,train,0,M
1024.56116676,3,1000,5,1,5,0,2,4,3,1,0,250.0,train,3,M
576.397180557,5,1000,1,1,5,0,2,4,3,1,0,250.0,train,5,M
480.706930161,5,1000,1,1,5,0,2,4,3,1,0,250.0,train,5,M
1023.6530304,3,1000,5,1,5,0,2,4,3,1,0,250.0,train,3,M
447.52907753,3,1000,5,1,5,0,2,4,3,1,0,250.0,train,3,M
623.596191406,5,1000,1,1,5,0,2,4,3,1,0,250.0,train,5,M
20655.1008224,0,1000,0,1,5,0,2,4,3,1,0,250.0,test,0,M
1743.91102791,3,1000,5,0,5,0,2,4,3,1,0,250.0,test,4,M
1952.30102539,0,1000,0,1,5,0,2,4,3,1,0,250.0,test,0,M
1552.3660183,2,1000,3,1,5,0,2,4,3,1,0,250.0,test,2,M
2656.08286858,1,1000,4,1,5,0,2,4,3,1,0,250.0,test,1,M
1104.09283638,2,1000,3,1,5,0,2,4,3,1,0,250.0,test,2,M
1552.41394043,1,1000,4,1,5,0,2,4,3,1,0,250.0,test,1,M
848.37603569,2,1000,3,1,5,0,2,4,3,1,0,250.0,test,2,M
1136.44886017,3,1000,5,1,5,0,2,4,3,1,0,250.0,test,3,M
880.421876907,2,1000,3,1,5,0,2,4,3,1,0,250.0,test,2,M
656.330108643,3,1000,5,0,5,0,2,4,3,1,0,250.0,test,2,M
879.858970642,2,1000,3,1,5,0,2,4,3,1,0,250.0,test,2,M
1615.69595337,5,1000,1,1,5,0,2,4,3,1,0,250.0,test,5,M
799.649000168,4,1000,2,1,5,0,2,4,3,1,0,250.0,test,4,M
1183.66599083,2,1000,3,1,5,0,2,4,3,1,0,250.0,test,2,M
2735.85486412,1,1000,4,1,5,0,2,4,3,1,0,250.0,test,1,M
2111.9530201,0,1000,0,1,5,0,2,4,3,1,0,250.0,test,0,M
1536.64088249,4,1000,2,0,5,0,2,4,3,1,0,250.0,test,3,M
1712.03684807,0,1000,0,1,5,0,2,4,3,1,0,250.0,test,0,M
1264.36305046,0,1000,0,1,5,0,2,4,3,1,0,250.0,test,0,M
736.114025116,1,1000,4,1,5,0,2,4,3,1,0,250.0,test,1,M
656.294107437,1,1000,4,1,5,0,2,4,3,1,0,250.0,test,1,M
832.212924957,2,1000,3,1,5,0,2,4,3,1,0,250.0,test,2,M
703.817844391,1,1000,4,1,5,0,2,4,3,1,0,250.0,test,1,M
1056.4520359,0,1000,0,1,5,0,2,4,3,1,0,250.0,test,0,M
1168.50614548,5,1000,1,1,5,0,2,4,3,1,0,250.0,test,5,M
1152.33016014,0,1000,0,1,5,0,2,4,3,1,0,250.0,test,0,M
928.365945816,2,1000,3,1,5,0,2,4,3,1,0,250.0,test,2,M
816.299915314,4,1000,2,1,5,0,2,4,3,1,0,250.0,test,4,M
624.305009842,4,1000,2,1,5,0,2,4,3,1,0,250.0,test,4,M
752.240180969,3,1000,5,1,5,0,2,4,3,1,0,250.0,test,3,M
640.202045441,2,1000,3,1,5,0,2,4,3,1,0,250.0,test,2,M
736.705780029,1,1000,4,1,5,0,2,4,3,1,0,250.0,test,1,M
895.704984665,4,1000,2,1,5,0,2,4,3,1,0,250.0,test,4,M
1200.12807846,3,1000,5,1,5,0,2,4,3,1,0,250.0,test,3,M
864.368915558,4,1000,2,1,5,0,2,4,3,1,0,250.0,test,4,M
736.471891403,3,1000,5,1,5,0,2,4,3,1,0,250.0,test,3,M
912.396192551,2,1000,3,1,5,0,2,4,3,1,0,250.0,test,2,M
1264.33110237,0,1000,0,1,5,0,2,4,3,1,0,250.0,test,0,M
976.514101028,0,1000,0,1,5,0,2,4,3,1,0,250.0,test,0,M
768.341064453,2,1000,3,1,5,0,2,4,3,1,0,250.0,test,2,M
1104.43806648,5,1000,1,1,5,0,2,4,3,1,0,250.0,test,5,M
928.427219391,2,1000,3,1,5,0,2,4,3,1,0,250.0,test,2,M
928.442001343,1,1000,4,0,5,0,2,4,3,1,0,250.0,test,0,M
1152.17590332,5,1000,1,1,5,0,2,4,3,1,0,250.0,test,5,M
1456.28499985,0,1000,0,1,5,0,2,4,3,1,0,250.0,test,0,M
1104.50720787,5,1000,1,1,5,0,2,4,3,1,0,250.0,test,5,M
960.412979126,4,1000,2,1,5,0,2,4,3,1,0,250.0,test,4,M
1328.14693451,1,1000,4,1,5,0,2,4,3,1,0,250.0,test,1,M
896.442890167,4,1000,2,1,5,0,2,4,3,1,0,250.0,test,4,M
960.451126099,1,1000,4,1,5,0,2,4,3,1,0,250.0,test,1,M
640.466213226,1,1000,4,1,5,0,2,4,3,1,0,250.0,test,1,M
1168.10798645,2,1000,3,1,5,0,2,4,3,1,0,250.0,test,2,M
784.399986267,3,1000,5,1,5,0,2,4,3,1,0,250.0,test,3,M
1280.23290634,0,1000,0,1,5,0,2,4,3,1,0,250.0,test,0,M
944.453001022,3,1000,5,1,5,0,2,4,3,1,0,250.0,test,3,M
912.477970123,4,1000,2,1,5,0,2,4,3,1,0,250.0,test,4,M
1680.164814,0,1000,0,1,5,0,2,4,3,1,0,250.0,test,0,M
704.282999039,1,1000,4,1,5,0,2,4,3,1,0,250.0,test,1,M
992.480039597,0,1000,0,1,5,0,2,4,3,1,0,250.0,test,0,M
976.407051086,4,1000,2,1,5,0,2,4,3,1,0,250.0,test,4,M
704.411029816,5,1000,1,1,5,0,2,4,3,1,0,250.0,test,5,M
960.361003876,3,1000,5,1,5,0,2,4,3,1,0,250.0,test,3,M
1328.40585709,1,1000,4,1,5,0,2,4,3,1,0,250.0,test,1,M
1088.50002289,5,1000,1,1,5,0,2,4,3,1,0,250.0,test,5,M
784.530878067,3,1000,5,1,5,0,2,4,3,1,0,250.0,test,3,M
624.464035034,2,1000,3,1,5,0,2,4,3,1,0,250.0,test,2,M
1440.35100937,1,1000,4,0,5,0,2,4,3,1,0,250.0,test,0,M
1312.23702431,0,1000,0,1,5,0,2,4,3,1,0,250.0,test,0,M
736.337900162,2,1000,3,1,5,0,2,4,3,1,0,250.0,test,2,M
976.269006729,0,1000,0,1,5,0,2,4,3,1,0,250.0,test,0,M
832.417011261,3,1000,5,1,5,0,2,4,3,1,0,250.0,test,3,M
1312.32309341,1,1000,4,0,5,0,2,4,3,1,0,250.0,test,0,M
720.421075821,1,1000,4,1,5,0,2,4,3,1,0,250.0,test,1,M
896.469831467,5,1000,1,1,5,0,2,4,3,1,0,250.0,test,5,M
672.267198563,4,1000,2,1,5,0,2,4,3,1,0,250.0,test,4,M
1184.26299095,1,1000,4,1,5,0,2,4,3,1,0,250.0,test,1,M
816.381216049,4,1000,2,1,5,0,2,4,3,1,0,250.0,test,4,M
1488.2080555,0,1000,0,1,5,0,2,4,3,1,0,250.0,test,0,M
1120.42999268,3,1000,5,0,5,0,2,4,3,1,0,250.0,test,4,M
928.39217186,3,1000,5,1,5,0,2,4,3,1,0,250.0,test,3,M
944.32091713,4,1000,2,1,5,0,2,4,3,1,0,250.0,test,4,M
832.432985306,2,1000,3,1,5,0,2,4,3,1,0,250.0,test,2,M
1088.42396736,5,1000,1,1,5,0,2,4,3,1,0,250.0,test,5,M
832.491874695,4,1000,2,1,5,0,2,4,3,1,0,250.0,test,4,M
1840.4481411,1,1000,4,1,5,0,2,4,3,1,0,250.0,test,1,M
864.346981049,1,1000,4,1,5,0,2,4,3,1,0,250.0,test,1,M
928.474187851,4,1000,2,1,5,0,2,4,3,1,0,250.0,test,4,M
736.322164536,2,1000,3,1,5,0,2,4,3,1,0,250.0,test,2,M
1408.22982788,2,1000,3,1,5,0,2,4,3,1,0,250.0,test,2,M
592.344045639,2,1000,3,1,5,0,2,4,3,1,0,250.0,test,2,M
1120.06402016,5,1000,1,1,5,0,2,4,3,1,0,250.0,test,5,M
720.429182053,4,1000,2,1,5,0,2,4,3,1,0,250.0,test,4,M
1008.4400177,5,1000,1,1,5,0,2,4,3,1,0,250.0,test,5,M
1344.40517426,0,1000,0,1,5,0,2,4,3,1,0,250.0,test,0,M
784.353017807,1,1000,4,1,5,0,2,4,3,1,0,250.0,test,1,M
1008.32414627,0,1000,0,1,5,0,2,4,3,1,0,250.0,test,0,M
848.518133163,2,1000,3,1,5,0,2,4,3,1,0,250.0,test,2,M
1280.3580761,0,1000,0,1,5,0,2,4,3,1,0,250.0,test,0,M
944.465875626,2,1000,3,1,5,0,2,4,3,1,0,250.0,test,2,M
1344.25401688,5,1000,1,1,5,0,2,4,3,1,0,250.0,test,5,M
1759.99403,0,1000,0,1,5,0,2,4,3,1,0,250.0,test,0,M
944.193124771,4,1000,2,1,5,0,2,4,3,1,0,250.0,test,4,M
1792.40298271,0,1000,0,1,5,0,2,4,3,1,0,250.0,test,0,M
1520.00784874,4,1000,2,1,5,0,2,4,3,1,0,250.0,test,4,M
1312.23392487,3,1000,5,1,5,0,2,4,3,1,0,250.0,test,3,M
928.544044495,3,1000,5,1,5,0,2,4,3,1,0,250.0,test,3,M
800.552845001,4,1000,2,1,5,0,2,4,3,1,0,250.0,test,4,M
832.5548172,1,1000,4,1,5,0,2,4,3,1,0,250.0,test,1,M
752.4061203,3,1000,5,0,5,0,2,4,3,1,0,250.0,test,4,M
496.276855469,3,1000,5,1,5,0,2,4,3,1,0,250.0,test,3,M
1168.52712631,5,1000,1,1,5,0,2,4,3,1,0,250.0,test,5,M
1616.40906334,0,1000,0,1,5,0,2,4,3,1,0,250.0,test,0,M
784.279108047,4,1000,2,1,5,0,2,4,3,1,0,250.0,test,4,M
976.460933685,5,1000,1,1,5,0,2,4,3,1,0,250.0,test,5,M
1312.25419044,0,1000,0,1,5,0,2,4,3,1,0,250.0,test,0,M
848.332881927,1,1000,4,1,5,0,2,4,3,1,0,250.0,test,1,M
1088.30189705,0,1000,0,1,5,0,2,4,3,1,0,250.0,test,0,M
944.463968277,4,1000,2,1,5,0,2,4,3,1,0,250.0,test,4,M
768.406152725,3,1000,5,1,5,0,2,4,3,1,0,250.0,test,3,M
1008.47697258,5,1000,1,1,5,0,2,4,3,1,0,250.0,test,5,M
864.095926285,4,1000,2,1,5,0,2,4,3,1,0,250.0,test,4,M
912.369012833,4,1000,2,1,5,0,2,4,3,1,0,250.0,test,4,M
832.397937775,5,1000,1,1,5,0,2,4,3,1,0,250.0,test,5,M
544.420957565,5,1000,1,1,5,0,2,4,3,1,0,250.0,test,5,M
1152.47106552,1,1000,4,1,5,0,2,4,3,1,0,250.0,test,1,M
1632.36522675,5,1000,1,1,5,0,2,4,3,1,0,250.0,test,5,M
1280.32708168,2,1000,3,1,5,0,2,4,3,1,0,250.0,test,2,M
1552.37293243,0,1000,0,1,5,0,2,4,3,1,0,250.0,test,0,M
1152.41384506,0,1000,0,1,5,0,2,4,3,1,0,250.0,test,0,M
1280.23195267,4,1000,2,1,5,0,2,4,3,1,0,250.0,test,4,M
768.413066864,3,1000,5,1,5,0,2,4,3,1,0,250.0,test,3,M
640.374898911,2,1000,3,0,5,0,2,4,3,1,0,250.0,test,3,M
1056.35499954,0,1000,0,1,5,0,2,4,3,1,0,250.0,test,0,M
976.500988007,3,1000,5,1,5,0,2,4,3,1,0,250.0,test,3,M
960.304021835,1,1000,4,1,5,0,2,4,3,1,0,250.0,test,1,M
1360.40496826,5,1000,1,1,5,0,2,4,3,1,0,250.0,test,5,M
1216.35985374,1,1000,4,1,5,0,2,4,3,1,0,250.0,test,1,M
1120.3649044,5,1000,1,1,5,0,2,4,3,1,0,250.0,test,5,M
896.352052689,2,1000,3,1,5,0,2,4,3,1,0,250.0,test,2,M
1136.49082184,5,1000,1,1,5,0,2,4,3,1,0,250.0,test,5,M
1344.05589104,4,1000,2,1,5,0,2,4,3,1,0,250.0,test,4,M
1536.21482849,0,1000,0,1,5,0,2,4,3,1,0,250.0,test,0,M
960.43920517,2,1000,3,1,5,0,2,4,3,1,0,250.0,test,2,M
1344.01321411,4,1000,2,1,5,0,2,4,3,1,0,250.0,test,4,M
912.538051605,1,1000,4,0,5,0,2,4,3,1,0,250.0,test,0,M
1520.20287514,5,1000,1,1,5,0,2,4,3,1,0,250.0,test,5,M
1344.30813789,0,1000,0,1,5,0,2,4,3,1,0,250.0,test,0,M
1616.32704735,5,1000,1,1,5,0,2,4,3,1,0,250.0,test,5,M
480.413913727,5,1000,1,1,5,0,2,4,3,1,0,250.0,test,5,M
1392.43102074,0,1000,0,1,5,0,2,4,3,1,0,250.0,test,0,M
848.460912704,1,1000,4,1,5,0,2,4,3,1,0,250.0,test,1,M
896.394014359,1,1000,4,1,5,0,2,4,3,1,0,250.0,test,1,M
880.475997925,5,1000,1,1,5,0,2,4,3,1,0,250.0,test,5,M
720.080137253,1,1000,4,1,5,0,2,4,3,1,0,250.0,test,1,M
976.371049881,1,1000,4,1,5,0,2,4,3,1,0,250.0,test,1,M
960.481882095,3,1000,5,1,5,0,2,4,3,1,0,250.0,test,3,M
992.340087891,5,1000,1,1,5,0,2,4,3,1,0,250.0,test,5,M
928.332090378,3,1000,5,1,5,0,2,4,3,1,0,250.0,test,3,M
1200.06608963,1,1000,4,1,5,0,2,4,3,1,0,250.0,test,1,M
784.418106079,3,1000,5,1,5,0,2,4,3,1,0,250.0,test,3,M
880.351066589,2,1000,3,1,5,0,2,4,3,1,0,250.0,test,2,M
784.352064133,3,1000,5,1,5,0,2,4,3,1,0,250.0,test,3,M
848.38104248,2,1000,3,1,5,0,2,4,3,1,0,250.0,test,2,M
2032.00292587,1,1000,4,1,5,0,2,4,3,1,0,250.0,test,1,M
976.396083832,3,1000,5,1,5,0,2,4,3,1,0,250.0,test,3,M
2288.31005096,1,1000,4,1,5,0,2,4,3,1,0,250.0,test,1,M
928.167819977,5,1000,1,1,5,0,2,4,3,1,0,250.0,test,5,M
976.438999176,1,1000,4,1,5,0,2,4,3,1,0,250.0,test,1,M
784.412145615,3,1000,5,1,5,0,2,4,3,1,0,250.0,test,3,M
784.437179565,4,1000,2,1,5,0,2,4,3,1,0,250.0,test,4,M
1168.47300529,2,1000,3,1,5,0,2,4,3,1,0,250.0,test,2,M
736.331939697,4,1000,2,1,5,0,2,4,3,1,0,250.0,test,4,M
944.379091263,2,1000,3,1,5,0,2,4,3,1,0,250.0,test,2,M
911.912918091,4,1000,2,0,5,0,2,4,3,1,0,250.0,test,3,M
592.270851135,4,1000,2,1,5,0,2,4,3,1,0,250.0,test,4,M
688.488006592,5,1000,1,1,5,0,2,4,3,1,0,250.0,test,5,M
1024.42407608,1,1000,4,1,5,0,2,4,3,1,0,250.0,test,1,M
1424.34620857,0,1000,0,1,5,0,2,4,3,1,0,250.0,test,0,M
847.901105881,4,1000,2,1,5,0,2,4,3,1,0,250.0,test,4,M
768.271923065,3,1000,5,1,5,0,2,4,3,1,0,250.0,test,3,M
1472.39112854,0,1000,0,1,5,0,2,4,3,1,0,250.0,test,0,M
912.037134171,1,1000,4,1,5,0,2,4,3,1,0,250.0,test,1,M
976.30906105,1,1000,4,1,5,0,2,4,3,1,0,250.0,test,1,M
624.452114105,1,1000,4,1,5,0,2,4,3,1,0,250.0,test,1,M
1552.20794678,5,1000,1,1,5,0,2,4,3,1,0,250.0,test,5,M
1072.03698158,2,1000,3,1,5,0,2,4,3,1,0,250.0,test,2,M
768.682003021,2,1000,3,1,5,0,2,4,3,1,0,250.0,test,2,M
496.365070343,2,1000,3,1,5,0,2,4,3,1,0,250.0,test,2,M
912.436008453,4,1000,2,1,5,0,2,4,3,1,0,250.0,test,4,M
1184.43107605,5,1000,1,1,5,0,2,4,3,1,0,250.0,test,5,M
512.52913475,5,1000,1,1,5,0,2,4,3,1,0,250.0,test,5,M
816.385030746,2,1000,3,1,5,0,2,4,3,1,0,250.0,test,2,M
1280.44199944,0,1000,0,1,5,0,2,4,3,1,0,250.0,test,0,M
1168.51806641,3,1000,5,1,5,0,2,4,3,1,0,250.0,test,3,M
1168.43295097,0,1000,0,0,5,0,2,4,3,1,0,250.0,test,1,M
1088.40203285,3,1000,5,1,5,0,2,4,3,1,0,250.0,test,3,M
848.460912704,4,1000,2,1,5,0,2,4,3,1,0,250.0,test,4,M
848.315954208,5,1000,1,1,5,0,2,4,3,1,0,250.0,test,5,M
784.35087204,4,1000,2,1,5,0,2,4,3,1,0,250.0,test,4,M
912.503004074,2,1000,3,1,5,0,2,4,3,1,0,250.0,test,2,M
1264.09983635,0,1000,0,1,5,0,2,4,3,1,0,250.0,test,0,M
880.197048187,0,1000,0,1,5,0,2,4,3,1,0,250.0,test,0,M
768.405914307,1,1000,4,1,5,0,2,4,3,1,0,250.0,test,1,M
800.112009048,2,1000,3,1,5,0,2,4,3,1,0,250.0,test,2,M
720.370054245,3,1000,5,1,5,0,2,4,3,1,0,250.0,test,3,M
1184.18002129,0,1000,0,1,5,0,2,4,3,1,0,250.0,test,0,M
800.415039062,1,1000,4,1,5,0,2,4,3,1,0,250.0,test,1,M
992.528915405,4,1000,2,1,5,0,2,4,3,1,0,250.0,test,4,M
784.464836121,2,1000,3,1,5,0,2,4,3,1,0,250.0,test,2,M
928.380012512,4,1000,2,1,5,0,2,4,3,1,0,250.0,test,4,M
1009.05704498,5,1000,1,1,5,0,2,4,3,1,0,250.0,test,5,M
1408.21886063,0,1000,0,1,5,0,2,4,3,1,0,250.0,test,0,M
944.655895233,4,1000,2,1,5,0,2,4,3,1,0,250.0,test,4,M
960.756063461,3,1000,5,1,5,0,2,4,3,1,0,250.0,test,3,M
960.072994232,5,1000,1,1,5,0,2,4,3,1,0,250.0,test,5,M
831.498146057,4,1000,2,1,5,0,2,4,3,1,0,250.0,test,4,M
1072.03722,1,1000,4,1,5,0,2,4,3,1,0,250.0,test,1,M
1296.00000381,0,1000,0,1,5,0,2,4,3,1,0,250.0,test,0,M
767.904043198,2,1000,3,1,5,0,2,4,3,1,0,250.0,test,2,M
656.020879745,2,1000,3,1,5,0,2,4,3,1,0,250.0,test,2,M
1200.14691353,5,1000,1,1,5,0,2,4,3,1,0,250.0,test,5,M
928.175926208,2,1000,3,1,5,0,2,4,3,1,0,250.0,test,2,M
799.787044525,3,1000,5,1,5,0,2,4,3,1,0,250.0,test,3,M
848.00195694,2,1000,3,1,5,0,2,4,3,1,0,250.0,test,2,M
1023.92601967,1,1000,4,1,5,0,2,4,3,1,0,250.0,test,1,M
1215.8768177,1,1000,4,1,5,0,2,4,3,1,0,250.0,test,1,M
1392.29488373,0,1000,0,1,5,0,2,4,3,1,0,250.0,test,0,M
960.19411087,4,1000,2,1,5,0,2,4,3,1,0,250.0,test,4,M
672.33300209,3,1000,5,1,5,0,2,4,3,1,0,250.0,test,3,M
544.398069382,3,1000,5,1,5,0,2,4,3,1,0,250.0,test,3,M
1056.49185181,5,1000,1,1,5,0,2,4,3,1,0,250.0,test,5,M
1072.59202003,1,1000,4,1,5,0,2,4,3,1,0,250.0,test,1,M
992.238044739,0,1000,0,1,5,0,2,4,3,1,0,250.0,test,0,M
672.356843948,1,1000,4,1,5,0,2,4,3,1,0,250.0,test,1,M
736.433982849,3,1000,5,1,5,0,2,4,3,1,0,250.0,test,3,M
1248.38995934,0,1000,0,1,5,0,2,4,3,1,0,250.0,test,0,M
832.37695694,4,1000,2,1,5,0,2,4,3,1,0,250.0,test,4,M
544.238090515,4,1000,2,1,5,0,2,4,3,1,0,250.0,test,4,M
640.246152878,3,1000,5,1,5,0,2,4,3,1,0,250.0,test,3,M
943.912029266,0,1000,0,1,5,0,2,4,3,1,0,250.0,test,0,M
687.405109406,2,1000,3,1,5,0,2,4,3,1,0,250.0,test,2,M
1359.79986191,0,1000,0,1,5,0,2,4,3,1,0,250.0,test,0,M
544.266939163,0,1000,0,1,5,0,2,4,3,1,0,250.0,test,0,M
736.248016357,3,1000,5,1,5,0,2,4,3,1,0,250.0,test,3,M
832.283973694,1,1000,4,1,5,0,2,4,3,1,0,250.0,test,1,M
464.262008667,1,1000,4,1,5,0,2,4,3,1,0,250.0,test,1,M
575.486898422,2,1000,3,1,5,0,2,4,3,1,0,250.0,test,2,M
639.800071716,1,1000,4,1,5,0,2,4,3,1,0,250.0,test,1,M
560.305118561,1,1000,4,1,5,0,2,4,3,1,0,250.0,test,1,M
