RT,correct_response,ms-prestimblank,curstim,correct,SRmap_1,SRmap_0,SRmap_3,SRmap_2,SRmap_5,SRmap_4,ms-precue,ntrials,type,response,condition
672.385931015,0,1000,5,1,1,3,4,5,0,2,0,250.0,train,0,M
544.265031815,3,1000,0,0,1,3,4,5,0,2,0,250.0,train,2,M
592.321157455,1,1000,1,1,1,3,4,5,0,2,0,250.0,train,1,M
560.473918915,1,1000,1,1,1,3,4,5,0,2,0,250.0,train,1,M
416.38302803,2,1000,4,0,1,3,4,5,0,2,0,250.0,train,1,M
704.412937164,4,1000,3,1,1,3,4,5,0,2,0,250.0,train,4,M
1152.07910538,5,1000,2,1,1,3,4,5,0,2,0,250.0,train,5,M
640.761137009,1,1000,1,1,1,3,4,5,0,2,0,250.0,train,1,M
576.460123062,4,1000,3,0,1,3,4,5,0,2,0,250.0,train,5,M
720.284938812,1,1000,1,1,1,3,4,5,0,2,0,250.0,train,1,M
416.420936584,1,1000,1,1,1,3,4,5,0,2,0,250.0,train,1,M
720.411777496,4,1000,3,1,1,3,4,5,0,2,0,250.0,train,4,M
432.438850403,1,1000,1,1,1,3,4,5,0,2,0,250.0,train,1,M
416.477918625,1,1000,1,1,1,3,4,5,0,2,0,250.0,train,1,M
496.872901917,4,1000,3,1,1,3,4,5,0,2,0,250.0,train,4,M
448.554039001,3,1000,0,0,1,3,4,5,0,2,0,250.0,train,2,M
432.385921478,3,1000,0,1,1,3,4,5,0,2,0,250.0,train,3,M
480.251073837,5,1000,2,1,1,3,4,5,0,2,0,250.0,train,5,M
528.428792953,0,1000,5,1,1,3,4,5,0,2,0,250.0,train,0,M
640.532970428,5,1000,2,1,1,3,4,5,0,2,0,250.0,train,5,M
495.968818665,0,1000,5,1,1,3,4,5,0,2,0,250.0,train,0,M
368.48783493,0,1000,5,1,1,3,4,5,0,2,0,250.0,train,0,M
416.441202164,5,1000,2,1,1,3,4,5,0,2,0,250.0,train,5,M
608.485937119,2,1000,4,1,1,3,4,5,0,2,0,250.0,train,2,M
416.321992874,5,1000,2,1,1,3,4,5,0,2,0,250.0,train,5,M
416.459083557,2,1000,4,0,1,3,4,5,0,2,0,250.0,train,1,M
384.340047836,2,1000,4,1,1,3,4,5,0,2,0,250.0,train,2,M
496.371984482,0,1000,5,1,1,3,4,5,0,2,0,250.0,train,0,M
688.433885574,1,1000,1,1,1,3,4,5,0,2,0,250.0,train,1,M
400.442123413,2,1000,4,1,1,3,4,5,0,2,0,250.0,train,2,M
383.878946304,3,1000,0,0,1,3,4,5,0,2,0,250.0,train,2,M
448.393821716,0,1000,5,1,1,3,4,5,0,2,0,250.0,train,0,M
464.414834976,5,1000,2,1,1,3,4,5,0,2,0,250.0,train,5,M
416.468858719,1,1000,1,1,1,3,4,5,0,2,0,250.0,train,1,M
416.379928589,5,1000,2,1,1,3,4,5,0,2,0,250.0,train,5,M
592.577934265,4,1000,3,1,1,3,4,5,0,2,0,250.0,train,4,M
400.332212448,2,1000,4,1,1,3,4,5,0,2,0,250.0,train,2,M
464.471101761,5,1000,2,1,1,3,4,5,0,2,0,250.0,train,5,M
384.443044662,2,1000,4,0,1,3,4,5,0,2,0,250.0,train,1,M
832.412004471,3,1000,0,1,1,3,4,5,0,2,0,250.0,train,3,M
480.365991592,2,1000,4,1,1,3,4,5,0,2,0,250.0,train,2,M
512.826919556,0,1000,5,1,1,3,4,5,0,2,0,250.0,train,0,M
720.308065414,4,1000,3,0,1,3,4,5,0,2,0,250.0,train,5,M
448.33779335,0,1000,5,1,1,3,4,5,0,2,0,250.0,train,0,M
512.30597496,4,1000,3,1,1,3,4,5,0,2,0,250.0,train,4,M
384.303092957,0,1000,5,1,1,3,4,5,0,2,0,250.0,train,0,M
304.323911667,2,1000,4,0,1,3,4,5,0,2,0,250.0,train,1,M
448.460102081,0,1000,5,1,1,3,4,5,0,2,0,250.0,train,0,M
400.321960449,0,1000,5,1,1,3,4,5,0,2,0,250.0,train,0,M
416.276931763,1,1000,1,0,1,3,4,5,0,2,0,250.0,train,4,M
400.832176208,0,1000,5,1,1,3,4,5,0,2,0,250.0,train,0,M
400.403022766,0,1000,5,1,1,3,4,5,0,2,0,250.0,train,0,M
592.395067215,3,1000,0,1,1,3,4,5,0,2,0,250.0,train,3,M
384.406089783,1,1000,1,0,1,3,4,5,0,2,0,250.0,train,0,M
496.529817581,5,1000,2,1,1,3,4,5,0,2,0,250.0,train,5,M
368.802070618,2,1000,4,0,1,3,4,5,0,2,0,250.0,train,1,M
416.328907013,1,1000,1,1,1,3,4,5,0,2,0,250.0,train,1,M
496.356964111,2,1000,4,1,1,3,4,5,0,2,0,250.0,train,2,M
384.379863739,0,1000,5,1,1,3,4,5,0,2,0,250.0,train,0,M
416.409015656,0,1000,5,1,1,3,4,5,0,2,0,250.0,train,0,M
464.792013168,3,1000,0,1,1,3,4,5,0,2,0,250.0,train,3,M
400.464057922,3,1000,0,1,1,3,4,5,0,2,0,250.0,train,3,M
304.515123367,4,1000,3,1,1,3,4,5,0,2,0,250.0,train,4,M
496.366024017,2,1000,4,0,1,3,4,5,0,2,0,250.0,train,1,M
384.383916855,2,1000,4,1,1,3,4,5,0,2,0,250.0,train,2,M
304.365158081,1,1000,1,1,1,3,4,5,0,2,0,250.0,train,1,M
576.399087906,4,1000,3,1,1,3,4,5,0,2,0,250.0,train,4,M
400.367021561,4,1000,3,1,1,3,4,5,0,2,0,250.0,train,4,M
399.567127228,4,1000,3,1,1,3,4,5,0,2,0,250.0,train,4,M
399.585962296,0,1000,5,1,1,3,4,5,0,2,0,250.0,train,0,M
319.571018219,1,1000,1,1,1,3,4,5,0,2,0,250.0,train,1,M
464.704036713,5,1000,2,1,1,3,4,5,0,2,0,250.0,train,5,M
351.176023483,0,1000,5,0,1,3,4,5,0,2,0,250.0,train,1,M
303.613901138,1,1000,1,1,1,3,4,5,0,2,0,250.0,train,1,M
384.314060211,0,1000,5,1,1,3,4,5,0,2,0,250.0,train,0,M
464.803934097,5,1000,2,1,1,3,4,5,0,2,0,250.0,train,5,M
320.347070694,4,1000,3,1,1,3,4,5,0,2,0,250.0,train,4,M
640.326023102,1,1000,1,1,1,3,4,5,0,2,0,250.0,train,1,M
368.383169174,0,1000,5,1,1,3,4,5,0,2,0,250.0,train,0,M
288.334131241,1,1000,1,1,1,3,4,5,0,2,0,250.0,train,1,M
384.863853455,1,1000,1,1,1,3,4,5,0,2,0,250.0,train,1,M
416.390895844,5,1000,2,1,1,3,4,5,0,2,0,250.0,train,5,M
368.422031403,2,1000,4,0,1,3,4,5,0,2,0,250.0,train,1,M
496.364831924,3,1000,0,1,1,3,4,5,0,2,0,250.0,train,3,M
367.208957672,3,1000,0,1,1,3,4,5,0,2,0,250.0,train,3,M
368.20602417,3,1000,0,1,1,3,4,5,0,2,0,250.0,train,3,M
463.60707283,2,1000,4,1,1,3,4,5,0,2,0,250.0,train,2,M
463.549137115,4,1000,3,1,1,3,4,5,0,2,0,250.0,train,4,M
399.653196335,1,1000,1,1,1,3,4,5,0,2,0,250.0,train,1,M
463.902950287,5,1000,2,1,1,3,4,5,0,2,0,250.0,train,5,M
383.478164673,0,1000,5,1,1,3,4,5,0,2,0,250.0,train,0,M
447.339057922,5,1000,2,1,1,3,4,5,0,2,0,250.0,train,5,M
432.018995285,5,1000,2,1,1,3,4,5,0,2,0,250.0,train,5,M
415.519952774,3,1000,0,0,1,3,4,5,0,2,0,250.0,train,2,M
432.803153992,2,1000,4,0,1,3,4,5,0,2,0,250.0,train,1,M
400.369882584,4,1000,3,1,1,3,4,5,0,2,0,250.0,train,4,M
399.433851242,4,1000,3,1,1,3,4,5,0,2,0,250.0,train,4,M
368.239164352,3,1000,0,1,1,3,4,5,0,2,0,250.0,train,3,M
399.610996246,4,1000,3,1,1,3,4,5,0,2,0,250.0,train,4,M
415.520906448,4,1000,3,1,1,3,4,5,0,2,0,250.0,train,4,M
448.278903961,1,1000,1,1,1,3,4,5,0,2,0,250.0,train,1,M
464.27822113,3,1000,0,1,1,3,4,5,0,2,0,250.0,train,3,M
448.302030563,2,1000,4,0,1,3,4,5,0,2,0,250.0,train,1,M
384.315013885,5,1000,2,1,1,3,4,5,0,2,0,250.0,train,5,M
400.279045105,0,1000,5,1,1,3,4,5,0,2,0,250.0,train,0,M
448.307037354,2,1000,4,1,1,3,4,5,0,2,0,250.0,train,2,M
432.917118073,5,1000,2,1,1,3,4,5,0,2,0,250.0,train,5,M
416.36300087,3,1000,0,0,1,3,4,5,0,2,0,250.0,train,2,M
400.372028351,0,1000,5,1,1,3,4,5,0,2,0,250.0,train,0,M
448.442935944,4,1000,3,1,1,3,4,5,0,2,0,250.0,train,4,M
384.408950806,1,1000,1,1,1,3,4,5,0,2,0,250.0,train,1,M
400.460958481,0,1000,5,1,1,3,4,5,0,2,0,250.0,train,0,M
336.400032043,1,1000,1,0,1,3,4,5,0,2,0,250.0,train,2,M
416.422128677,1,1000,1,1,1,3,4,5,0,2,0,250.0,train,1,M
368.398189545,0,1000,5,1,1,3,4,5,0,2,0,250.0,train,0,M
560.469865799,4,1000,3,1,1,3,4,5,0,2,0,250.0,train,4,M
432.327985764,2,1000,4,1,1,3,4,5,0,2,0,250.0,train,2,M
432.416200638,0,1000,5,1,1,3,4,5,0,2,0,250.0,train,0,M
400.308132172,5,1000,2,1,1,3,4,5,0,2,0,250.0,train,5,M
480.751037598,2,1000,4,1,1,3,4,5,0,2,0,250.0,train,2,M
304.479837418,1,1000,1,1,1,3,4,5,0,2,0,250.0,train,1,M
416.398048401,3,1000,0,0,1,3,4,5,0,2,0,250.0,train,4,M
400.875091553,0,1000,5,1,1,3,4,5,0,2,0,250.0,train,0,M
288.42997551,1,1000,1,1,1,3,4,5,0,2,0,250.0,train,1,M
384.341955185,4,1000,3,1,1,3,4,5,0,2,0,250.0,train,4,M
304.371118546,2,1000,4,0,1,3,4,5,0,2,0,250.0,train,4,M
416.812896729,4,1000,3,1,1,3,4,5,0,2,0,250.0,train,4,M
400.48289299,5,1000,2,1,1,3,4,5,0,2,0,250.0,train,5,M
448.45700264,4,1000,3,1,1,3,4,5,0,2,0,250.0,train,4,M
416.3210392,1,1000,1,1,1,3,4,5,0,2,0,250.0,train,1,M
400.435209274,2,1000,4,0,1,3,4,5,0,2,0,250.0,train,4,M
560.461997986,3,1000,0,1,1,3,4,5,0,2,0,250.0,train,3,M
432.33704567,1,1000,1,1,1,3,4,5,0,2,0,250.0,train,1,M
480.360984802,4,1000,3,1,1,3,4,5,0,2,0,250.0,train,4,M
416.353225708,5,1000,2,1,1,3,4,5,0,2,0,250.0,train,5,M
384.768009186,2,1000,4,0,1,3,4,5,0,2,0,250.0,train,1,M
400.470018387,2,1000,4,1,1,3,4,5,0,2,0,250.0,train,2,M
400.389194489,1,1000,1,1,1,3,4,5,0,2,0,250.0,train,1,M
720.444917679,3,1000,0,1,1,3,4,5,0,2,0,250.0,train,3,M
320.281028748,4,1000,3,1,1,3,4,5,0,2,0,250.0,train,4,M
496.260881424,2,1000,4,1,1,3,4,5,0,2,0,250.0,train,2,M
400.346040726,0,1000,5,1,1,3,4,5,0,2,0,250.0,train,0,M
432.363986969,4,1000,3,1,1,3,4,5,0,2,0,250.0,train,4,M
416.326999664,1,1000,1,1,1,3,4,5,0,2,0,250.0,train,1,M
463.527917862,3,1000,0,1,1,3,4,5,0,2,0,250.0,train,3,M
400.362014771,5,1000,2,1,1,3,4,5,0,2,0,250.0,train,5,M
384.299993515,1,1000,1,1,1,3,4,5,0,2,0,250.0,train,1,M
480.417013168,5,1000,2,1,1,3,4,5,0,2,0,250.0,train,5,M
432.420015335,0,1000,5,1,1,3,4,5,0,2,0,250.0,train,0,M
448.465108871,2,1000,4,1,1,3,4,5,0,2,0,250.0,train,2,M
352.483987808,1,1000,1,1,1,3,4,5,0,2,0,250.0,train,1,M
448.596000671,1,1000,1,1,1,3,4,5,0,2,0,250.0,train,1,M
464.542865753,2,1000,4,1,1,3,4,5,0,2,0,250.0,train,2,M
448.559999466,1,1000,1,1,1,3,4,5,0,2,0,250.0,train,1,M
352.427959442,3,1000,0,1,1,3,4,5,0,2,0,250.0,train,3,M
304.629087448,3,1000,0,1,1,3,4,5,0,2,0,250.0,train,3,M
288.515806198,4,1000,3,1,1,3,4,5,0,2,0,250.0,train,4,M
336.402177811,4,1000,3,1,1,3,4,5,0,2,0,250.0,train,4,M
352.483987808,4,1000,3,1,1,3,4,5,0,2,0,250.0,train,4,M
384.545087814,3,1000,0,1,1,3,4,5,0,2,0,250.0,train,3,M
288.87796402,4,1000,3,1,1,3,4,5,0,2,0,250.0,train,4,M
336.616039276,5,1000,2,1,1,3,4,5,0,2,0,250.0,train,5,M
352.923870087,4,1000,3,1,1,3,4,5,0,2,0,250.0,train,4,M
304.581880569,3,1000,0,1,1,3,4,5,0,2,0,250.0,train,3,M
321.799993515,1,1000,1,1,1,3,4,5,0,2,0,250.0,train,1,M
368.517160416,2,1000,4,1,1,3,4,5,0,2,0,250.0,train,2,M
432.021141052,3,1000,0,0,1,3,4,5,0,2,0,250.0,train,2,M
400.16412735,2,1000,4,0,1,3,4,5,0,2,0,250.0,train,4,M
384.442090988,4,1000,3,0,1,3,4,5,0,2,0,250.0,train,3,M
448.246002197,0,1000,5,1,1,3,4,5,0,2,0,250.0,train,0,M
400.264024734,0,1000,5,1,1,3,4,5,0,2,0,250.0,train,0,M
512.900114059,2,1000,4,1,1,3,4,5,0,2,0,250.0,train,2,M
464.92600441,5,1000,2,1,1,3,4,5,0,2,0,250.0,train,5,M
416.882991791,3,1000,0,1,1,3,4,5,0,2,0,250.0,train,3,M
384.919166565,2,1000,4,0,1,3,4,5,0,2,0,250.0,train,4,M
447.635889053,1,1000,1,1,1,3,4,5,0,2,0,250.0,train,1,M
448.141813278,0,1000,5,1,1,3,4,5,0,2,0,250.0,train,0,M
480.355978012,3,1000,0,1,1,3,4,5,0,2,0,250.0,train,3,M
383.819103241,2,1000,4,1,1,3,4,5,0,2,0,250.0,train,2,M
592.303991318,5,1000,2,1,1,3,4,5,0,2,0,250.0,train,5,M
336.391925812,4,1000,3,0,1,3,4,5,0,2,0,250.0,train,3,M
448.317050934,5,1000,2,1,1,3,4,5,0,2,0,250.0,train,5,M
416.471004486,2,1000,4,1,1,3,4,5,0,2,0,250.0,train,2,M
384.572029114,1,1000,1,1,1,3,4,5,0,2,0,250.0,train,1,M
400.372028351,1,1000,1,1,1,3,4,5,0,2,0,250.0,train,1,M
464.592933655,5,1000,2,1,1,3,4,5,0,2,0,250.0,train,5,M
400.508165359,5,1000,2,1,1,3,4,5,0,2,0,250.0,train,5,M
320.461988449,5,1000,2,1,1,3,4,5,0,2,0,250.0,train,5,M
416.428089142,5,1000,2,1,1,3,4,5,0,2,0,250.0,train,5,M
416.82100296,0,1000,5,1,1,3,4,5,0,2,0,250.0,train,0,M
496.341943741,3,1000,0,1,1,3,4,5,0,2,0,250.0,train,3,M
368.806123734,1,1000,1,1,1,3,4,5,0,2,0,250.0,train,1,M
416.265964508,0,1000,5,1,1,3,4,5,0,2,0,250.0,train,0,M
384.907007217,3,1000,0,0,1,3,4,5,0,2,0,250.0,train,4,M
400.424003601,0,1000,5,1,1,3,4,5,0,2,0,250.0,train,0,M
432.463169098,2,1000,4,1,1,3,4,5,0,2,0,250.0,train,2,M
384.413957596,2,1000,4,0,1,3,4,5,0,2,0,250.0,train,3,M
432.932853699,2,1000,4,1,1,3,4,5,0,2,0,250.0,train,2,M
384.526968002,1,1000,1,1,1,3,4,5,0,2,0,250.0,train,1,M
496.817111969,4,1000,3,0,1,3,4,5,0,2,0,250.0,train,3,M
480.353832245,4,1000,3,1,1,3,4,5,0,2,0,250.0,train,4,M
384.425163269,5,1000,2,1,1,3,4,5,0,2,0,250.0,train,5,M
352.336168289,4,1000,3,1,1,3,4,5,0,2,0,250.0,train,4,M
464.427947998,0,1000,5,1,1,3,4,5,0,2,0,250.0,train,0,M
384.285926819,4,1000,3,1,1,3,4,5,0,2,0,250.0,train,4,M
448.42505455,3,1000,0,0,1,3,4,5,0,2,0,250.0,train,2,M
336.351156235,2,1000,4,1,1,3,4,5,0,2,0,250.0,train,2,M
512.331962585,4,1000,3,1,1,3,4,5,0,2,0,250.0,train,4,M
496.372938156,3,1000,0,0,1,3,4,5,0,2,0,250.0,train,2,M
416.48888588,0,1000,5,1,1,3,4,5,0,2,0,250.0,train,0,M
480.380773544,3,1000,0,1,1,3,4,5,0,2,0,250.0,train,3,M
432.389974594,0,1000,5,1,1,3,4,5,0,2,0,250.0,train,0,M
384.294033051,3,1000,0,1,1,3,4,5,0,2,0,250.0,train,3,M
304.395914078,4,1000,3,1,1,3,4,5,0,2,0,250.0,train,4,M
400.293111801,5,1000,2,1,1,3,4,5,0,2,0,250.0,train,5,M
336.302995682,1,1000,1,1,1,3,4,5,0,2,0,250.0,train,1,M
383.584976196,1,1000,1,1,1,3,4,5,0,2,0,250.0,train,1,M
432.410001755,5,1000,2,1,1,3,4,5,0,2,0,250.0,train,5,M
768.347978592,3,1000,0,1,1,3,4,5,0,2,0,250.0,train,3,M
400.408029556,0,1000,5,0,1,3,4,5,0,2,0,250.0,train,1,M
416.202068329,5,1000,2,1,1,3,4,5,0,2,0,250.0,train,5,M
432.175159454,1,1000,1,1,1,3,4,5,0,2,0,250.0,train,1,M
432.327985764,2,1000,4,1,1,3,4,5,0,2,0,250.0,train,2,M
464.554071426,1,1000,1,1,1,3,4,5,0,2,0,250.0,train,1,M
464.519023895,5,1000,2,1,1,3,4,5,0,2,0,250.0,train,5,M
304.43406105,4,1000,3,1,1,3,4,5,0,2,0,250.0,train,4,M
400.548934937,5,1000,2,1,1,3,4,5,0,2,0,250.0,train,5,M
480.437040329,3,1000,0,0,1,3,4,5,0,2,0,250.0,train,2,M
400.362968445,5,1000,2,1,1,3,4,5,0,2,0,250.0,train,5,M
384.268045425,0,1000,5,1,1,3,4,5,0,2,0,250.0,train,0,M
464.3201828,4,1000,3,1,1,3,4,5,0,2,0,250.0,train,4,M
496.297836304,2,1000,4,1,1,3,4,5,0,2,0,250.0,train,2,M
416.351079941,4,1000,3,1,1,3,4,5,0,2,0,250.0,train,4,M
400.538921356,4,1000,3,1,1,3,4,5,0,2,0,250.0,train,4,M
416.460037231,5,1000,2,1,1,3,4,5,0,2,0,250.0,train,5,M
384.476900101,4,1000,3,1,1,3,4,5,0,2,0,250.0,train,4,M
528.522014618,2,1000,4,1,1,3,4,5,0,2,0,250.0,train,2,M
384.381055832,1,1000,1,1,1,3,4,5,0,2,0,250.0,train,1,M
432.501077652,1,1000,1,1,1,3,4,5,0,2,0,250.0,train,1,M
464.359045029,3,1000,0,1,1,3,4,5,0,2,0,250.0,train,3,M
368.377923965,3,1000,0,1,1,3,4,5,0,2,0,250.0,train,3,M
464.488983154,0,1000,5,1,1,3,4,5,0,2,0,250.0,train,0,M
384.412050247,0,1000,5,1,1,3,4,5,0,2,0,250.0,train,0,M
416.546106339,5,1000,2,1,1,3,4,5,0,2,0,250.0,train,5,M
448.423147202,1,1000,1,1,1,3,4,5,0,2,0,250.0,train,1,M
432.546854019,3,1000,0,1,1,3,4,5,0,2,0,250.0,train,3,M
400.374889374,5,1000,2,1,1,3,4,5,0,2,0,250.0,train,5,M
384.479999542,3,1000,0,0,1,3,4,5,0,2,0,250.0,train,5,M
432.450056076,3,1000,0,1,1,3,4,5,0,2,0,250.0,train,3,M
416.54086113,0,1000,5,1,1,3,4,5,0,2,0,250.0,train,0,M
17791.5360928,1,1000,1,1,1,3,4,5,0,2,0,250.0,test,1,M
1040.361166,5,1000,2,1,1,3,4,5,0,2,0,250.0,test,5,M
1376.26600266,2,1000,4,1,1,3,4,5,0,2,0,250.0,test,2,M
480.468988419,2,1000,4,1,1,3,4,5,0,2,0,250.0,test,2,M
704.44393158,5,1000,2,1,1,3,4,5,0,2,0,250.0,test,5,M
640.316009521,3,1000,0,1,1,3,4,5,0,2,0,250.0,test,3,M
480.427980423,4,1000,3,1,1,3,4,5,0,2,0,250.0,test,4,M
1360.36300659,3,1000,0,1,1,3,4,5,0,2,0,250.0,test,3,M
720.43800354,2,1000,4,0,1,3,4,5,0,2,0,250.0,test,1,M
768.450021744,3,1000,0,1,1,3,4,5,0,2,0,250.0,test,3,M
528.485059738,1,1000,1,1,1,3,4,5,0,2,0,250.0,test,1,M
512.34292984,2,1000,4,0,1,3,4,5,0,2,0,250.0,test,3,M
640.367031097,5,1000,2,1,1,3,4,5,0,2,0,250.0,test,5,M
448.325872421,3,1000,0,1,1,3,4,5,0,2,0,250.0,test,3,M
544.450044632,0,1000,5,0,1,3,4,5,0,2,0,250.0,test,4,M
480.73887825,4,1000,3,1,1,3,4,5,0,2,0,250.0,test,4,M
496.448993683,5,1000,2,1,1,3,4,5,0,2,0,250.0,test,5,M
401.275157928,3,1000,0,1,1,3,4,5,0,2,0,250.0,test,3,M
480.51404953,3,1000,0,1,1,3,4,5,0,2,0,250.0,test,3,M
480.418920517,1,1000,1,1,1,3,4,5,0,2,0,250.0,test,1,M
864.373922348,4,1000,3,1,1,3,4,5,0,2,0,250.0,test,4,M
720.506906509,2,1000,4,1,1,3,4,5,0,2,0,250.0,test,2,M
272.433042526,0,1000,5,1,1,3,4,5,0,2,0,250.0,test,0,M
480.508089066,0,1000,5,1,1,3,4,5,0,2,0,250.0,test,0,M
480.455875397,4,1000,3,1,1,3,4,5,0,2,0,250.0,test,4,M
432.494878769,0,1000,5,0,1,3,4,5,0,2,0,250.0,test,4,M
624.339103699,3,1000,0,1,1,3,4,5,0,2,0,250.0,test,3,M
688.730955124,2,1000,4,1,1,3,4,5,0,2,0,250.0,test,2,M
448.351144791,2,1000,4,1,1,3,4,5,0,2,0,250.0,test,2,M
496.188163757,1,1000,1,1,1,3,4,5,0,2,0,250.0,test,1,M
528.388977051,4,1000,3,1,1,3,4,5,0,2,0,250.0,test,4,M
496.453046799,2,1000,4,1,1,3,4,5,0,2,0,250.0,test,2,M
592.4680233,4,1000,3,1,1,3,4,5,0,2,0,250.0,test,4,M
480.463981628,5,1000,2,1,1,3,4,5,0,2,0,250.0,test,5,M
560.389995575,3,1000,0,0,1,3,4,5,0,2,0,250.0,test,2,M
448.272943497,2,1000,4,1,1,3,4,5,0,2,0,250.0,test,2,M
479.915857315,5,1000,2,1,1,3,4,5,0,2,0,250.0,test,5,M
464.432954788,0,1000,5,0,1,3,4,5,0,2,0,250.0,test,4,M
688.379049301,3,1000,0,1,1,3,4,5,0,2,0,250.0,test,3,M
352.36287117,2,1000,4,1,1,3,4,5,0,2,0,250.0,test,2,M
544.462919235,4,1000,3,1,1,3,4,5,0,2,0,250.0,test,4,M
288.269996643,0,1000,5,1,1,3,4,5,0,2,0,250.0,test,0,M
640.331983566,3,1000,0,1,1,3,4,5,0,2,0,250.0,test,3,M
352.463960648,2,1000,4,1,1,3,4,5,0,2,0,250.0,test,2,M
432.332992554,0,1000,5,0,1,3,4,5,0,2,0,250.0,test,1,M
448.375940323,4,1000,3,1,1,3,4,5,0,2,0,250.0,test,4,M
464.470148087,0,1000,5,0,1,3,4,5,0,2,0,250.0,test,1,M
752.429008484,4,1000,3,1,1,3,4,5,0,2,0,250.0,test,4,M
864.516973495,3,1000,0,1,1,3,4,5,0,2,0,250.0,test,3,M
656.467199326,0,1000,5,1,1,3,4,5,0,2,0,250.0,test,0,M
512.476205826,3,1000,0,1,1,3,4,5,0,2,0,250.0,test,3,M
480.382919312,4,1000,3,0,1,3,4,5,0,2,0,250.0,test,1,M
624.383926392,3,1000,0,1,1,3,4,5,0,2,0,250.0,test,3,M
496.402025223,4,1000,3,1,1,3,4,5,0,2,0,250.0,test,4,M
464.400053024,1,1000,1,1,1,3,4,5,0,2,0,250.0,test,1,M
624.367952347,4,1000,3,1,1,3,4,5,0,2,0,250.0,test,4,M
481.0090065,1,1000,1,1,1,3,4,5,0,2,0,250.0,test,1,M
480.34787178,5,1000,2,1,1,3,4,5,0,2,0,250.0,test,5,M
592.918872833,3,1000,0,1,1,3,4,5,0,2,0,250.0,test,3,M
720.567941666,0,1000,5,1,1,3,4,5,0,2,0,250.0,test,0,M
512.406110764,2,1000,4,1,1,3,4,5,0,2,0,250.0,test,2,M
528.455018997,1,1000,1,1,1,3,4,5,0,2,0,250.0,test,1,M
432.527065277,5,1000,2,1,1,3,4,5,0,2,0,250.0,test,5,M
480.437040329,4,1000,3,1,1,3,4,5,0,2,0,250.0,test,4,M
528.48482132,0,1000,5,1,1,3,4,5,0,2,0,250.0,test,0,M
480.503082275,5,1000,2,1,1,3,4,5,0,2,0,250.0,test,5,M
448.504924774,1,1000,1,1,1,3,4,5,0,2,0,250.0,test,1,M
448.271989822,2,1000,4,0,1,3,4,5,0,2,0,250.0,test,1,M
416.765928268,5,1000,2,1,1,3,4,5,0,2,0,250.0,test,5,M
432.455062866,2,1000,4,1,1,3,4,5,0,2,0,250.0,test,2,M
464.519023895,4,1000,3,1,1,3,4,5,0,2,0,250.0,test,4,M
512.492895126,3,1000,0,0,1,3,4,5,0,2,0,250.0,test,2,M
400.416135788,3,1000,0,1,1,3,4,5,0,2,0,250.0,test,3,M
480.479001999,1,1000,1,1,1,3,4,5,0,2,0,250.0,test,1,M
432.841062546,5,1000,2,1,1,3,4,5,0,2,0,250.0,test,5,M
496.464967728,1,1000,1,1,1,3,4,5,0,2,0,250.0,test,1,M
448.823928833,4,1000,3,1,1,3,4,5,0,2,0,250.0,test,4,M
496.351957321,2,1000,4,1,1,3,4,5,0,2,0,250.0,test,2,M
528.512954712,3,1000,0,1,1,3,4,5,0,2,0,250.0,test,3,M
448.434114456,5,1000,2,1,1,3,4,5,0,2,0,250.0,test,5,M
480.357170105,3,1000,0,1,1,3,4,5,0,2,0,250.0,test,3,M
480.402946472,2,1000,4,0,1,3,4,5,0,2,0,250.0,test,3,M
448.402881622,4,1000,3,1,1,3,4,5,0,2,0,250.0,test,4,M
560.429096222,2,1000,4,1,1,3,4,5,0,2,0,250.0,test,2,M
480.464935303,1,1000,1,1,1,3,4,5,0,2,0,250.0,test,1,M
608.495235443,3,1000,0,1,1,3,4,5,0,2,0,250.0,test,3,M
512.325048447,2,1000,4,0,1,3,4,5,0,2,0,250.0,test,3,M
560.357809067,0,1000,5,1,1,3,4,5,0,2,0,250.0,test,0,M
448.410987854,1,1000,1,1,1,3,4,5,0,2,0,250.0,test,1,M
512.480020523,0,1000,5,1,1,3,4,5,0,2,0,250.0,test,0,M
448.462963104,4,1000,3,1,1,3,4,5,0,2,0,250.0,test,4,M
496.484041214,1,1000,1,1,1,3,4,5,0,2,0,250.0,test,1,M
528.481006622,4,1000,3,1,1,3,4,5,0,2,0,250.0,test,4,M
352.454900742,1,1000,1,0,1,3,4,5,0,2,0,250.0,test,5,M
528.401851654,2,1000,4,0,1,3,4,5,0,2,0,250.0,test,3,M
448.318958282,4,1000,3,1,1,3,4,5,0,2,0,250.0,test,4,M
416.341781616,0,1000,5,0,1,3,4,5,0,2,0,250.0,test,1,M
480.41176796,0,1000,5,1,1,3,4,5,0,2,0,250.0,test,0,M
448.328971863,4,1000,3,1,1,3,4,5,0,2,0,250.0,test,4,M
448.484182358,0,1000,5,1,1,3,4,5,0,2,0,250.0,test,0,M
480.511903763,5,1000,2,1,1,3,4,5,0,2,0,250.0,test,5,M
464.453935623,0,1000,5,1,1,3,4,5,0,2,0,250.0,test,0,M
528.459072113,2,1000,4,0,1,3,4,5,0,2,0,250.0,test,3,M
544.418096542,5,1000,2,1,1,3,4,5,0,2,0,250.0,test,5,M
1088.03105354,3,1000,0,1,1,3,4,5,0,2,0,250.0,test,3,M
528.501033783,0,1000,5,1,1,3,4,5,0,2,0,250.0,test,0,M
464.487075806,4,1000,3,1,1,3,4,5,0,2,0,250.0,test,4,M
464.519023895,2,1000,4,1,1,3,4,5,0,2,0,250.0,test,2,M
464.489936829,2,1000,4,1,1,3,4,5,0,2,0,250.0,test,2,M
384.427070618,3,1000,0,0,1,3,4,5,0,2,0,250.0,test,0,M
576.415061951,1,1000,1,1,1,3,4,5,0,2,0,250.0,test,1,M
576.504945755,3,1000,0,1,1,3,4,5,0,2,0,250.0,test,3,M
544.474124908,3,1000,0,1,1,3,4,5,0,2,0,250.0,test,3,M
480.486154556,1,1000,1,1,1,3,4,5,0,2,0,250.0,test,1,M
496.452093124,3,1000,0,1,1,3,4,5,0,2,0,250.0,test,3,M
416.452169418,3,1000,0,1,1,3,4,5,0,2,0,250.0,test,3,M
432.324886322,1,1000,1,1,1,3,4,5,0,2,0,250.0,test,1,M
609.01594162,2,1000,4,1,1,3,4,5,0,2,0,250.0,test,2,M
528.450012207,5,1000,2,1,1,3,4,5,0,2,0,250.0,test,5,M
608.450889587,2,1000,4,1,1,3,4,5,0,2,0,250.0,test,2,M
496.028184891,4,1000,3,1,1,3,4,5,0,2,0,250.0,test,4,M
480.508089066,1,1000,1,1,1,3,4,5,0,2,0,250.0,test,1,M
480.484962463,0,1000,5,1,1,3,4,5,0,2,0,250.0,test,0,M
384.405136108,1,1000,1,0,1,3,4,5,0,2,0,250.0,test,0,M
416.385889053,4,1000,3,1,1,3,4,5,0,2,0,250.0,test,4,M
464.405059814,4,1000,3,1,1,3,4,5,0,2,0,250.0,test,4,M
432.374000549,0,1000,5,1,1,3,4,5,0,2,0,250.0,test,0,M
432.49797821,0,1000,5,1,1,3,4,5,0,2,0,250.0,test,0,M
320.378065109,0,1000,5,1,1,3,4,5,0,2,0,250.0,test,0,M
400.357961655,4,1000,3,1,1,3,4,5,0,2,0,250.0,test,4,M
368.909835815,4,1000,3,0,1,3,4,5,0,2,0,250.0,test,1,M
528.316020966,3,1000,0,1,1,3,4,5,0,2,0,250.0,test,3,M
384.416818619,3,1000,0,1,1,3,4,5,0,2,0,250.0,test,3,M
384.438991547,3,1000,0,1,1,3,4,5,0,2,0,250.0,test,3,M
368.326187134,3,1000,0,1,1,3,4,5,0,2,0,250.0,test,3,M
480.515003204,1,1000,1,1,1,3,4,5,0,2,0,250.0,test,1,M
352.495908737,1,1000,1,1,1,3,4,5,0,2,0,250.0,test,1,M
495.985031128,3,1000,0,1,1,3,4,5,0,2,0,250.0,test,3,M
448.473930359,5,1000,2,1,1,3,4,5,0,2,0,250.0,test,5,M
448.419094086,4,1000,3,1,1,3,4,5,0,2,0,250.0,test,4,M
368.355989456,0,1000,5,0,1,3,4,5,0,2,0,250.0,test,1,M
416.275024414,0,1000,5,1,1,3,4,5,0,2,0,250.0,test,0,M
335.777044296,0,1000,5,1,1,3,4,5,0,2,0,250.0,test,0,M
496.273040771,3,1000,0,1,1,3,4,5,0,2,0,250.0,test,3,M
383.57591629,3,1000,0,1,1,3,4,5,0,2,0,250.0,test,3,M
448.127031326,1,1000,1,1,1,3,4,5,0,2,0,250.0,test,1,M
384.775161743,4,1000,3,1,1,3,4,5,0,2,0,250.0,test,4,M
480.428218842,1,1000,1,1,1,3,4,5,0,2,0,250.0,test,1,M
304.762125015,4,1000,3,1,1,3,4,5,0,2,0,250.0,test,4,M
416.489839554,5,1000,2,1,1,3,4,5,0,2,0,250.0,test,5,M
384.740829468,0,1000,5,0,1,3,4,5,0,2,0,250.0,test,4,M
496.324062347,1,1000,1,1,1,3,4,5,0,2,0,250.0,test,1,M
400.4778862,4,1000,3,1,1,3,4,5,0,2,0,250.0,test,4,M
448.439836502,1,1000,1,1,1,3,4,5,0,2,0,250.0,test,1,M
592.220067978,0,1000,5,1,1,3,4,5,0,2,0,250.0,test,0,M
448.463916779,4,1000,3,1,1,3,4,5,0,2,0,250.0,test,4,M
512.481927872,3,1000,0,1,1,3,4,5,0,2,0,250.0,test,3,M
496.299028397,2,1000,4,1,1,3,4,5,0,2,0,250.0,test,2,M
640.465021133,0,1000,5,1,1,3,4,5,0,2,0,250.0,test,0,M
544.435977936,2,1000,4,1,1,3,4,5,0,2,0,250.0,test,2,M
624.348163605,0,1000,5,1,1,3,4,5,0,2,0,250.0,test,0,M
432.293176651,0,1000,5,1,1,3,4,5,0,2,0,250.0,test,0,M
496.268033981,1,1000,1,1,1,3,4,5,0,2,0,250.0,test,1,M
447.94678688,0,1000,5,1,1,3,4,5,0,2,0,250.0,test,0,M
368.323087692,1,1000,1,1,1,3,4,5,0,2,0,250.0,test,1,M
512.788057327,3,1000,0,0,1,3,4,5,0,2,0,250.0,test,2,M
464.325904846,3,1000,0,1,1,3,4,5,0,2,0,250.0,test,3,M
432.486057281,4,1000,3,1,1,3,4,5,0,2,0,250.0,test,4,M
512.495040894,2,1000,4,1,1,3,4,5,0,2,0,250.0,test,2,M
528.478860855,3,1000,0,1,1,3,4,5,0,2,0,250.0,test,3,M
383.930921555,3,1000,0,1,1,3,4,5,0,2,0,250.0,test,3,M
368.443012238,4,1000,3,1,1,3,4,5,0,2,0,250.0,test,4,M
480.413913727,1,1000,1,1,1,3,4,5,0,2,0,250.0,test,1,M
496.86384201,3,1000,0,1,1,3,4,5,0,2,0,250.0,test,3,M
496.739864349,1,1000,1,1,1,3,4,5,0,2,0,250.0,test,1,M
384.746074677,4,1000,3,1,1,3,4,5,0,2,0,250.0,test,4,M
464.831113815,5,1000,2,0,1,3,4,5,0,2,0,250.0,test,4,M
384.761095047,5,1000,2,1,1,3,4,5,0,2,0,250.0,test,5,M
448.728084564,1,1000,1,1,1,3,4,5,0,2,0,250.0,test,1,M
432.789802551,4,1000,3,1,1,3,4,5,0,2,0,250.0,test,4,M
448.126077652,3,1000,0,0,1,3,4,5,0,2,0,250.0,test,2,M
431.937932968,3,1000,0,1,1,3,4,5,0,2,0,250.0,test,3,M
528.045892715,2,1000,4,1,1,3,4,5,0,2,0,250.0,test,2,M
752.007007599,0,1000,5,1,1,3,4,5,0,2,0,250.0,test,0,M
528.043031693,4,1000,3,1,1,3,4,5,0,2,0,250.0,test,4,M
464.037895203,4,1000,3,1,1,3,4,5,0,2,0,250.0,test,4,M
512.794971466,2,1000,4,1,1,3,4,5,0,2,0,250.0,test,2,M
464.066028595,5,1000,2,1,1,3,4,5,0,2,0,250.0,test,5,M
480.108976364,1,1000,1,1,1,3,4,5,0,2,0,250.0,test,1,M
479.916095734,3,1000,0,1,1,3,4,5,0,2,0,250.0,test,3,M
432.317972183,4,1000,3,1,1,3,4,5,0,2,0,250.0,test,4,M
447.743177414,3,1000,0,1,1,3,4,5,0,2,0,250.0,test,3,M
447.880983353,1,1000,1,1,1,3,4,5,0,2,0,250.0,test,1,M
416.061162949,3,1000,0,1,1,3,4,5,0,2,0,250.0,test,3,M
400.805950165,4,1000,3,1,1,3,4,5,0,2,0,250.0,test,4,M
383.881092072,5,1000,2,1,1,3,4,5,0,2,0,250.0,test,5,M
528.099060059,0,1000,5,1,1,3,4,5,0,2,0,250.0,test,0,M
575.520038605,2,1000,4,1,1,3,4,5,0,2,0,250.0,test,2,M
432.695865631,0,1000,5,0,1,3,4,5,0,2,0,250.0,test,1,M
431.957006454,5,1000,2,1,1,3,4,5,0,2,0,250.0,test,5,M
416.005134583,2,1000,4,1,1,3,4,5,0,2,0,250.0,test,2,M
480.208873749,0,1000,5,1,1,3,4,5,0,2,0,250.0,test,0,M
335.394859314,3,1000,0,1,1,3,4,5,0,2,0,250.0,test,3,M
415.76385498,4,1000,3,1,1,3,4,5,0,2,0,250.0,test,4,M
448.781967163,0,1000,5,1,1,3,4,5,0,2,0,250.0,test,0,M
480.086088181,2,1000,4,1,1,3,4,5,0,2,0,250.0,test,2,M
479.935884476,5,1000,2,1,1,3,4,5,0,2,0,250.0,test,5,M
416.436910629,4,1000,3,1,1,3,4,5,0,2,0,250.0,test,4,M
527.879953384,2,1000,4,1,1,3,4,5,0,2,0,250.0,test,2,M
416.548013687,4,1000,3,1,1,3,4,5,0,2,0,250.0,test,4,M
464.887857437,1,1000,1,1,1,3,4,5,0,2,0,250.0,test,1,M
480.336904526,5,1000,2,1,1,3,4,5,0,2,0,250.0,test,5,M
448.493003845,1,1000,1,1,1,3,4,5,0,2,0,250.0,test,1,M
336.482048035,0,1000,5,1,1,3,4,5,0,2,0,250.0,test,0,M
399.614095688,4,1000,3,1,1,3,4,5,0,2,0,250.0,test,4,M
368.139028549,4,1000,3,1,1,3,4,5,0,2,0,250.0,test,4,M
271.810054779,4,1000,3,1,1,3,4,5,0,2,0,250.0,test,4,M
496.773004532,5,1000,2,1,1,3,4,5,0,2,0,250.0,test,5,M
463.468074799,1,1000,1,1,1,3,4,5,0,2,0,250.0,test,1,M
400.795936584,3,1000,0,0,1,3,4,5,0,2,0,250.0,test,0,M
448.791980743,4,1000,3,1,1,3,4,5,0,2,0,250.0,test,4,M
464.818954468,5,1000,2,1,1,3,4,5,0,2,0,250.0,test,5,M
448.781967163,5,1000,2,1,1,3,4,5,0,2,0,250.0,test,5,M
479.949951172,2,1000,4,1,1,3,4,5,0,2,0,250.0,test,2,M
479.698896408,1,1000,1,0,1,3,4,5,0,2,0,250.0,test,0,M
319.864988327,4,1000,3,1,1,3,4,5,0,2,0,250.0,test,4,M
512.279987335,3,1000,0,0,1,3,4,5,0,2,0,250.0,test,2,M
320.101976395,4,1000,3,1,1,3,4,5,0,2,0,250.0,test,4,M
463.829040527,5,1000,2,1,1,3,4,5,0,2,0,250.0,test,5,M
448.126077652,5,1000,2,1,1,3,4,5,0,2,0,250.0,test,5,M
432.021856308,1,1000,1,1,1,3,4,5,0,2,0,250.0,test,1,M
432.181119919,1,1000,1,0,1,3,4,5,0,2,0,250.0,test,2,M
495.887994766,2,1000,4,1,1,3,4,5,0,2,0,250.0,test,2,M
400.261878967,1,1000,1,1,1,3,4,5,0,2,0,250.0,test,1,M
463.944911957,3,1000,0,1,1,3,4,5,0,2,0,250.0,test,3,M
512.364149094,5,1000,2,1,1,3,4,5,0,2,0,250.0,test,5,M
415.936946869,1,1000,1,1,1,3,4,5,0,2,0,250.0,test,1,M
512.196063995,3,1000,0,1,1,3,4,5,0,2,0,250.0,test,3,M
496.676206589,2,1000,4,1,1,3,4,5,0,2,0,250.0,test,2,M
432.027816772,1,1000,1,1,1,3,4,5,0,2,0,250.0,test,1,M
480.026006699,2,1000,4,0,1,3,4,5,0,2,0,250.0,test,3,M
463.893175125,5,1000,2,1,1,3,4,5,0,2,0,250.0,test,5,M
512.006998062,2,1000,4,1,1,3,4,5,0,2,0,250.0,test,2,M
416.301965714,2,1000,4,1,1,3,4,5,0,2,0,250.0,test,2,M
448.031902313,1,1000,1,1,1,3,4,5,0,2,0,250.0,test,1,M
351.948976517,4,1000,3,1,1,3,4,5,0,2,0,250.0,test,4,M
431.879997253,1,1000,1,0,1,3,4,5,0,2,0,250.0,test,2,M
287.921905518,4,1000,3,1,1,3,4,5,0,2,0,250.0,test,4,M
432.303905487,1,1000,1,1,1,3,4,5,0,2,0,250.0,test,1,M
416.354894638,0,1000,5,0,1,3,4,5,0,2,0,250.0,test,4,M
