RT,correct_response,ms-prestimblank,curstim,correct,SRmap_1,SRmap_0,SRmap_3,SRmap_2,SRmap_5,SRmap_4,ms-precue,ntrials,type,response,condition
8026.23414993,0,1000,5,1,5,4,1,2,0,3,0,250.0,train,0,M
58.3109855652,2,1000,2,0,5,4,1,2,0,3,0,250.0,train,0,M
3146.62981033,1,1000,3,1,5,4,1,2,0,3,0,250.0,train,1,M
106.875896454,4,1000,0,0,5,4,1,2,0,3,0,250.0,train,2,M
6570.76692581,0,1000,5,1,5,4,1,2,0,3,0,250.0,train,0,M
1050.54998398,4,1000,0,1,5,4,1,2,0,3,0,250.0,train,4,M
714.555025101,1,1000,3,1,5,4,1,2,0,3,0,250.0,train,1,M
714.261054993,5,1000,1,1,5,4,1,2,0,3,0,250.0,train,5,M
810.083866119,5,1000,1,1,5,4,1,2,0,3,0,250.0,train,5,M
634.388923645,3,1000,4,0,5,4,1,2,0,3,0,250.0,train,1,M
746.376037598,2,1000,2,1,5,4,1,2,0,3,0,250.0,train,2,M
602.454900742,1,1000,3,1,5,4,1,2,0,3,0,250.0,train,1,M
890.461921692,3,1000,4,1,5,4,1,2,0,3,0,250.0,train,3,M
746.433973312,2,1000,2,1,5,4,1,2,0,3,0,250.0,train,2,M
618.422031403,2,1000,2,1,5,4,1,2,0,3,0,250.0,train,2,M
795.959949493,2,1000,2,1,5,4,1,2,0,3,0,250.0,train,2,M
602.423906326,0,1000,5,1,5,4,1,2,0,3,0,250.0,train,0,M
491.044998169,0,1000,5,1,5,4,1,2,0,3,0,250.0,train,0,M
667.930841446,5,1000,1,1,5,4,1,2,0,3,0,250.0,train,5,M
778.588056564,2,1000,2,1,5,4,1,2,0,3,0,250.0,train,2,M
523.801088333,1,1000,3,1,5,4,1,2,0,3,0,250.0,train,1,M
1162.58192062,4,1000,0,1,5,4,1,2,0,3,0,250.0,train,4,M
634.521007538,2,1000,2,1,5,4,1,2,0,3,0,250.0,train,2,M
506.536960602,0,1000,5,1,5,4,1,2,0,3,0,250.0,train,0,M
762.507200241,5,1000,1,1,5,4,1,2,0,3,0,250.0,train,5,M
762.447834015,4,1000,0,1,5,4,1,2,0,3,0,250.0,train,4,M
474.369049072,0,1000,5,1,5,4,1,2,0,3,0,250.0,train,0,M
618.63899231,2,1000,2,1,5,4,1,2,0,3,0,250.0,train,2,M
491.92905426,0,1000,5,1,5,4,1,2,0,3,0,250.0,train,0,M
843.065977097,3,1000,4,0,5,4,1,2,0,3,0,250.0,train,4,M
858.372926712,2,1000,2,1,5,4,1,2,0,3,0,250.0,train,2,M
554.393053055,2,1000,2,1,5,4,1,2,0,3,0,250.0,train,2,M
651.802062988,4,1000,0,1,5,4,1,2,0,3,0,250.0,train,4,M
907.89604187,3,1000,4,1,5,4,1,2,0,3,0,250.0,train,3,M
698.469161987,2,1000,2,1,5,4,1,2,0,3,0,250.0,train,2,M
794.481992722,2,1000,2,1,5,4,1,2,0,3,0,250.0,train,2,M
523.859977722,0,1000,5,1,5,4,1,2,0,3,0,250.0,train,0,M
522.95589447,1,1000,3,1,5,4,1,2,0,3,0,250.0,train,1,M
1275.89797974,4,1000,0,1,5,4,1,2,0,3,0,250.0,train,4,M
586.535930634,5,1000,1,1,5,4,1,2,0,3,0,250.0,train,5,M
602.52904892,1,1000,3,1,5,4,1,2,0,3,0,250.0,train,1,M
826.570987701,1,1000,3,1,5,4,1,2,0,3,0,250.0,train,1,M
618.347883224,5,1000,1,1,5,4,1,2,0,3,0,250.0,train,5,M
538.585186005,1,1000,3,1,5,4,1,2,0,3,0,250.0,train,1,M
779.938936234,4,1000,0,1,5,4,1,2,0,3,0,250.0,train,4,M
522.042989731,0,1000,5,1,5,4,1,2,0,3,0,250.0,train,0,M
571.007013321,5,1000,1,1,5,4,1,2,0,3,0,250.0,train,5,M
474.337100983,5,1000,1,1,5,4,1,2,0,3,0,250.0,train,5,M
554.54993248,0,1000,5,1,5,4,1,2,0,3,0,250.0,train,0,M
555.057048798,2,1000,2,0,5,4,1,2,0,3,0,250.0,train,1,M
506.448984146,1,1000,3,1,5,4,1,2,0,3,0,250.0,train,1,M
667.80090332,2,1000,2,1,5,4,1,2,0,3,0,250.0,train,2,M
587.980985641,1,1000,3,1,5,4,1,2,0,3,0,250.0,train,1,M
603.882074356,2,1000,2,1,5,4,1,2,0,3,0,250.0,train,2,M
731.807947159,1,1000,3,1,5,4,1,2,0,3,0,250.0,train,1,M
682.315826416,1,1000,3,1,5,4,1,2,0,3,0,250.0,train,1,M
506.480932236,0,1000,5,1,5,4,1,2,0,3,0,250.0,train,0,M
522.418022156,2,1000,2,1,5,4,1,2,0,3,0,250.0,train,2,M
538.563966751,5,1000,1,1,5,4,1,2,0,3,0,250.0,train,5,M
938.526153564,4,1000,0,1,5,4,1,2,0,3,0,250.0,train,4,M
522.984981537,1,1000,3,1,5,4,1,2,0,3,0,250.0,train,1,M
923.887968063,3,1000,4,1,5,4,1,2,0,3,0,250.0,train,3,M
651.937007904,3,1000,4,1,5,4,1,2,0,3,0,250.0,train,3,M
651.920795441,2,1000,2,0,5,4,1,2,0,3,0,250.0,train,1,M
1082.52215385,4,1000,0,1,5,4,1,2,0,3,0,250.0,train,4,M
602.543830872,4,1000,0,1,5,4,1,2,0,3,0,250.0,train,4,M
586.514949799,4,1000,0,1,5,4,1,2,0,3,0,250.0,train,4,M
602.371931076,0,1000,5,1,5,4,1,2,0,3,0,250.0,train,0,M
506.497859955,1,1000,3,1,5,4,1,2,0,3,0,250.0,train,1,M
682.48796463,2,1000,2,1,5,4,1,2,0,3,0,250.0,train,2,M
938.579082489,3,1000,4,1,5,4,1,2,0,3,0,250.0,train,3,M
779.090881348,1,1000,3,1,5,4,1,2,0,3,0,250.0,train,1,M
970.515012741,4,1000,0,1,5,4,1,2,0,3,0,250.0,train,4,M
794.444084167,3,1000,4,0,5,4,1,2,0,3,0,250.0,train,2,M
779.932022095,5,1000,1,1,5,4,1,2,0,3,0,250.0,train,5,M
1114.36009407,4,1000,0,1,5,4,1,2,0,3,0,250.0,train,4,M
651.921033859,4,1000,0,1,5,4,1,2,0,3,0,250.0,train,4,M
586.347818375,4,1000,0,1,5,4,1,2,0,3,0,250.0,train,4,M
890.39516449,2,1000,2,1,5,4,1,2,0,3,0,250.0,train,2,M
762.439012527,3,1000,4,1,5,4,1,2,0,3,0,250.0,train,3,M
666.891098022,2,1000,2,1,5,4,1,2,0,3,0,250.0,train,2,M
522.485017776,0,1000,5,1,5,4,1,2,0,3,0,250.0,train,0,M
602.334976196,3,1000,4,1,5,4,1,2,0,3,0,250.0,train,3,M
953.387975693,1,1000,3,1,5,4,1,2,0,3,0,250.0,train,1,M
650.449991226,2,1000,2,1,5,4,1,2,0,3,0,250.0,train,2,M
683.934211731,0,1000,5,1,5,4,1,2,0,3,0,250.0,train,0,M
571.846008301,3,1000,4,1,5,4,1,2,0,3,0,250.0,train,3,M
730.592012405,0,1000,5,1,5,4,1,2,0,3,0,250.0,train,0,M
539.87288475,0,1000,5,1,5,4,1,2,0,3,0,250.0,train,0,M
586.588144302,0,1000,5,1,5,4,1,2,0,3,0,250.0,train,0,M
1098.97303581,4,1000,0,1,5,4,1,2,0,3,0,250.0,train,4,M
1114.58420753,5,1000,1,1,5,4,1,2,0,3,0,250.0,train,5,M
507.919073105,0,1000,5,1,5,4,1,2,0,3,0,250.0,train,0,M
666.570901871,2,1000,2,1,5,4,1,2,0,3,0,250.0,train,2,M
666.480064392,4,1000,0,1,5,4,1,2,0,3,0,250.0,train,4,M
522.355079651,0,1000,5,1,5,4,1,2,0,3,0,250.0,train,0,M
443.93992424,1,1000,3,1,5,4,1,2,0,3,0,250.0,train,1,M
586.412906647,2,1000,2,0,5,4,1,2,0,3,0,250.0,train,1,M
522.38202095,1,1000,3,1,5,4,1,2,0,3,0,250.0,train,1,M
651.022911072,4,1000,0,1,5,4,1,2,0,3,0,250.0,train,4,M
715.80696106,4,1000,0,1,5,4,1,2,0,3,0,250.0,train,4,M
746.327161789,2,1000,2,1,5,4,1,2,0,3,0,250.0,train,2,M
602.918148041,1,1000,3,1,5,4,1,2,0,3,0,250.0,train,1,M
778.388977051,3,1000,4,0,5,4,1,2,0,3,0,250.0,train,4,M
635.885000229,2,1000,2,1,5,4,1,2,0,3,0,250.0,train,2,M
955.896854401,3,1000,4,1,5,4,1,2,0,3,0,250.0,train,3,M
730.421066284,3,1000,4,1,5,4,1,2,0,3,0,250.0,train,3,M
570.497989655,1,1000,3,1,5,4,1,2,0,3,0,250.0,train,1,M
507.761955261,1,1000,3,1,5,4,1,2,0,3,0,250.0,train,1,M
858.602046967,3,1000,4,1,5,4,1,2,0,3,0,250.0,train,3,M
1034.56783295,4,1000,0,1,5,4,1,2,0,3,0,250.0,train,4,M
906.569957733,2,1000,2,1,5,4,1,2,0,3,0,250.0,train,2,M
570.57595253,5,1000,1,1,5,4,1,2,0,3,0,250.0,train,5,M
1210.87408066,4,1000,0,0,5,4,1,2,0,3,0,250.0,train,3,M
507.854938507,3,1000,4,0,5,4,1,2,0,3,0,250.0,train,4,M
650.623083115,1,1000,3,1,5,4,1,2,0,3,0,250.0,train,1,M
746.474027634,2,1000,2,1,5,4,1,2,0,3,0,250.0,train,2,M
682.491064072,4,1000,0,1,5,4,1,2,0,3,0,250.0,train,4,M
939.986944199,3,1000,4,1,5,4,1,2,0,3,0,250.0,train,3,M
572.048902512,3,1000,4,0,5,4,1,2,0,3,0,250.0,train,4,M
714.392900467,3,1000,4,1,5,4,1,2,0,3,0,250.0,train,3,M
571.848869324,3,1000,4,1,5,4,1,2,0,3,0,250.0,train,3,M
1034.48390961,1,1000,3,1,5,4,1,2,0,3,0,250.0,train,1,M
794.382810593,3,1000,4,1,5,4,1,2,0,3,0,250.0,train,3,M
746.513843536,4,1000,0,1,5,4,1,2,0,3,0,250.0,train,4,M
827.058076859,2,1000,2,1,5,4,1,2,0,3,0,250.0,train,2,M
794.406890869,3,1000,4,1,5,4,1,2,0,3,0,250.0,train,3,M
602.514028549,3,1000,4,1,5,4,1,2,0,3,0,250.0,train,3,M
618.573904037,2,1000,2,0,5,4,1,2,0,3,0,250.0,train,3,M
554.509878159,0,1000,5,1,5,4,1,2,0,3,0,250.0,train,0,M
570.621967316,5,1000,1,1,5,4,1,2,0,3,0,250.0,train,5,M
587.073087692,3,1000,4,1,5,4,1,2,0,3,0,250.0,train,3,M
442.549943924,0,1000,5,1,5,4,1,2,0,3,0,250.0,train,0,M
474.494934082,0,1000,5,1,5,4,1,2,0,3,0,250.0,train,0,M
377.62594223,1,1000,3,1,5,4,1,2,0,3,0,250.0,train,1,M
571.890115738,5,1000,1,1,5,4,1,2,0,3,0,250.0,train,5,M
954.610109329,3,1000,4,1,5,4,1,2,0,3,0,250.0,train,3,M
714.472055435,3,1000,4,1,5,4,1,2,0,3,0,250.0,train,3,M
954.650878906,1,1000,3,1,5,4,1,2,0,3,0,250.0,train,1,M
699.0878582,5,1000,1,1,5,4,1,2,0,3,0,250.0,train,5,M
570.40810585,5,1000,1,1,5,4,1,2,0,3,0,250.0,train,5,M
571.92492485,0,1000,5,1,5,4,1,2,0,3,0,250.0,train,0,M
700.024843216,4,1000,0,1,5,4,1,2,0,3,0,250.0,train,4,M
570.34277916,5,1000,1,1,5,4,1,2,0,3,0,250.0,train,5,M
1003.97205353,2,1000,2,1,5,4,1,2,0,3,0,250.0,train,2,M
841.778993607,4,1000,0,0,5,4,1,2,0,3,0,250.0,train,3,M
682.337999344,2,1000,2,0,5,4,1,2,0,3,0,250.0,train,1,M
682.294130325,2,1000,2,1,5,4,1,2,0,3,0,250.0,train,2,M
586.376905441,2,1000,2,1,5,4,1,2,0,3,0,250.0,train,2,M
1018.59688759,3,1000,4,1,5,4,1,2,0,3,0,250.0,train,3,M
570.56593895,5,1000,1,1,5,4,1,2,0,3,0,250.0,train,5,M
746.560096741,4,1000,0,1,5,4,1,2,0,3,0,250.0,train,4,M
681.321144104,3,1000,4,1,5,4,1,2,0,3,0,250.0,train,3,M
634.219169617,2,1000,2,1,5,4,1,2,0,3,0,250.0,train,2,M
619.937896729,1,1000,3,1,5,4,1,2,0,3,0,250.0,train,1,M
731.967926025,2,1000,2,1,5,4,1,2,0,3,0,250.0,train,2,M
714.625120163,2,1000,2,1,5,4,1,2,0,3,0,250.0,train,2,M
586.626052856,1,1000,3,1,5,4,1,2,0,3,0,250.0,train,1,M
874.605894089,2,1000,2,1,5,4,1,2,0,3,0,250.0,train,2,M
490.875005722,2,1000,2,1,5,4,1,2,0,3,0,250.0,train,2,M
970.566034317,4,1000,0,1,5,4,1,2,0,3,0,250.0,train,4,M
586.563110352,5,1000,1,1,5,4,1,2,0,3,0,250.0,train,5,M
506.635189056,5,1000,1,1,5,4,1,2,0,3,0,250.0,train,5,M
570.522785187,5,1000,1,1,5,4,1,2,0,3,0,250.0,train,5,M
570.54400444,5,1000,1,1,5,4,1,2,0,3,0,250.0,train,5,M
1290.66205025,1,1000,3,1,5,4,1,2,0,3,0,250.0,train,1,M
602.514982224,5,1000,1,1,5,4,1,2,0,3,0,250.0,train,5,M
538.393974304,1,1000,3,1,5,4,1,2,0,3,0,250.0,train,1,M
571.11787796,5,1000,1,1,5,4,1,2,0,3,0,250.0,train,5,M
778.525114059,4,1000,0,1,5,4,1,2,0,3,0,250.0,train,4,M
714.398860931,0,1000,5,1,5,4,1,2,0,3,0,250.0,train,0,M
491.533041,1,1000,3,1,5,4,1,2,0,3,0,250.0,train,1,M
938.444852829,3,1000,4,1,5,4,1,2,0,3,0,250.0,train,3,M
826.389074326,3,1000,4,1,5,4,1,2,0,3,0,250.0,train,3,M
731.819868088,2,1000,2,1,5,4,1,2,0,3,0,250.0,train,2,M
857.356786728,4,1000,0,1,5,4,1,2,0,3,0,250.0,train,4,M
586.391925812,2,1000,2,1,5,4,1,2,0,3,0,250.0,train,2,M
570.486783981,2,1000,2,1,5,4,1,2,0,3,0,250.0,train,2,M
586.3468647,1,1000,3,1,5,4,1,2,0,3,0,250.0,train,1,M
587.811946869,1,1000,3,1,5,4,1,2,0,3,0,250.0,train,1,M
570.983886719,2,1000,2,1,5,4,1,2,0,3,0,250.0,train,2,M
523.947000504,0,1000,5,1,5,4,1,2,0,3,0,250.0,train,0,M
395.956993103,1,1000,3,1,5,4,1,2,0,3,0,250.0,train,1,M
715.955972672,3,1000,4,1,5,4,1,2,0,3,0,250.0,train,3,M
525.412082672,3,1000,4,1,5,4,1,2,0,3,0,250.0,train,3,M
682.538986206,4,1000,0,1,5,4,1,2,0,3,0,250.0,train,4,M
650.573968887,1,1000,3,1,5,4,1,2,0,3,0,250.0,train,1,M
586.543083191,0,1000,5,1,5,4,1,2,0,3,0,250.0,train,0,M
602.530956268,1,1000,3,1,5,4,1,2,0,3,0,250.0,train,1,M
506.510019302,0,1000,5,1,5,4,1,2,0,3,0,250.0,train,0,M
602.607965469,1,1000,3,1,5,4,1,2,0,3,0,250.0,train,1,M
475.058078766,0,1000,5,1,5,4,1,2,0,3,0,250.0,train,0,M
1018.61310005,2,1000,2,1,5,4,1,2,0,3,0,250.0,train,2,M
1018.66102219,4,1000,0,1,5,4,1,2,0,3,0,250.0,train,4,M
554.497003555,5,1000,1,1,5,4,1,2,0,3,0,250.0,train,5,M
506.490945816,2,1000,2,0,5,4,1,2,0,3,0,250.0,train,1,M
874.406099319,3,1000,4,1,5,4,1,2,0,3,0,250.0,train,3,M
890.535116196,0,1000,5,1,5,4,1,2,0,3,0,250.0,train,0,M
619.935035706,4,1000,0,1,5,4,1,2,0,3,0,250.0,train,4,M
1002.4600029,2,1000,2,1,5,4,1,2,0,3,0,250.0,train,2,M
458.008050919,2,1000,2,1,5,4,1,2,0,3,0,250.0,train,2,M
506.412982941,0,1000,5,1,5,4,1,2,0,3,0,250.0,train,0,M
442.392110825,1,1000,3,1,5,4,1,2,0,3,0,250.0,train,1,M
506.325960159,0,1000,5,1,5,4,1,2,0,3,0,250.0,train,0,M
491.978883743,2,1000,2,1,5,4,1,2,0,3,0,250.0,train,2,M
650.267124176,3,1000,4,1,5,4,1,2,0,3,0,250.0,train,3,M
603.978872299,5,1000,1,1,5,4,1,2,0,3,0,250.0,train,5,M
522.887945175,4,1000,0,1,5,4,1,2,0,3,0,250.0,train,4,M
539.027929306,2,1000,2,1,5,4,1,2,0,3,0,250.0,train,2,M
666.480064392,1,1000,3,1,5,4,1,2,0,3,0,250.0,train,1,M
523.833036423,1,1000,3,1,5,4,1,2,0,3,0,250.0,train,1,M
522.959947586,3,1000,4,0,5,4,1,2,0,3,0,250.0,train,2,M
490.59009552,3,1000,4,1,5,4,1,2,0,3,0,250.0,train,3,M
570.52397728,4,1000,0,0,5,4,1,2,0,3,0,250.0,train,5,M
491.846084595,4,1000,0,1,5,4,1,2,0,3,0,250.0,train,4,M
410.564899445,4,1000,0,1,5,4,1,2,0,3,0,250.0,train,4,M
570.53899765,5,1000,1,1,5,4,1,2,0,3,0,250.0,train,5,M
731.103897095,2,1000,2,1,5,4,1,2,0,3,0,250.0,train,2,M
666.538000107,5,1000,1,1,5,4,1,2,0,3,0,250.0,train,5,M
506.623983383,5,1000,1,1,5,4,1,2,0,3,0,250.0,train,5,M
442.664146423,5,1000,1,1,5,4,1,2,0,3,0,250.0,train,5,M
538.49697113,4,1000,0,1,5,4,1,2,0,3,0,250.0,train,4,M
522.485017776,3,1000,4,0,5,4,1,2,0,3,0,250.0,train,4,M
618.489027023,1,1000,3,1,5,4,1,2,0,3,0,250.0,train,1,M
555.979013443,1,1000,3,1,5,4,1,2,0,3,0,250.0,train,1,M
523.922920227,0,1000,5,1,5,4,1,2,0,3,0,250.0,train,0,M
859.945058823,2,1000,2,1,5,4,1,2,0,3,0,250.0,train,2,M
1066.44296646,2,1000,2,1,5,4,1,2,0,3,0,250.0,train,2,M
490.278959274,0,1000,5,1,5,4,1,2,0,3,0,250.0,train,0,M
1098.42514992,5,1000,1,1,5,4,1,2,0,3,0,250.0,train,5,M
506.381034851,5,1000,1,1,5,4,1,2,0,3,0,250.0,train,5,M
618.376970291,1,1000,3,1,5,4,1,2,0,3,0,250.0,train,1,M
571.916103363,1,1000,3,1,5,4,1,2,0,3,0,250.0,train,1,M
954.488039017,3,1000,4,1,5,4,1,2,0,3,0,250.0,train,3,M
586.378097534,5,1000,1,1,5,4,1,2,0,3,0,250.0,train,5,M
858.500003815,4,1000,0,1,5,4,1,2,0,3,0,250.0,train,4,M
939.90111351,3,1000,4,1,5,4,1,2,0,3,0,250.0,train,3,M
602.570056915,0,1000,5,1,5,4,1,2,0,3,0,250.0,train,0,M
650.595188141,4,1000,0,1,5,4,1,2,0,3,0,250.0,train,4,M
810.665845871,3,1000,4,1,5,4,1,2,0,3,0,250.0,train,3,M
1034.55305099,2,1000,2,1,5,4,1,2,0,3,0,250.0,train,2,M
618.529081345,2,1000,2,1,5,4,1,2,0,3,0,250.0,train,2,M
650.545120239,0,1000,5,1,5,4,1,2,0,3,0,250.0,train,0,M
538.38801384,2,1000,2,1,5,4,1,2,0,3,0,250.0,train,2,M
618.562936783,5,1000,1,1,5,4,1,2,0,3,0,250.0,train,5,M
602.579116821,2,1000,2,1,5,4,1,2,0,3,0,250.0,train,2,M
554.481983185,1,1000,3,1,5,4,1,2,0,3,0,250.0,train,1,M
570.422887802,5,1000,1,1,5,4,1,2,0,3,0,250.0,train,5,M
778.525114059,4,1000,0,1,5,4,1,2,0,3,0,250.0,train,4,M
538.400173187,1,1000,3,1,5,4,1,2,0,3,0,250.0,train,1,M
16875.7350445,1,1000,3,0,5,4,1,2,0,3,0,250.0,test,5,M
1786.34381294,0,1000,5,1,5,4,1,2,0,3,0,250.0,test,0,M
1498.24500084,3,1000,4,0,5,4,1,2,0,3,0,250.0,test,4,M
1402.30798721,5,1000,1,1,5,4,1,2,0,3,0,250.0,test,5,M
1338.35792542,4,1000,0,1,5,4,1,2,0,3,0,250.0,test,4,M
827.656030655,0,1000,5,1,5,4,1,2,0,3,0,250.0,test,0,M
427.624940872,1,1000,3,1,5,4,1,2,0,3,0,250.0,test,1,M
794.364929199,5,1000,1,1,5,4,1,2,0,3,0,250.0,test,5,M
666.265964508,5,1000,1,1,5,4,1,2,0,3,0,250.0,test,5,M
986.89699173,4,1000,0,1,5,4,1,2,0,3,0,250.0,test,4,M
602.277994156,5,1000,1,1,5,4,1,2,0,3,0,250.0,test,5,M
954.383850098,1,1000,3,1,5,4,1,2,0,3,0,250.0,test,1,M
1594.39492226,2,1000,2,1,5,4,1,2,0,3,0,250.0,test,2,M
810.260057449,3,1000,4,1,5,4,1,2,0,3,0,250.0,test,3,M
634.463071823,5,1000,1,1,5,4,1,2,0,3,0,250.0,test,5,M
1307.81793594,5,1000,1,1,5,4,1,2,0,3,0,250.0,test,5,M
602.324008942,5,1000,1,1,5,4,1,2,0,3,0,250.0,test,5,M
634.348869324,1,1000,3,1,5,4,1,2,0,3,0,250.0,test,1,M
571.73705101,5,1000,1,1,5,4,1,2,0,3,0,250.0,test,5,M
1226.35698318,0,1000,5,1,5,4,1,2,0,3,0,250.0,test,0,M
906.270980835,3,1000,4,0,5,4,1,2,0,3,0,250.0,test,4,M
779.496908188,4,1000,0,0,5,4,1,2,0,3,0,250.0,test,3,M
1339.61391449,3,1000,4,1,5,4,1,2,0,3,0,250.0,test,3,M
794.366121292,4,1000,0,1,5,4,1,2,0,3,0,250.0,test,4,M
1258.38279724,3,1000,4,1,5,4,1,2,0,3,0,250.0,test,3,M
602.248907089,1,1000,3,1,5,4,1,2,0,3,0,250.0,test,1,M
1066.35808945,1,1000,3,1,5,4,1,2,0,3,0,250.0,test,1,M
1674.35598373,4,1000,0,1,5,4,1,2,0,3,0,250.0,test,4,M
523.767948151,1,1000,3,1,5,4,1,2,0,3,0,250.0,test,1,M
554.852962494,5,1000,1,1,5,4,1,2,0,3,0,250.0,test,5,M
635.762929916,0,1000,5,0,5,4,1,2,0,3,0,250.0,test,1,M
1611.76300049,4,1000,0,1,5,4,1,2,0,3,0,250.0,test,4,M
1002.3419857,1,1000,3,1,5,4,1,2,0,3,0,250.0,test,1,M
778.354167938,0,1000,5,1,5,4,1,2,0,3,0,250.0,test,0,M
1322.3669529,2,1000,2,1,5,4,1,2,0,3,0,250.0,test,2,M
842.28515625,1,1000,3,1,5,4,1,2,0,3,0,250.0,test,1,M
938.379049301,0,1000,5,1,5,4,1,2,0,3,0,250.0,test,0,M
1002.32291222,3,1000,4,1,5,4,1,2,0,3,0,250.0,test,3,M
826.412916183,1,1000,3,1,5,4,1,2,0,3,0,250.0,test,1,M
714.346885681,1,1000,3,1,5,4,1,2,0,3,0,250.0,test,1,M
954.885005951,1,1000,3,1,5,4,1,2,0,3,0,250.0,test,1,M
587.667942047,5,1000,1,1,5,4,1,2,0,3,0,250.0,test,5,M
682.265996933,4,1000,0,1,5,4,1,2,0,3,0,250.0,test,4,M
571.760892868,4,1000,0,1,5,4,1,2,0,3,0,250.0,test,4,M
874.294996262,3,1000,4,1,5,4,1,2,0,3,0,250.0,test,3,M
490.334033966,3,1000,4,1,5,4,1,2,0,3,0,250.0,test,3,M
571.624994278,5,1000,1,1,5,4,1,2,0,3,0,250.0,test,5,M
682.316064835,3,1000,4,1,5,4,1,2,0,3,0,250.0,test,3,M
554.353952408,3,1000,4,1,5,4,1,2,0,3,0,250.0,test,3,M
506.326198578,5,1000,1,1,5,4,1,2,0,3,0,250.0,test,5,M
666.369199753,3,1000,4,1,5,4,1,2,0,3,0,250.0,test,3,M
602.250099182,0,1000,5,1,5,4,1,2,0,3,0,250.0,test,0,M
651.781082153,3,1000,4,1,5,4,1,2,0,3,0,250.0,test,3,M
506.327152252,3,1000,4,1,5,4,1,2,0,3,0,250.0,test,3,M
794.307947159,0,1000,5,1,5,4,1,2,0,3,0,250.0,test,0,M
459.585905075,0,1000,5,1,5,4,1,2,0,3,0,250.0,test,0,M
1978.36184502,4,1000,0,1,5,4,1,2,0,3,0,250.0,test,4,M
667.713165283,4,1000,0,1,5,4,1,2,0,3,0,250.0,test,4,M
730.442047119,1,1000,3,1,5,4,1,2,0,3,0,250.0,test,1,M
635.791778564,5,1000,1,1,5,4,1,2,0,3,0,250.0,test,5,M
970.333099365,1,1000,3,1,5,4,1,2,0,3,0,250.0,test,1,M
538.854837418,5,1000,1,1,5,4,1,2,0,3,0,250.0,test,5,M
1002.38800049,4,1000,0,1,5,4,1,2,0,3,0,250.0,test,4,M
778.357982635,0,1000,5,0,5,4,1,2,0,3,0,250.0,test,1,M
842.386007309,4,1000,0,1,5,4,1,2,0,3,0,250.0,test,4,M
474.209070206,4,1000,0,1,5,4,1,2,0,3,0,250.0,test,4,M
698.377847672,1,1000,3,1,5,4,1,2,0,3,0,250.0,test,1,M
571.752071381,1,1000,3,1,5,4,1,2,0,3,0,250.0,test,1,M
1018.38111877,3,1000,4,1,5,4,1,2,0,3,0,250.0,test,3,M
555.794000626,3,1000,4,1,5,4,1,2,0,3,0,250.0,test,3,M
874.356985092,0,1000,5,1,5,4,1,2,0,3,0,250.0,test,0,M
762.315034866,5,1000,1,1,5,4,1,2,0,3,0,250.0,test,5,M
1163.62714767,2,1000,2,1,5,4,1,2,0,3,0,250.0,test,2,M
842.870950699,2,1000,2,1,5,4,1,2,0,3,0,250.0,test,2,M
762.338161469,1,1000,3,1,5,4,1,2,0,3,0,250.0,test,1,M
650.177955627,2,1000,2,1,5,4,1,2,0,3,0,250.0,test,2,M
778.357028961,4,1000,0,1,5,4,1,2,0,3,0,250.0,test,4,M
746.2849617,2,1000,2,1,5,4,1,2,0,3,0,250.0,test,2,M
891.752958298,0,1000,5,1,5,4,1,2,0,3,0,250.0,test,0,M
667.855024338,5,1000,1,1,5,4,1,2,0,3,0,250.0,test,5,M
731.781959534,1,1000,3,1,5,4,1,2,0,3,0,250.0,test,1,M
555.682897568,0,1000,5,1,5,4,1,2,0,3,0,250.0,test,0,M
586.320161819,1,1000,3,1,5,4,1,2,0,3,0,250.0,test,1,M
715.804100037,2,1000,2,1,5,4,1,2,0,3,0,250.0,test,2,M
698.386907578,2,1000,2,1,5,4,1,2,0,3,0,250.0,test,2,M
666.284799576,1,1000,3,1,5,4,1,2,0,3,0,250.0,test,1,M
698.283910751,2,1000,2,1,5,4,1,2,0,3,0,250.0,test,2,M
730.278015137,4,1000,0,1,5,4,1,2,0,3,0,250.0,test,4,M
1019.80304718,2,1000,2,1,5,4,1,2,0,3,0,250.0,test,2,M
571.803092957,5,1000,1,1,5,4,1,2,0,3,0,250.0,test,5,M
890.851974487,0,1000,5,1,5,4,1,2,0,3,0,250.0,test,0,M
506.400823593,5,1000,1,1,5,4,1,2,0,3,0,250.0,test,5,M
426.217079163,5,1000,1,1,5,4,1,2,0,3,0,250.0,test,5,M
746.253967285,3,1000,4,1,5,4,1,2,0,3,0,250.0,test,3,M
618.317127228,1,1000,3,0,5,4,1,2,0,3,0,250.0,test,0,M
521.57998085,5,1000,1,1,5,4,1,2,0,3,0,250.0,test,5,M
1259.77277756,0,1000,5,1,5,4,1,2,0,3,0,250.0,test,0,M
507.827043533,5,1000,1,1,5,4,1,2,0,3,0,250.0,test,5,M
522.197961807,5,1000,1,1,5,4,1,2,0,3,0,250.0,test,5,M
683.80689621,2,1000,2,1,5,4,1,2,0,3,0,250.0,test,2,M
507.62796402,5,1000,1,1,5,4,1,2,0,3,0,250.0,test,5,M
618.773937225,4,1000,0,1,5,4,1,2,0,3,0,250.0,test,4,M
395.613908768,4,1000,0,1,5,4,1,2,0,3,0,250.0,test,4,M
618.175983429,3,1000,4,1,5,4,1,2,0,3,0,250.0,test,3,M
1114.2950058,0,1000,5,1,5,4,1,2,0,3,0,250.0,test,0,M
634.316921234,0,1000,5,1,5,4,1,2,0,3,0,250.0,test,0,M
378.602981567,0,1000,5,1,5,4,1,2,0,3,0,250.0,test,0,M
554.265975952,5,1000,1,1,5,4,1,2,0,3,0,250.0,test,5,M
1098.42586517,3,1000,4,1,5,4,1,2,0,3,0,250.0,test,3,M
699.912071228,0,1000,5,1,5,4,1,2,0,3,0,250.0,test,0,M
731.805086136,0,1000,5,0,5,4,1,2,0,3,0,250.0,test,1,M
826.344966888,2,1000,2,0,5,4,1,2,0,3,0,250.0,test,1,M
938.33899498,1,1000,3,1,5,4,1,2,0,3,0,250.0,test,1,M
1066.37191772,3,1000,4,1,5,4,1,2,0,3,0,250.0,test,3,M
634.398937225,0,1000,5,1,5,4,1,2,0,3,0,250.0,test,0,M
1274.36614037,2,1000,2,1,5,4,1,2,0,3,0,250.0,test,2,M
1002.32005119,1,1000,3,1,5,4,1,2,0,3,0,250.0,test,1,M
986.323833466,0,1000,5,1,5,4,1,2,0,3,0,250.0,test,0,M
618.37387085,1,1000,3,1,5,4,1,2,0,3,0,250.0,test,1,M
1546.42009735,4,1000,0,1,5,4,1,2,0,3,0,250.0,test,4,M
666.396141052,0,1000,5,1,5,4,1,2,0,3,0,250.0,test,0,M
986.330032349,3,1000,4,1,5,4,1,2,0,3,0,250.0,test,3,M
586.806058884,5,1000,1,1,5,4,1,2,0,3,0,250.0,test,5,M
635.787963867,0,1000,5,1,5,4,1,2,0,3,0,250.0,test,0,M
779.757022858,2,1000,2,1,5,4,1,2,0,3,0,250.0,test,2,M
1035.79306602,4,1000,0,1,5,4,1,2,0,3,0,250.0,test,4,M
699.681997299,1,1000,3,1,5,4,1,2,0,3,0,250.0,test,1,M
1818.33291054,4,1000,0,1,5,4,1,2,0,3,0,250.0,test,4,M
763.678073883,1,1000,3,1,5,4,1,2,0,3,0,250.0,test,1,M
570.815086365,1,1000,3,1,5,4,1,2,0,3,0,250.0,test,1,M
602.197170258,0,1000,5,1,5,4,1,2,0,3,0,250.0,test,0,M
1562.31617928,3,1000,4,1,5,4,1,2,0,3,0,250.0,test,3,M
763.819932938,1,1000,3,1,5,4,1,2,0,3,0,250.0,test,1,M
554.266929626,0,1000,5,1,5,4,1,2,0,3,0,250.0,test,0,M
523.790121078,5,1000,1,1,5,4,1,2,0,3,0,250.0,test,5,M
714.374065399,2,1000,2,1,5,4,1,2,0,3,0,250.0,test,2,M
618.360996246,1,1000,3,1,5,4,1,2,0,3,0,250.0,test,1,M
650.697946548,2,1000,2,1,5,4,1,2,0,3,0,250.0,test,2,M
747.803926468,1,1000,3,1,5,4,1,2,0,3,0,250.0,test,1,M
91.787815094,3,1000,4,1,5,4,1,2,0,3,0,250.0,test,3,M
714.257955551,1,1000,3,1,5,4,1,2,0,3,0,250.0,test,1,M
714.302778244,1,1000,3,1,5,4,1,2,0,3,0,250.0,test,1,M
698.369026184,3,1000,4,1,5,4,1,2,0,3,0,250.0,test,3,M
810.374975204,2,1000,2,1,5,4,1,2,0,3,0,250.0,test,2,M
474.339962006,3,1000,4,1,5,4,1,2,0,3,0,250.0,test,3,M
922.335863113,1,1000,3,1,5,4,1,2,0,3,0,250.0,test,1,M
1914.42394257,4,1000,0,1,5,4,1,2,0,3,0,250.0,test,4,M
874.326229095,5,1000,1,1,5,4,1,2,0,3,0,250.0,test,5,M
698.385953903,0,1000,5,1,5,4,1,2,0,3,0,250.0,test,0,M
442.15297699,0,1000,5,1,5,4,1,2,0,3,0,250.0,test,0,M
506.855964661,5,1000,1,1,5,4,1,2,0,3,0,250.0,test,5,M
1371.74701691,3,1000,4,1,5,4,1,2,0,3,0,250.0,test,3,M
1355.59821129,4,1000,0,0,5,4,1,2,0,3,0,250.0,test,5,M
506.228923798,5,1000,1,1,5,4,1,2,0,3,0,250.0,test,5,M
778.273105621,1,1000,3,1,5,4,1,2,0,3,0,250.0,test,1,M
1306.31184578,2,1000,2,1,5,4,1,2,0,3,0,250.0,test,2,M
2010.38789749,4,1000,0,1,5,4,1,2,0,3,0,250.0,test,4,M
795.711040497,2,1000,2,0,5,4,1,2,0,3,0,250.0,test,1,M
554.290056229,0,1000,5,1,5,4,1,2,0,3,0,250.0,test,0,M
554.369211197,5,1000,1,1,5,4,1,2,0,3,0,250.0,test,5,M
427.744150162,5,1000,1,1,5,4,1,2,0,3,0,250.0,test,5,M
907.809019089,3,1000,4,1,5,4,1,2,0,3,0,250.0,test,3,M
730.417966843,1,1000,3,1,5,4,1,2,0,3,0,250.0,test,1,M
650.364875793,1,1000,3,1,5,4,1,2,0,3,0,250.0,test,1,M
698.308944702,1,1000,3,1,5,4,1,2,0,3,0,250.0,test,1,M
730.343103409,2,1000,2,1,5,4,1,2,0,3,0,250.0,test,2,M
827.763080597,3,1000,4,1,5,4,1,2,0,3,0,250.0,test,3,M
1113.69204521,4,1000,0,1,5,4,1,2,0,3,0,250.0,test,4,M
618.352174759,3,1000,4,1,5,4,1,2,0,3,0,250.0,test,3,M
538.403987885,5,1000,1,1,5,4,1,2,0,3,0,250.0,test,5,M
442.291975021,5,1000,1,1,5,4,1,2,0,3,0,250.0,test,5,M
586.212873459,1,1000,3,1,5,4,1,2,0,3,0,250.0,test,1,M
618.290185928,2,1000,2,1,5,4,1,2,0,3,0,250.0,test,2,M
714.388847351,4,1000,0,0,5,4,1,2,0,3,0,250.0,test,0,M
634.873151779,1,1000,3,1,5,4,1,2,0,3,0,250.0,test,1,M
922.324895859,3,1000,4,1,5,4,1,2,0,3,0,250.0,test,3,M
698.273181915,1,1000,3,1,5,4,1,2,0,3,0,250.0,test,1,M
1114.18795586,3,1000,4,1,5,4,1,2,0,3,0,250.0,test,3,M
635.818004608,5,1000,1,1,5,4,1,2,0,3,0,250.0,test,5,M
922.226905823,3,1000,4,1,5,4,1,2,0,3,0,250.0,test,3,M
1131.53886795,2,1000,2,1,5,4,1,2,0,3,0,250.0,test,2,M
826.323986053,3,1000,4,1,5,4,1,2,0,3,0,250.0,test,3,M
1418.88999939,4,1000,0,0,5,4,1,2,0,3,0,250.0,test,3,M
522.336959839,5,1000,1,1,5,4,1,2,0,3,0,250.0,test,5,M
938.440084457,3,1000,4,1,5,4,1,2,0,3,0,250.0,test,3,M
666.290998459,1,1000,3,1,5,4,1,2,0,3,0,250.0,test,1,M
603.796005249,0,1000,5,1,5,4,1,2,0,3,0,250.0,test,0,M
1034.85703468,3,1000,4,1,5,4,1,2,0,3,0,250.0,test,3,M
667.693138123,1,1000,3,1,5,4,1,2,0,3,0,250.0,test,1,M
619.735002518,1,1000,3,1,5,4,1,2,0,3,0,250.0,test,1,M
539.693832397,5,1000,1,0,5,4,1,2,0,3,0,250.0,test,1,M
826.17688179,2,1000,2,0,5,4,1,2,0,3,0,250.0,test,1,M
490.310907364,5,1000,1,1,5,4,1,2,0,3,0,250.0,test,5,M
618.310928345,1,1000,3,1,5,4,1,2,0,3,0,250.0,test,1,M
730.221986771,3,1000,4,1,5,4,1,2,0,3,0,250.0,test,3,M
762.37821579,1,1000,3,1,5,4,1,2,0,3,0,250.0,test,1,M
506.920099258,0,1000,5,1,5,4,1,2,0,3,0,250.0,test,0,M
506.396055222,5,1000,1,1,5,4,1,2,0,3,0,250.0,test,5,M
730.289936066,0,1000,5,1,5,4,1,2,0,3,0,250.0,test,0,M
538.395881653,0,1000,5,1,5,4,1,2,0,3,0,250.0,test,0,M
522.248029709,1,1000,3,1,5,4,1,2,0,3,0,250.0,test,1,M
635.773897171,1,1000,3,1,5,4,1,2,0,3,0,250.0,test,1,M
523.686885834,0,1000,5,1,5,4,1,2,0,3,0,250.0,test,0,M
795.423030853,3,1000,4,1,5,4,1,2,0,3,0,250.0,test,3,M
555.72104454,3,1000,4,1,5,4,1,2,0,3,0,250.0,test,3,M
538.192033768,5,1000,1,1,5,4,1,2,0,3,0,250.0,test,5,M
442.284107208,5,1000,1,1,5,4,1,2,0,3,0,250.0,test,5,M
587.48793602,0,1000,5,1,5,4,1,2,0,3,0,250.0,test,0,M
875.632047653,3,1000,4,1,5,4,1,2,0,3,0,250.0,test,3,M
474.277973175,5,1000,1,1,5,4,1,2,0,3,0,250.0,test,5,M
1626.29294395,4,1000,0,1,5,4,1,2,0,3,0,250.0,test,4,M
778.249979019,0,1000,5,1,5,4,1,2,0,3,0,250.0,test,0,M
1338.85288239,0,1000,5,1,5,4,1,2,0,3,0,250.0,test,0,M
651.777029037,3,1000,4,1,5,4,1,2,0,3,0,250.0,test,3,M
1178.37405205,4,1000,0,1,5,4,1,2,0,3,0,250.0,test,4,M
667.723178864,3,1000,4,1,5,4,1,2,0,3,0,250.0,test,3,M
187.716960907,2,1000,2,0,5,4,1,2,0,3,0,250.0,test,3,M
810.240030289,2,1000,2,1,5,4,1,2,0,3,0,250.0,test,2,M
1034.32512283,4,1000,0,1,5,4,1,2,0,3,0,250.0,test,4,M
490.311861038,5,1000,1,1,5,4,1,2,0,3,0,250.0,test,5,M
1114.88699913,2,1000,2,1,5,4,1,2,0,3,0,250.0,test,2,M
666.324853897,2,1000,2,1,5,4,1,2,0,3,0,250.0,test,2,M
938.295125961,0,1000,5,1,5,4,1,2,0,3,0,250.0,test,0,M
1195.03903389,4,1000,0,1,5,4,1,2,0,3,0,250.0,test,4,M
826.147079468,4,1000,0,1,5,4,1,2,0,3,0,250.0,test,4,M
938.31205368,1,1000,3,1,5,4,1,2,0,3,0,250.0,test,1,M
1082.28492737,3,1000,4,1,5,4,1,2,0,3,0,250.0,test,3,M
602.308988571,0,1000,5,1,5,4,1,2,0,3,0,250.0,test,0,M
762.258052826,4,1000,0,1,5,4,1,2,0,3,0,250.0,test,4,M
474.43819046,5,1000,1,1,5,4,1,2,0,3,0,250.0,test,5,M
698.328018188,1,1000,3,1,5,4,1,2,0,3,0,250.0,test,1,M
490.250825882,5,1000,1,1,5,4,1,2,0,3,0,250.0,test,5,M
746.244907379,2,1000,2,0,5,4,1,2,0,3,0,250.0,test,1,M
634.282827377,1,1000,3,1,5,4,1,2,0,3,0,250.0,test,1,M
810.323953629,3,1000,4,1,5,4,1,2,0,3,0,250.0,test,3,M
731.532096863,2,1000,2,1,5,4,1,2,0,3,0,250.0,test,2,M
666.228055954,1,1000,3,1,5,4,1,2,0,3,0,250.0,test,1,M
650.861978531,2,1000,2,1,5,4,1,2,0,3,0,250.0,test,2,M
1066.33090973,4,1000,0,1,5,4,1,2,0,3,0,250.0,test,4,M
681.268930435,3,1000,4,1,5,4,1,2,0,3,0,250.0,test,3,M
1242.30408669,4,1000,0,1,5,4,1,2,0,3,0,250.0,test,4,M
666.388034821,2,1000,2,1,5,4,1,2,0,3,0,250.0,test,2,M
555.78994751,5,1000,1,1,5,4,1,2,0,3,0,250.0,test,5,M
762.768983841,0,1000,5,1,5,4,1,2,0,3,0,250.0,test,0,M
1003.81493568,3,1000,4,1,5,4,1,2,0,3,0,250.0,test,3,M
666.290998459,2,1000,2,1,5,4,1,2,0,3,0,250.0,test,2,M
522.814035416,0,1000,5,1,5,4,1,2,0,3,0,250.0,test,0,M
650.339126587,1,1000,3,1,5,4,1,2,0,3,0,250.0,test,1,M
682.299137115,1,1000,3,1,5,4,1,2,0,3,0,250.0,test,1,M
1002.32100487,0,1000,5,1,5,4,1,2,0,3,0,250.0,test,0,M
