RT,correct_response,ms-prestimblank,curstim,correct,SRmap_1,SRmap_0,SRmap_3,SRmap_2,SRmap_5,SRmap_4,ms-precue,ntrials,type,response,condition
4575.7958889,0,1000,5,1,1,2,3,5,0,4,0,250.0,train,0,M
1248.0070591,4,1000,4,1,1,2,3,5,0,4,0,250.0,train,4,M
688.282012939,1,1000,1,1,1,2,3,5,0,4,0,250.0,train,1,M
864.328861237,5,1000,2,1,1,2,3,5,0,4,0,250.0,train,5,M
496.729850769,2,1000,0,0,1,2,3,5,0,4,0,250.0,train,1,M
672.329187393,0,1000,5,1,1,2,3,5,0,4,0,250.0,train,0,M
736.301898956,5,1000,2,1,1,2,3,5,0,4,0,250.0,train,5,M
400.798082352,3,1000,3,1,1,2,3,5,0,4,0,250.0,train,3,M
544.348955154,2,1000,0,1,1,2,3,5,0,4,0,250.0,train,2,M
544.343948364,0,1000,5,1,1,2,3,5,0,4,0,250.0,train,0,M
512.336969376,1,1000,1,1,1,2,3,5,0,4,0,250.0,train,1,M
448.440074921,3,1000,3,1,1,2,3,5,0,4,0,250.0,train,3,M
543.972969055,1,1000,1,1,1,2,3,5,0,4,0,250.0,train,1,M
703.648805618,5,1000,2,1,1,2,3,5,0,4,0,250.0,train,5,M
576.536893845,2,1000,0,1,1,2,3,5,0,4,0,250.0,train,2,M
400.340080261,2,1000,0,1,1,2,3,5,0,4,0,250.0,train,2,M
560.570001602,4,1000,4,0,1,2,3,5,0,4,0,250.0,train,3,M
464.341878891,2,1000,0,1,1,2,3,5,0,4,0,250.0,train,2,M
512.296199799,4,1000,4,1,1,2,3,5,0,4,0,250.0,train,4,M
608.530044556,1,1000,1,1,1,2,3,5,0,4,0,250.0,train,1,M
544.407129288,2,1000,0,1,1,2,3,5,0,4,0,250.0,train,2,M
592.372894287,3,1000,3,1,1,2,3,5,0,4,0,250.0,train,3,M
496.365070343,4,1000,4,0,1,2,3,5,0,4,0,250.0,train,3,M
480.37314415,0,1000,5,1,1,2,3,5,0,4,0,250.0,train,0,M
656.899929047,4,1000,4,1,1,2,3,5,0,4,0,250.0,train,4,M
448.411941528,4,1000,4,1,1,2,3,5,0,4,0,250.0,train,4,M
512.87984848,0,1000,5,1,1,2,3,5,0,4,0,250.0,train,0,M
416.522026062,3,1000,3,0,1,2,3,5,0,4,0,250.0,train,4,M
400.331020355,2,1000,0,1,1,2,3,5,0,4,0,250.0,train,2,M
624.4328022,2,1000,0,1,1,2,3,5,0,4,0,250.0,train,2,M
624.461174011,4,1000,4,1,1,2,3,5,0,4,0,250.0,train,4,M
544.406175613,2,1000,0,1,1,2,3,5,0,4,0,250.0,train,2,M
528.495073318,5,1000,2,1,1,2,3,5,0,4,0,250.0,train,5,M
464.45608139,0,1000,5,1,1,2,3,5,0,4,0,250.0,train,0,M
592.452049255,2,1000,0,1,1,2,3,5,0,4,0,250.0,train,2,M
640.524148941,5,1000,2,1,1,2,3,5,0,4,0,250.0,train,5,M
608.101129532,3,1000,3,1,1,2,3,5,0,4,0,250.0,train,3,M
512.407064438,5,1000,2,1,1,2,3,5,0,4,0,250.0,train,5,M
656.301021576,1,1000,1,1,1,2,3,5,0,4,0,250.0,train,1,M
528.972148895,1,1000,1,1,1,2,3,5,0,4,0,250.0,train,1,M
608.407974243,5,1000,2,1,1,2,3,5,0,4,0,250.0,train,5,M
464.424133301,0,1000,5,1,1,2,3,5,0,4,0,250.0,train,0,M
512.372970581,1,1000,1,1,1,2,3,5,0,4,0,250.0,train,1,M
400.738954544,5,1000,2,1,1,2,3,5,0,4,0,250.0,train,5,M
656.807899475,1,1000,1,1,1,2,3,5,0,4,0,250.0,train,1,M
495.594978333,2,1000,0,1,1,2,3,5,0,4,0,250.0,train,2,M
560.403823853,2,1000,0,1,1,2,3,5,0,4,0,250.0,train,2,M
704.349040985,3,1000,3,1,1,2,3,5,0,4,0,250.0,train,3,M
448.621988297,0,1000,5,1,1,2,3,5,0,4,0,250.0,train,0,M
432.950019836,1,1000,1,1,1,2,3,5,0,4,0,250.0,train,1,M
512.589216232,2,1000,0,1,1,2,3,5,0,4,0,250.0,train,2,M
368.935108185,2,1000,0,1,1,2,3,5,0,4,0,250.0,train,2,M
544.476985931,5,1000,2,1,1,2,3,5,0,4,0,250.0,train,5,M
496.414899826,5,1000,2,1,1,2,3,5,0,4,0,250.0,train,5,M
464.457035065,5,1000,2,1,1,2,3,5,0,4,0,250.0,train,5,M
528.286933899,2,1000,0,1,1,2,3,5,0,4,0,250.0,train,2,M
464.548110962,3,1000,3,1,1,2,3,5,0,4,0,250.0,train,3,M
448.488950729,2,1000,0,1,1,2,3,5,0,4,0,250.0,train,2,M
480.557203293,0,1000,5,1,1,2,3,5,0,4,0,250.0,train,0,M
448.38309288,0,1000,5,1,1,2,3,5,0,4,0,250.0,train,0,M
544.514894485,5,1000,2,1,1,2,3,5,0,4,0,250.0,train,5,M
544.398069382,3,1000,3,0,1,2,3,5,0,4,0,250.0,train,2,M
512.243032455,0,1000,5,1,1,2,3,5,0,4,0,250.0,train,0,M
592.429161072,1,1000,1,1,1,2,3,5,0,4,0,250.0,train,1,M
512.544155121,1,1000,1,1,1,2,3,5,0,4,0,250.0,train,1,M
560.555934906,3,1000,3,1,1,2,3,5,0,4,0,250.0,train,3,M
496.48809433,0,1000,5,1,1,2,3,5,0,4,0,250.0,train,0,M
448.429822922,3,1000,3,1,1,2,3,5,0,4,0,250.0,train,3,M
576.498031616,1,1000,1,1,1,2,3,5,0,4,0,250.0,train,1,M
400.539875031,0,1000,5,1,1,2,3,5,0,4,0,250.0,train,0,M
656.896829605,4,1000,4,1,1,2,3,5,0,4,0,250.0,train,4,M
528.170108795,2,1000,0,0,1,2,3,5,0,4,0,250.0,train,3,M
559.529781342,1,1000,1,1,1,2,3,5,0,4,0,250.0,train,1,M
559.401988983,2,1000,0,1,1,2,3,5,0,4,0,250.0,train,2,M
575.528860092,4,1000,4,1,1,2,3,5,0,4,0,250.0,train,4,M
591.752052307,3,1000,3,1,1,2,3,5,0,4,0,250.0,train,3,M
512.524843216,1,1000,1,1,1,2,3,5,0,4,0,250.0,train,1,M
480.413913727,2,1000,0,0,1,2,3,5,0,4,0,250.0,train,4,M
592.391014099,1,1000,1,1,1,2,3,5,0,4,0,250.0,train,1,M
592.366933823,2,1000,0,1,1,2,3,5,0,4,0,250.0,train,2,M
592.495918274,2,1000,0,1,1,2,3,5,0,4,0,250.0,train,2,M
496.52504921,0,1000,5,1,1,2,3,5,0,4,0,250.0,train,0,M
432.494878769,2,1000,0,1,1,2,3,5,0,4,0,250.0,train,2,M
400.394916534,0,1000,5,1,1,2,3,5,0,4,0,250.0,train,0,M
432.422161102,0,1000,5,1,1,2,3,5,0,4,0,250.0,train,0,M
464.43605423,2,1000,0,1,1,2,3,5,0,4,0,250.0,train,2,M
512.327194214,5,1000,2,1,1,2,3,5,0,4,0,250.0,train,5,M
528.506994247,1,1000,1,1,1,2,3,5,0,4,0,250.0,train,1,M
464.385032654,3,1000,3,1,1,2,3,5,0,4,0,250.0,train,3,M
416.380882263,0,1000,5,1,1,2,3,5,0,4,0,250.0,train,0,M
480.378866196,4,1000,4,1,1,2,3,5,0,4,0,250.0,train,4,M
496.433973312,5,1000,2,1,1,2,3,5,0,4,0,250.0,train,5,M
400.434970856,0,1000,5,1,1,2,3,5,0,4,0,250.0,train,0,M
544.487953186,2,1000,0,1,1,2,3,5,0,4,0,250.0,train,2,M
368.535995483,0,1000,5,1,1,2,3,5,0,4,0,250.0,train,0,M
400.537014008,1,1000,1,1,1,2,3,5,0,4,0,250.0,train,1,M
304.466962814,2,1000,0,1,1,2,3,5,0,4,0,250.0,train,2,M
464.528083801,1,1000,1,1,1,2,3,5,0,4,0,250.0,train,1,M
400.531053543,0,1000,5,1,1,2,3,5,0,4,0,250.0,train,0,M
352.541923523,1,1000,1,1,1,2,3,5,0,4,0,250.0,train,1,M
384.704113007,2,1000,0,0,1,2,3,5,0,4,0,250.0,train,1,M
607.691049576,3,1000,3,1,1,2,3,5,0,4,0,250.0,train,3,M
415.581941605,3,1000,3,1,1,2,3,5,0,4,0,250.0,train,3,M
367.285013199,3,1000,3,1,1,2,3,5,0,4,0,250.0,train,3,M
543.658018112,0,1000,5,1,1,2,3,5,0,4,0,250.0,train,0,M
511.641979218,4,1000,4,1,1,2,3,5,0,4,0,250.0,train,4,M
479.984998703,2,1000,0,1,1,2,3,5,0,4,0,250.0,train,2,M
544.787168503,4,1000,4,0,1,2,3,5,0,4,0,250.0,train,3,M
335.741043091,0,1000,5,1,1,2,3,5,0,4,0,250.0,train,0,M
464.469909668,4,1000,4,1,1,2,3,5,0,4,0,250.0,train,4,M
448.487043381,4,1000,4,1,1,2,3,5,0,4,0,250.0,train,4,M
528.413057327,3,1000,3,1,1,2,3,5,0,4,0,250.0,train,3,M
592.42606163,2,1000,0,1,1,2,3,5,0,4,0,250.0,train,2,M
432.481050491,0,1000,5,1,1,2,3,5,0,4,0,250.0,train,0,M
384.387016296,0,1000,5,0,1,2,3,5,0,4,0,250.0,train,2,M
575.564146042,4,1000,4,1,1,2,3,5,0,4,0,250.0,train,4,M
528.307199478,3,1000,3,1,1,2,3,5,0,4,0,250.0,train,3,M
400.384187698,5,1000,2,1,1,2,3,5,0,4,0,250.0,train,5,M
528.398990631,1,1000,1,1,1,2,3,5,0,4,0,250.0,train,1,M
560.433864594,3,1000,3,0,1,2,3,5,0,4,0,250.0,train,4,M
464.248180389,4,1000,4,1,1,2,3,5,0,4,0,250.0,train,4,M
447.722911835,4,1000,4,1,1,2,3,5,0,4,0,250.0,train,4,M
512.104034424,5,1000,2,1,1,2,3,5,0,4,0,250.0,train,5,M
447.751998901,0,1000,5,1,1,2,3,5,0,4,0,250.0,train,0,M
496.840953827,5,1000,2,1,1,2,3,5,0,4,0,250.0,train,5,M
415.769100189,0,1000,5,1,1,2,3,5,0,4,0,250.0,train,0,M
463.717937469,5,1000,2,1,1,2,3,5,0,4,0,250.0,train,5,M
608.021974564,3,1000,3,1,1,2,3,5,0,4,0,250.0,train,3,M
415.416955948,0,1000,5,1,1,2,3,5,0,4,0,250.0,train,0,M
368.817090988,0,1000,5,1,1,2,3,5,0,4,0,250.0,train,0,M
447.511911392,2,1000,0,0,1,2,3,5,0,4,0,250.0,train,1,M
511.595964432,5,1000,2,1,1,2,3,5,0,4,0,250.0,train,5,M
448.433160782,3,1000,3,1,1,2,3,5,0,4,0,250.0,train,3,M
351.980924606,0,1000,5,1,1,2,3,5,0,4,0,250.0,train,0,M
512.331008911,1,1000,1,1,1,2,3,5,0,4,0,250.0,train,1,M
480.200052261,5,1000,2,1,1,2,3,5,0,4,0,250.0,train,5,M
479.590892792,2,1000,0,1,1,2,3,5,0,4,0,250.0,train,2,M
479.909896851,1,1000,1,0,1,2,3,5,0,4,0,250.0,train,2,M
480.843782425,4,1000,4,0,1,2,3,5,0,4,0,250.0,train,3,M
400.043010712,0,1000,5,1,1,2,3,5,0,4,0,250.0,train,0,M
415.471076965,1,1000,1,1,1,2,3,5,0,4,0,250.0,train,1,M
575.866937637,5,1000,2,1,1,2,3,5,0,4,0,250.0,train,5,M
463.751077652,1,1000,1,1,1,2,3,5,0,4,0,250.0,train,1,M
495.726108551,3,1000,3,1,1,2,3,5,0,4,0,250.0,train,3,M
447.523832321,4,1000,4,1,1,2,3,5,0,4,0,250.0,train,4,M
399.657964706,4,1000,4,1,1,2,3,5,0,4,0,250.0,train,4,M
448.004961014,4,1000,4,1,1,2,3,5,0,4,0,250.0,train,4,M
575.662851334,1,1000,1,1,1,2,3,5,0,4,0,250.0,train,1,M
576.336860657,2,1000,0,1,1,2,3,5,0,4,0,250.0,train,2,M
528.448104858,5,1000,2,1,1,2,3,5,0,4,0,250.0,train,5,M
464.405059814,0,1000,5,1,1,2,3,5,0,4,0,250.0,train,0,M
496.350049973,2,1000,0,1,1,2,3,5,0,4,0,250.0,train,2,M
399.793148041,0,1000,5,1,1,2,3,5,0,4,0,250.0,train,0,M
480.826854706,4,1000,4,1,1,2,3,5,0,4,0,250.0,train,4,M
495.730876923,5,1000,2,1,1,2,3,5,0,4,0,250.0,train,5,M
335.574150085,0,1000,5,1,1,2,3,5,0,4,0,250.0,train,0,M
416.450977325,1,1000,1,1,1,2,3,5,0,4,0,250.0,train,1,M
479.678869247,5,1000,2,1,1,2,3,5,0,4,0,250.0,train,5,M
448.351144791,0,1000,5,1,1,2,3,5,0,4,0,250.0,train,0,M
480.874061584,2,1000,0,1,1,2,3,5,0,4,0,250.0,train,2,M
431.713819504,2,1000,0,1,1,2,3,5,0,4,0,250.0,train,2,M
544.462919235,5,1000,2,1,1,2,3,5,0,4,0,250.0,train,5,M
479.476928711,2,1000,0,1,1,2,3,5,0,4,0,250.0,train,2,M
351.258993149,0,1000,5,1,1,2,3,5,0,4,0,250.0,train,0,M
528.384923935,4,1000,4,1,1,2,3,5,0,4,0,250.0,train,4,M
351.443052292,0,1000,5,1,1,2,3,5,0,4,0,250.0,train,0,M
479.919910431,0,1000,5,1,1,2,3,5,0,4,0,250.0,train,0,M
543.406963348,4,1000,4,1,1,2,3,5,0,4,0,250.0,train,4,M
431.659936905,4,1000,4,1,1,2,3,5,0,4,0,250.0,train,4,M
576.019048691,2,1000,0,0,1,2,3,5,0,4,0,250.0,train,1,M
399.595975876,0,1000,5,1,1,2,3,5,0,4,0,250.0,train,0,M
463.742017746,2,1000,0,1,1,2,3,5,0,4,0,250.0,train,2,M
511.559963226,3,1000,3,0,1,2,3,5,0,4,0,250.0,train,4,M
639.569044113,1,1000,1,1,1,2,3,5,0,4,0,250.0,train,1,M
671.596050262,4,1000,4,1,1,2,3,5,0,4,0,250.0,train,4,M
399.587869644,0,1000,5,1,1,2,3,5,0,4,0,250.0,train,0,M
543.882131577,1,1000,1,0,1,2,3,5,0,4,0,250.0,train,0,M
447.618961334,1,1000,1,1,1,2,3,5,0,4,0,250.0,train,1,M
464.087963104,5,1000,2,1,1,2,3,5,0,4,0,250.0,train,5,M
752.010822296,2,1000,0,1,1,2,3,5,0,4,0,250.0,train,2,M
543.807983398,3,1000,3,1,1,2,3,5,0,4,0,250.0,train,3,M
624.809980392,4,1000,4,1,1,2,3,5,0,4,0,250.0,train,4,M
511.744022369,3,1000,3,1,1,2,3,5,0,4,0,250.0,train,3,M
575.596094131,3,1000,3,1,1,2,3,5,0,4,0,250.0,train,3,M
480.586051941,0,1000,5,1,1,2,3,5,0,4,0,250.0,train,0,M
528.489112854,4,1000,4,1,1,2,3,5,0,4,0,250.0,train,4,M
575.663805008,2,1000,0,1,1,2,3,5,0,4,0,250.0,train,2,M
495.65911293,2,1000,0,0,1,2,3,5,0,4,0,250.0,train,3,M
431.56504631,0,1000,5,1,1,2,3,5,0,4,0,250.0,train,0,M
527.742147446,1,1000,1,1,1,2,3,5,0,4,0,250.0,train,1,M
495.893955231,0,1000,5,1,1,2,3,5,0,4,0,250.0,train,0,M
495.877981186,2,1000,0,1,1,2,3,5,0,4,0,250.0,train,2,M
512.819051743,2,1000,0,1,1,2,3,5,0,4,0,250.0,train,2,M
496.885061264,1,1000,1,1,1,2,3,5,0,4,0,250.0,train,1,M
431.597948074,2,1000,0,1,1,2,3,5,0,4,0,250.0,train,2,M
432.013988495,4,1000,4,1,1,2,3,5,0,4,0,250.0,train,4,M
447.771072388,2,1000,0,1,1,2,3,5,0,4,0,250.0,train,2,M
368.075847626,2,1000,0,1,1,2,3,5,0,4,0,250.0,train,2,M
415.627002716,2,1000,0,1,1,2,3,5,0,4,0,250.0,train,2,M
527.503013611,5,1000,2,1,1,2,3,5,0,4,0,250.0,train,5,M
496.547937393,5,1000,2,1,1,2,3,5,0,4,0,250.0,train,5,M
544.334888458,2,1000,0,1,1,2,3,5,0,4,0,250.0,train,2,M
431.603193283,4,1000,4,0,1,2,3,5,0,4,0,250.0,train,2,M
559.535980225,5,1000,2,1,1,2,3,5,0,4,0,250.0,train,5,M
528.387069702,4,1000,4,1,1,2,3,5,0,4,0,250.0,train,4,M
464.827775955,3,1000,3,1,1,2,3,5,0,4,0,250.0,train,3,M
463.665008545,5,1000,2,1,1,2,3,5,0,4,0,250.0,train,5,M
527.734041214,1,1000,1,1,1,2,3,5,0,4,0,250.0,train,1,M
431.691884995,1,1000,1,1,1,2,3,5,0,4,0,250.0,train,1,M
463.903903961,0,1000,5,1,1,2,3,5,0,4,0,250.0,train,0,M
464.126825333,0,1000,5,1,1,2,3,5,0,4,0,250.0,train,0,M
384.572982788,2,1000,0,0,1,2,3,5,0,4,0,250.0,train,1,M
448.231935501,1,1000,1,1,1,2,3,5,0,4,0,250.0,train,1,M
558.207988739,5,1000,2,1,1,2,3,5,0,4,0,250.0,train,5,M
496.558904648,4,1000,4,1,1,2,3,5,0,4,0,250.0,train,4,M
384.227991104,0,1000,5,0,1,2,3,5,0,4,0,250.0,train,3,M
479.568004608,5,1000,2,1,1,2,3,5,0,4,0,250.0,train,5,M
559.667110443,3,1000,3,1,1,2,3,5,0,4,0,250.0,train,3,M
559.484004974,2,1000,0,1,1,2,3,5,0,4,0,250.0,train,2,M
431.997060776,3,1000,3,0,1,2,3,5,0,4,0,250.0,train,2,M
511.656999588,5,1000,2,1,1,2,3,5,0,4,0,250.0,train,5,M
447.61300087,0,1000,5,1,1,2,3,5,0,4,0,250.0,train,0,M
495.475053787,2,1000,0,1,1,2,3,5,0,4,0,250.0,train,2,M
464.739084244,3,1000,3,1,1,2,3,5,0,4,0,250.0,train,3,M
464.688062668,5,1000,2,1,1,2,3,5,0,4,0,250.0,train,5,M
447.587966919,3,1000,3,1,1,2,3,5,0,4,0,250.0,train,3,M
591.537952423,4,1000,4,1,1,2,3,5,0,4,0,250.0,train,4,M
512.130975723,5,1000,2,1,1,2,3,5,0,4,0,250.0,train,5,M
351.65309906,0,1000,5,0,1,2,3,5,0,4,0,250.0,train,3,M
352.241039276,3,1000,3,1,1,2,3,5,0,4,0,250.0,train,3,M
367.681980133,0,1000,5,1,1,2,3,5,0,4,0,250.0,train,0,M
397.318124771,0,1000,5,1,1,2,3,5,0,4,0,250.0,train,0,M
432.360887527,5,1000,2,1,1,2,3,5,0,4,0,250.0,train,5,M
512.865066528,1,1000,1,1,1,2,3,5,0,4,0,250.0,train,1,M
432.188034058,0,1000,5,1,1,2,3,5,0,4,0,250.0,train,0,M
496.352910995,1,1000,1,1,1,2,3,5,0,4,0,250.0,train,1,M
703.813076019,3,1000,3,1,1,2,3,5,0,4,0,250.0,train,3,M
784.354925156,3,1000,3,1,1,2,3,5,0,4,0,250.0,train,3,M
576.379060745,4,1000,4,1,1,2,3,5,0,4,0,250.0,train,4,M
367.645025253,0,1000,5,1,1,2,3,5,0,4,0,250.0,train,0,M
528.512954712,3,1000,3,0,1,2,3,5,0,4,0,250.0,train,2,M
496.304035187,5,1000,2,1,1,2,3,5,0,4,0,250.0,train,5,M
399.639844894,0,1000,5,1,1,2,3,5,0,4,0,250.0,train,0,M
416.770935059,0,1000,5,1,1,2,3,5,0,4,0,250.0,train,0,M
480.433940887,1,1000,1,1,1,2,3,5,0,4,0,250.0,train,1,M
496.12402916,5,1000,2,1,1,2,3,5,0,4,0,250.0,train,5,M
479.506015778,5,1000,2,1,1,2,3,5,0,4,0,250.0,train,5,M
512.932062149,3,1000,3,1,1,2,3,5,0,4,0,250.0,train,3,M
511.781930923,2,1000,0,0,1,2,3,5,0,4,0,250.0,train,3,M
463.521957397,0,1000,5,1,1,2,3,5,0,4,0,250.0,train,0,M
10223.3719826,4,1000,4,1,1,2,3,5,0,4,0,250.0,test,4,M
3231.54711723,1,1000,1,1,1,2,3,5,0,4,0,250.0,test,1,M
1536.13209724,4,1000,4,1,1,2,3,5,0,4,0,250.0,test,4,M
1328.25493813,2,1000,0,0,1,2,3,5,0,4,0,250.0,test,1,M
896.404981613,2,1000,0,1,1,2,3,5,0,4,0,250.0,test,2,M
896.492004395,4,1000,4,1,1,2,3,5,0,4,0,250.0,test,4,M
1504.00686264,1,1000,1,1,1,2,3,5,0,4,0,250.0,test,1,M
976.191997528,2,1000,0,1,1,2,3,5,0,4,0,250.0,test,2,M
736.147880554,5,1000,2,1,1,2,3,5,0,4,0,250.0,test,5,M
2335.70814133,0,1000,5,1,1,2,3,5,0,4,0,250.0,test,0,M
751.800060272,4,1000,4,1,1,2,3,5,0,4,0,250.0,test,4,M
736.167192459,0,1000,5,1,1,2,3,5,0,4,0,250.0,test,0,M
544.011831284,2,1000,0,0,1,2,3,5,0,4,0,250.0,test,4,M
592.317819595,4,1000,4,1,1,2,3,5,0,4,0,250.0,test,4,M
640.909194946,2,1000,0,1,1,2,3,5,0,4,0,250.0,test,2,M
752.29716301,0,1000,5,1,1,2,3,5,0,4,0,250.0,test,0,M
576.272010803,4,1000,4,1,1,2,3,5,0,4,0,250.0,test,4,M
528.254985809,1,1000,1,0,1,2,3,5,0,4,0,250.0,test,5,M
495.902061462,0,1000,5,1,1,2,3,5,0,4,0,250.0,test,0,M
1040.39311409,2,1000,0,0,1,2,3,5,0,4,0,250.0,test,0,M
608.276128769,5,1000,2,1,1,2,3,5,0,4,0,250.0,test,5,M
639.975070953,0,1000,5,1,1,2,3,5,0,4,0,250.0,test,0,M
624.377012253,2,1000,0,1,1,2,3,5,0,4,0,250.0,test,2,M
799.983024597,3,1000,3,1,1,2,3,5,0,4,0,250.0,test,3,M
480.423927307,3,1000,3,1,1,2,3,5,0,4,0,250.0,test,3,M
431.985139847,3,1000,3,1,1,2,3,5,0,4,0,250.0,test,3,M
351.943969727,3,1000,3,1,1,2,3,5,0,4,0,250.0,test,3,M
527.724981308,5,1000,2,1,1,2,3,5,0,4,0,250.0,test,5,M
431.915044785,4,1000,4,0,1,2,3,5,0,4,0,250.0,test,1,M
512.24398613,0,1000,5,1,1,2,3,5,0,4,0,250.0,test,0,M
448.091030121,0,1000,5,1,1,2,3,5,0,4,0,250.0,test,0,M
335.777044296,0,1000,5,1,1,2,3,5,0,4,0,250.0,test,0,M
527.879953384,3,1000,3,0,1,2,3,5,0,4,0,250.0,test,4,M
367.804050446,3,1000,3,1,1,2,3,5,0,4,0,250.0,test,3,M
447.815895081,4,1000,4,1,1,2,3,5,0,4,0,250.0,test,4,M
495.846033096,5,1000,2,1,1,2,3,5,0,4,0,250.0,test,5,M
495.850086212,0,1000,5,0,1,2,3,5,0,4,0,250.0,test,3,M
623.745918274,4,1000,4,1,1,2,3,5,0,4,0,250.0,test,4,M
815.670013428,2,1000,0,1,1,2,3,5,0,4,0,250.0,test,2,M
608.010053635,5,1000,2,1,1,2,3,5,0,4,0,250.0,test,5,M
543.736934662,3,1000,3,1,1,2,3,5,0,4,0,250.0,test,3,M
512.230157852,5,1000,2,1,1,2,3,5,0,4,0,250.0,test,5,M
640.213012695,4,1000,4,1,1,2,3,5,0,4,0,250.0,test,4,M
592.046976089,5,1000,2,1,1,2,3,5,0,4,0,250.0,test,5,M
672.496080399,3,1000,3,1,1,2,3,5,0,4,0,250.0,test,3,M
576.85303688,5,1000,2,1,1,2,3,5,0,4,0,250.0,test,5,M
720.39103508,0,1000,5,1,1,2,3,5,0,4,0,250.0,test,0,M
672.360897064,4,1000,4,1,1,2,3,5,0,4,0,250.0,test,4,M
576.413154602,3,1000,3,1,1,2,3,5,0,4,0,250.0,test,3,M
624.001026154,5,1000,2,1,1,2,3,5,0,4,0,250.0,test,5,M
608.258962631,1,1000,1,1,1,2,3,5,0,4,0,250.0,test,1,M
592.247962952,2,1000,0,0,1,2,3,5,0,4,0,250.0,test,3,M
463.81187439,0,1000,5,0,1,2,3,5,0,4,0,250.0,test,3,M
639.78600502,4,1000,4,1,1,2,3,5,0,4,0,250.0,test,4,M
607.867002487,3,1000,3,1,1,2,3,5,0,4,0,250.0,test,3,M
752.243041992,1,1000,1,1,1,2,3,5,0,4,0,250.0,test,1,M
496.315956116,1,1000,1,1,1,2,3,5,0,4,0,250.0,test,1,M
608.268022537,2,1000,0,0,1,2,3,5,0,4,0,250.0,test,3,M
592.154979706,0,1000,5,1,1,2,3,5,0,4,0,250.0,test,0,M
431.978940964,0,1000,5,1,1,2,3,5,0,4,0,250.0,test,0,M
463.835954666,3,1000,3,1,1,2,3,5,0,4,0,250.0,test,3,M
431.698083878,2,1000,0,0,1,2,3,5,0,4,0,250.0,test,4,M
511.81602478,3,1000,3,1,1,2,3,5,0,4,0,250.0,test,3,M
624.216079712,5,1000,2,1,1,2,3,5,0,4,0,250.0,test,5,M
576.300859451,0,1000,5,0,1,2,3,5,0,4,0,250.0,test,3,M
1168.70498657,2,1000,0,1,1,2,3,5,0,4,0,250.0,test,2,M
608.192920685,1,1000,1,1,1,2,3,5,0,4,0,250.0,test,1,M
592.186927795,5,1000,2,1,1,2,3,5,0,4,0,250.0,test,5,M
608.165025711,1,1000,1,0,1,2,3,5,0,4,0,250.0,test,2,M
575.793027878,4,1000,4,1,1,2,3,5,0,4,0,250.0,test,4,M
592.190027237,5,1000,2,1,1,2,3,5,0,4,0,250.0,test,5,M
703.842878342,0,1000,5,1,1,2,3,5,0,4,0,250.0,test,0,M
560.235977173,1,1000,1,1,1,2,3,5,0,4,0,250.0,test,1,M
736.037969589,4,1000,4,1,1,2,3,5,0,4,0,250.0,test,4,M
496.522903442,4,1000,4,1,1,2,3,5,0,4,0,250.0,test,4,M
640.773057938,5,1000,2,1,1,2,3,5,0,4,0,250.0,test,5,M
976.137876511,3,1000,3,1,1,2,3,5,0,4,0,250.0,test,3,M
736.133813858,0,1000,5,1,1,2,3,5,0,4,0,250.0,test,0,M
511.736154556,3,1000,3,0,1,2,3,5,0,4,0,250.0,test,4,M
1103.87396812,2,1000,0,1,1,2,3,5,0,4,0,250.0,test,2,M
544.191837311,0,1000,5,1,1,2,3,5,0,4,0,250.0,test,0,M
608.332872391,3,1000,3,1,1,2,3,5,0,4,0,250.0,test,3,M
608.366966248,4,1000,4,1,1,2,3,5,0,4,0,250.0,test,4,M
768.301010132,2,1000,0,1,1,2,3,5,0,4,0,250.0,test,2,M
560.065984726,3,1000,3,1,1,2,3,5,0,4,0,250.0,test,3,M
607.820987701,0,1000,5,1,1,2,3,5,0,4,0,250.0,test,0,M
560.631990433,5,1000,2,1,1,2,3,5,0,4,0,250.0,test,5,M
560.614109039,2,1000,0,1,1,2,3,5,0,4,0,250.0,test,2,M
447.845935822,2,1000,0,1,1,2,3,5,0,4,0,250.0,test,2,M
560.118198395,3,1000,3,1,1,2,3,5,0,4,0,250.0,test,3,M
415.776014328,3,1000,3,1,1,2,3,5,0,4,0,250.0,test,3,M
512.088060379,4,1000,4,0,1,2,3,5,0,4,0,250.0,test,3,M
576.235055923,2,1000,0,1,1,2,3,5,0,4,0,250.0,test,2,M
576.052904129,1,1000,1,1,1,2,3,5,0,4,0,250.0,test,1,M
544.200897217,3,1000,3,1,1,2,3,5,0,4,0,250.0,test,3,M
640.062093735,0,1000,5,1,1,2,3,5,0,4,0,250.0,test,0,M
624.008893967,4,1000,4,1,1,2,3,5,0,4,0,250.0,test,4,M
575.974941254,1,1000,1,1,1,2,3,5,0,4,0,250.0,test,1,M
431.702136993,1,1000,1,1,1,2,3,5,0,4,0,250.0,test,1,M
623.913049698,4,1000,4,1,1,2,3,5,0,4,0,250.0,test,4,M
560.347080231,2,1000,0,0,1,2,3,5,0,4,0,250.0,test,3,M
544.097185135,5,1000,2,1,1,2,3,5,0,4,0,250.0,test,5,M
687.856197357,0,1000,5,1,1,2,3,5,0,4,0,250.0,test,0,M
640.237092972,4,1000,4,1,1,2,3,5,0,4,0,250.0,test,4,M
464.733839035,0,1000,5,0,1,2,3,5,0,4,0,250.0,test,3,M
559.839963913,1,1000,1,1,1,2,3,5,0,4,0,250.0,test,1,M
640.346050262,4,1000,4,1,1,2,3,5,0,4,0,250.0,test,4,M
864.346981049,2,1000,0,1,1,2,3,5,0,4,0,250.0,test,2,M
528.177022934,3,1000,3,1,1,2,3,5,0,4,0,250.0,test,3,M
543.875932693,1,1000,1,1,1,2,3,5,0,4,0,250.0,test,1,M
512.186050415,3,1000,3,1,1,2,3,5,0,4,0,250.0,test,3,M
559.901952744,5,1000,2,1,1,2,3,5,0,4,0,250.0,test,5,M
543.639183044,1,1000,1,1,1,2,3,5,0,4,0,250.0,test,1,M
624.073028564,3,1000,3,1,1,2,3,5,0,4,0,250.0,test,3,M
656.122922897,0,1000,5,1,1,2,3,5,0,4,0,250.0,test,0,M
496.387958527,4,1000,4,1,1,2,3,5,0,4,0,250.0,test,4,M
511.873960495,5,1000,2,1,1,2,3,5,0,4,0,250.0,test,5,M
496.148109436,4,1000,4,1,1,2,3,5,0,4,0,250.0,test,4,M
496.162891388,1,1000,1,1,1,2,3,5,0,4,0,250.0,test,1,M
656.288862228,2,1000,0,0,1,2,3,5,0,4,0,250.0,test,3,M
511.787891388,3,1000,3,1,1,2,3,5,0,4,0,250.0,test,3,M
528.1291008,4,1000,4,1,1,2,3,5,0,4,0,250.0,test,4,M
655.914783478,5,1000,2,1,1,2,3,5,0,4,0,250.0,test,5,M
480.190038681,2,1000,0,0,1,2,3,5,0,4,0,250.0,test,3,M
1216.13407135,4,1000,4,1,1,2,3,5,0,4,0,250.0,test,4,M
544.489860535,0,1000,5,1,1,2,3,5,0,4,0,250.0,test,0,M
496.391773224,5,1000,2,1,1,2,3,5,0,4,0,250.0,test,5,M
655.926942825,2,1000,0,1,1,2,3,5,0,4,0,250.0,test,2,M
528.172969818,1,1000,1,1,1,2,3,5,0,4,0,250.0,test,1,M
432.456970215,4,1000,4,1,1,2,3,5,0,4,0,250.0,test,4,M
495.759963989,2,1000,0,0,1,2,3,5,0,4,0,250.0,test,3,M
528.245925903,5,1000,2,1,1,2,3,5,0,4,0,250.0,test,5,M
576.061010361,5,1000,2,1,1,2,3,5,0,4,0,250.0,test,5,M
560.087919235,4,1000,4,1,1,2,3,5,0,4,0,250.0,test,4,M
736.15193367,2,1000,0,1,1,2,3,5,0,4,0,250.0,test,2,M
463.901042938,2,1000,0,1,1,2,3,5,0,4,0,250.0,test,2,M
608.272075653,3,1000,3,1,1,2,3,5,0,4,0,250.0,test,3,M
383.913993835,0,1000,5,1,1,2,3,5,0,4,0,250.0,test,0,M
464.200973511,0,1000,5,1,1,2,3,5,0,4,0,250.0,test,0,M
671.754837036,3,1000,3,1,1,2,3,5,0,4,0,250.0,test,3,M
607.983827591,1,1000,1,1,1,2,3,5,0,4,0,250.0,test,1,M
608.43706131,4,1000,4,0,1,2,3,5,0,4,0,250.0,test,5,M
672.23405838,3,1000,3,1,1,2,3,5,0,4,0,250.0,test,3,M
591.778039932,3,1000,3,1,1,2,3,5,0,4,0,250.0,test,3,M
544.420957565,0,1000,5,1,1,2,3,5,0,4,0,250.0,test,0,M
592.370033264,5,1000,2,1,1,2,3,5,0,4,0,250.0,test,5,M
608.195066452,2,1000,0,0,1,2,3,5,0,4,0,250.0,test,3,M
624.110937119,5,1000,2,1,1,2,3,5,0,4,0,250.0,test,5,M
496.245145798,2,1000,0,1,1,2,3,5,0,4,0,250.0,test,2,M
495.908021927,3,1000,3,1,1,2,3,5,0,4,0,250.0,test,3,M
591.907024384,4,1000,4,1,1,2,3,5,0,4,0,250.0,test,4,M
623.891115189,0,1000,5,1,1,2,3,5,0,4,0,250.0,test,0,M
496.720790863,0,1000,5,1,1,2,3,5,0,4,0,250.0,test,0,M
543.688058853,1,1000,1,1,1,2,3,5,0,4,0,250.0,test,1,M
576.267957687,0,1000,5,1,1,2,3,5,0,4,0,250.0,test,0,M
368.466854095,0,1000,5,1,1,2,3,5,0,4,0,250.0,test,0,M
512.338161469,1,1000,1,1,1,2,3,5,0,4,0,250.0,test,1,M
527.739048004,3,1000,3,1,1,2,3,5,0,4,0,250.0,test,3,M
352.298021317,2,1000,0,1,1,2,3,5,0,4,0,250.0,test,2,M
399.900913239,3,1000,3,0,1,2,3,5,0,4,0,250.0,test,4,M
639.755964279,5,1000,2,1,1,2,3,5,0,4,0,250.0,test,5,M
591.751813889,4,1000,4,1,1,2,3,5,0,4,0,250.0,test,4,M
415.959835052,0,1000,5,0,1,2,3,5,0,4,0,250.0,test,3,M
544.494152069,2,1000,0,1,1,2,3,5,0,4,0,250.0,test,2,M
463.911056519,2,1000,0,1,1,2,3,5,0,4,0,250.0,test,2,M
688.500165939,3,1000,3,1,1,2,3,5,0,4,0,250.0,test,3,M
704.211950302,4,1000,4,1,1,2,3,5,0,4,0,250.0,test,4,M
720.206022263,2,1000,0,1,1,2,3,5,0,4,0,250.0,test,2,M
463.937997818,2,1000,0,1,1,2,3,5,0,4,0,250.0,test,2,M
784.302949905,3,1000,3,1,1,2,3,5,0,4,0,250.0,test,3,M
592.393875122,4,1000,4,1,1,2,3,5,0,4,0,250.0,test,4,M
719.95306015,1,1000,1,1,1,2,3,5,0,4,0,250.0,test,1,M
400.069952011,1,1000,1,1,1,2,3,5,0,4,0,250.0,test,1,M
527.760982513,0,1000,5,1,1,2,3,5,0,4,0,250.0,test,0,M
512.073040009,5,1000,2,1,1,2,3,5,0,4,0,250.0,test,5,M
543.883085251,1,1000,1,1,1,2,3,5,0,4,0,250.0,test,1,M
592.335939407,5,1000,2,1,1,2,3,5,0,4,0,250.0,test,5,M
639.945983887,4,1000,4,1,1,2,3,5,0,4,0,250.0,test,4,M
543.766021729,2,1000,0,1,1,2,3,5,0,4,0,250.0,test,2,M
575.898885727,4,1000,4,1,1,2,3,5,0,4,0,250.0,test,4,M
576.294183731,2,1000,0,1,1,2,3,5,0,4,0,250.0,test,2,M
608.417034149,3,1000,3,1,1,2,3,5,0,4,0,250.0,test,3,M
528.469085693,2,1000,0,1,1,2,3,5,0,4,0,250.0,test,2,M
3071.77090645,5,1000,2,0,1,2,3,5,0,4,0,250.0,test,1,M
608.330965042,4,1000,4,1,1,2,3,5,0,4,0,250.0,test,4,M
608.459949493,5,1000,2,1,1,2,3,5,0,4,0,250.0,test,5,M
640.350103378,3,1000,3,1,1,2,3,5,0,4,0,250.0,test,3,M
543.792009354,5,1000,2,1,1,2,3,5,0,4,0,250.0,test,5,M
640.244960785,1,1000,1,1,1,2,3,5,0,4,0,250.0,test,1,M
591.944932938,4,1000,4,1,1,2,3,5,0,4,0,250.0,test,4,M
640.225172043,0,1000,5,1,1,2,3,5,0,4,0,250.0,test,0,M
671.882867813,5,1000,2,1,1,2,3,5,0,4,0,250.0,test,5,M
544.394016266,2,1000,0,1,1,2,3,5,0,4,0,250.0,test,2,M
736.197948456,4,1000,4,1,1,2,3,5,0,4,0,250.0,test,4,M
544.143199921,5,1000,2,0,1,2,3,5,0,4,0,250.0,test,2,M
576.221942902,0,1000,5,1,1,2,3,5,0,4,0,250.0,test,0,M
1920.40491104,5,1000,2,1,1,2,3,5,0,4,0,250.0,test,5,M
751.982927322,3,1000,3,1,1,2,3,5,0,4,0,250.0,test,3,M
576.247930527,0,1000,5,1,1,2,3,5,0,4,0,250.0,test,0,M
736.200094223,5,1000,2,1,1,2,3,5,0,4,0,250.0,test,5,M
528.069972992,1,1000,1,1,1,2,3,5,0,4,0,250.0,test,1,M
464.303970337,3,1000,3,1,1,2,3,5,0,4,0,250.0,test,3,M
512.336015701,2,1000,0,0,1,2,3,5,0,4,0,250.0,test,1,M
559.998035431,4,1000,4,1,1,2,3,5,0,4,0,250.0,test,4,M
591.94111824,4,1000,4,1,1,2,3,5,0,4,0,250.0,test,4,M
592.170000076,3,1000,3,1,1,2,3,5,0,4,0,250.0,test,3,M
367.758989334,2,1000,0,1,1,2,3,5,0,4,0,250.0,test,2,M
527.909994125,1,1000,1,1,1,2,3,5,0,4,0,250.0,test,1,M
704.252004623,5,1000,2,0,1,2,3,5,0,4,0,250.0,test,2,M
511.58118248,5,1000,2,0,1,2,3,5,0,4,0,250.0,test,3,M
623.847961426,5,1000,2,1,1,2,3,5,0,4,0,250.0,test,5,M
928.44080925,3,1000,3,1,1,2,3,5,0,4,0,250.0,test,3,M
559.963941574,0,1000,5,1,1,2,3,5,0,4,0,250.0,test,0,M
576.097011566,3,1000,3,1,1,2,3,5,0,4,0,250.0,test,3,M
560.061216354,0,1000,5,1,1,2,3,5,0,4,0,250.0,test,0,M
624.196052551,4,1000,4,1,1,2,3,5,0,4,0,250.0,test,4,M
480.151891708,0,1000,5,1,1,2,3,5,0,4,0,250.0,test,0,M
367.835998535,0,1000,5,1,1,2,3,5,0,4,0,250.0,test,0,M
656.334161758,2,1000,0,1,1,2,3,5,0,4,0,250.0,test,2,M
656.315803528,3,1000,3,1,1,2,3,5,0,4,0,250.0,test,3,M
479.785919189,3,1000,3,1,1,2,3,5,0,4,0,250.0,test,3,M
447.908878326,3,1000,3,1,1,2,3,5,0,4,0,250.0,test,3,M
528.274059296,2,1000,0,1,1,2,3,5,0,4,0,250.0,test,2,M
560.398101807,4,1000,4,1,1,2,3,5,0,4,0,250.0,test,4,M
448.405981064,3,1000,3,1,1,2,3,5,0,4,0,250.0,test,3,M
544.407844543,0,1000,5,1,1,2,3,5,0,4,0,250.0,test,0,M
528.496026993,1,1000,1,1,1,2,3,5,0,4,0,250.0,test,1,M
576.493024826,5,1000,2,1,1,2,3,5,0,4,0,250.0,test,5,M
608.431816101,0,1000,5,1,1,2,3,5,0,4,0,250.0,test,0,M
912.816047668,0,1000,5,1,1,2,3,5,0,4,0,250.0,test,0,M
656.474113464,5,1000,2,1,1,2,3,5,0,4,0,250.0,test,5,M
528.506040573,5,1000,2,1,1,2,3,5,0,4,0,250.0,test,5,M
624.481916428,1,1000,1,1,1,2,3,5,0,4,0,250.0,test,1,M
464.457035065,1,1000,1,1,1,2,3,5,0,4,0,250.0,test,1,M
528.373003006,2,1000,0,1,1,2,3,5,0,4,0,250.0,test,2,M
544.471025467,0,1000,5,1,1,2,3,5,0,4,0,250.0,test,0,M
528.446912766,4,1000,4,1,1,2,3,5,0,4,0,250.0,test,4,M
512.481927872,0,1000,5,1,1,2,3,5,0,4,0,250.0,test,0,M
544.456005096,5,1000,2,1,1,2,3,5,0,4,0,250.0,test,5,M
592.563152313,1,1000,1,1,1,2,3,5,0,4,0,250.0,test,1,M
672.428846359,3,1000,3,1,1,2,3,5,0,4,0,250.0,test,3,M
432.402849197,1,1000,1,1,1,2,3,5,0,4,0,250.0,test,1,M
624.464035034,5,1000,2,1,1,2,3,5,0,4,0,250.0,test,5,M
511.896848679,2,1000,0,1,1,2,3,5,0,4,0,250.0,test,2,M
623.836994171,5,1000,2,1,1,2,3,5,0,4,0,250.0,test,5,M
623.358011246,3,1000,3,1,1,2,3,5,0,4,0,250.0,test,3,M
608.821868896,4,1000,4,1,1,2,3,5,0,4,0,250.0,test,4,M
543.755054474,5,1000,2,1,1,2,3,5,0,4,0,250.0,test,5,M
624.526977539,1,1000,1,1,1,2,3,5,0,4,0,250.0,test,1,M
496.118068695,4,1000,4,1,1,2,3,5,0,4,0,250.0,test,4,M
