RT,correct_response,ms-prestimblank,curstim,correct,SRmap_1,SRmap_0,SRmap_3,SRmap_2,SRmap_5,SRmap_4,ms-precue,ntrials,type,response,condition
3424.76296425,1,1000,0,1,3,1,5,2,0,4,0,250.0,train,1,M
704.2760849,1,1000,0,1,3,1,5,2,0,4,0,250.0,train,1,M
703.880786896,2,1000,2,1,3,1,5,2,0,4,0,250.0,train,2,M
560.273170471,2,1000,2,1,3,1,5,2,0,4,0,250.0,train,2,M
848.385095596,1,1000,0,1,3,1,5,2,0,4,0,250.0,train,1,M
1103.94191742,4,1000,4,1,3,1,5,2,0,4,0,250.0,train,4,M
752.397060394,1,1000,0,1,3,1,5,2,0,4,0,250.0,train,1,M
752.934932709,5,1000,3,1,3,1,5,2,0,4,0,250.0,train,5,M
752.452135086,2,1000,2,1,3,1,5,2,0,4,0,250.0,train,2,M
736.418962479,4,1000,4,1,3,1,5,2,0,4,0,250.0,train,4,M
799.889087677,3,1000,1,1,3,1,5,2,0,4,0,250.0,train,3,M
624.358892441,1,1000,0,1,3,1,5,2,0,4,0,250.0,train,1,M
528.370857239,0,1000,5,1,3,1,5,2,0,4,0,250.0,train,0,M
608.485937119,4,1000,4,1,3,1,5,2,0,4,0,250.0,train,4,M
512.456893921,3,1000,1,1,3,1,5,2,0,4,0,250.0,train,3,M
528.121948242,4,1000,4,1,3,1,5,2,0,4,0,250.0,train,4,M
623.615026474,0,1000,5,1,3,1,5,2,0,4,0,250.0,train,0,M
544.33298111,1,1000,0,1,3,1,5,2,0,4,0,250.0,train,1,M
528.295040131,0,1000,5,1,3,1,5,2,0,4,0,250.0,train,0,M
592.226982117,1,1000,0,1,3,1,5,2,0,4,0,250.0,train,1,M
896.294116974,3,1000,1,1,3,1,5,2,0,4,0,250.0,train,3,M
400.233030319,4,1000,4,1,3,1,5,2,0,4,0,250.0,train,4,M
511.960029602,5,1000,3,1,3,1,5,2,0,4,0,250.0,train,5,M
640.331029892,1,1000,0,1,3,1,5,2,0,4,0,250.0,train,1,M
624.257802963,3,1000,1,1,3,1,5,2,0,4,0,250.0,train,3,M
560.775995255,3,1000,1,1,3,1,5,2,0,4,0,250.0,train,3,M
688.376188278,1,1000,0,1,3,1,5,2,0,4,0,250.0,train,1,M
640.748023987,2,1000,2,1,3,1,5,2,0,4,0,250.0,train,2,M
464.419126511,0,1000,5,1,3,1,5,2,0,4,0,250.0,train,0,M
528.860807419,0,1000,5,0,3,1,5,2,0,4,0,250.0,train,1,M
640.252113342,2,1000,2,1,3,1,5,2,0,4,0,250.0,train,2,M
496.422052383,2,1000,2,1,3,1,5,2,0,4,0,250.0,train,2,M
736.420154572,5,1000,3,1,3,1,5,2,0,4,0,250.0,train,5,M
496.376037598,5,1000,3,1,3,1,5,2,0,4,0,250.0,train,5,M
416.383981705,4,1000,4,1,3,1,5,2,0,4,0,250.0,train,4,M
496.4158535,3,1000,1,1,3,1,5,2,0,4,0,250.0,train,3,M
512.505054474,3,1000,1,1,3,1,5,2,0,4,0,250.0,train,3,M
656.311035156,1,1000,0,1,3,1,5,2,0,4,0,250.0,train,1,M
672.997951508,5,1000,3,1,3,1,5,2,0,4,0,250.0,train,5,M
672.497987747,1,1000,0,1,3,1,5,2,0,4,0,250.0,train,1,M
544.416904449,0,1000,5,1,3,1,5,2,0,4,0,250.0,train,0,M
768.406152725,3,1000,1,1,3,1,5,2,0,4,0,250.0,train,3,M
656.492948532,1,1000,0,1,3,1,5,2,0,4,0,250.0,train,1,M
560.501098633,5,1000,3,1,3,1,5,2,0,4,0,250.0,train,5,M
512.245893478,5,1000,3,1,3,1,5,2,0,4,0,250.0,train,5,M
688.416004181,3,1000,1,1,3,1,5,2,0,4,0,250.0,train,3,M
480.422019958,3,1000,1,1,3,1,5,2,0,4,0,250.0,train,3,M
608.49905014,4,1000,4,1,3,1,5,2,0,4,0,250.0,train,4,M
672.347068787,1,1000,0,1,3,1,5,2,0,4,0,250.0,train,1,M
720.499992371,2,1000,2,1,3,1,5,2,0,4,0,250.0,train,2,M
656.499147415,1,1000,0,1,3,1,5,2,0,4,0,250.0,train,1,M
656.441926956,4,1000,4,1,3,1,5,2,0,4,0,250.0,train,4,M
592.326164246,1,1000,0,1,3,1,5,2,0,4,0,250.0,train,1,M
688.38596344,4,1000,4,1,3,1,5,2,0,4,0,250.0,train,4,M
496.720075607,0,1000,5,1,3,1,5,2,0,4,0,250.0,train,0,M
768.325090408,3,1000,1,1,3,1,5,2,0,4,0,250.0,train,3,M
672.345161438,4,1000,4,1,3,1,5,2,0,4,0,250.0,train,4,M
432.461977005,3,1000,1,0,3,1,5,2,0,4,0,250.0,train,2,M
848.141908646,5,1000,3,1,3,1,5,2,0,4,0,250.0,train,5,M
864.34006691,3,1000,1,1,3,1,5,2,0,4,0,250.0,train,3,M
864.431142807,2,1000,2,1,3,1,5,2,0,4,0,250.0,train,2,M
656.468868256,3,1000,1,1,3,1,5,2,0,4,0,250.0,train,3,M
1008.30197334,4,1000,4,1,3,1,5,2,0,4,0,250.0,train,4,M
640.433073044,1,1000,0,1,3,1,5,2,0,4,0,250.0,train,1,M
576.429843903,3,1000,1,1,3,1,5,2,0,4,0,250.0,train,3,M
448.359012604,4,1000,4,1,3,1,5,2,0,4,0,250.0,train,4,M
560.363054276,4,1000,4,1,3,1,5,2,0,4,0,250.0,train,4,M
480.903863907,5,1000,3,1,3,1,5,2,0,4,0,250.0,train,5,M
560.208082199,4,1000,4,1,3,1,5,2,0,4,0,250.0,train,4,M
767.686843872,5,1000,3,1,3,1,5,2,0,4,0,250.0,train,5,M
688.803911209,5,1000,3,1,3,1,5,2,0,4,0,250.0,train,5,M
496.025085449,4,1000,4,1,3,1,5,2,0,4,0,250.0,train,4,M
576.790094376,2,1000,2,0,3,1,5,2,0,4,0,250.0,train,3,M
575.515985489,5,1000,3,1,3,1,5,2,0,4,0,250.0,train,5,M
608.785867691,1,1000,0,1,3,1,5,2,0,4,0,250.0,train,1,M
640.446186066,2,1000,2,1,3,1,5,2,0,4,0,250.0,train,2,M
672.49417305,1,1000,0,1,3,1,5,2,0,4,0,250.0,train,1,M
640.446186066,1,1000,0,1,3,1,5,2,0,4,0,250.0,train,1,M
672.430992126,5,1000,3,1,3,1,5,2,0,4,0,250.0,train,5,M
977.355003357,3,1000,1,1,3,1,5,2,0,4,0,250.0,train,3,M
640.316009521,2,1000,2,0,3,1,5,2,0,4,0,250.0,train,1,M
672.444105148,3,1000,1,1,3,1,5,2,0,4,0,250.0,train,3,M
640.413045883,2,1000,2,1,3,1,5,2,0,4,0,250.0,train,2,M
624.491930008,3,1000,1,1,3,1,5,2,0,4,0,250.0,train,3,M
656.372785568,0,1000,5,1,3,1,5,2,0,4,0,250.0,train,0,M
656.584024429,5,1000,3,1,3,1,5,2,0,4,0,250.0,train,5,M
544.297933578,0,1000,5,1,3,1,5,2,0,4,0,250.0,train,0,M
480.371952057,2,1000,2,1,3,1,5,2,0,4,0,250.0,train,2,M
672.535896301,3,1000,1,1,3,1,5,2,0,4,0,250.0,train,3,M
624.42612648,1,1000,0,1,3,1,5,2,0,4,0,250.0,train,1,M
544.331073761,2,1000,2,1,3,1,5,2,0,4,0,250.0,train,2,M
688.871860504,1,1000,0,1,3,1,5,2,0,4,0,250.0,train,1,M
528.422832489,0,1000,5,1,3,1,5,2,0,4,0,250.0,train,0,M
544.406175613,1,1000,0,1,3,1,5,2,0,4,0,250.0,train,1,M
624.338150024,1,1000,0,1,3,1,5,2,0,4,0,250.0,train,1,M
544.380187988,2,1000,2,1,3,1,5,2,0,4,0,250.0,train,2,M
688.399076462,2,1000,2,1,3,1,5,2,0,4,0,250.0,train,2,M
496.338129044,2,1000,2,1,3,1,5,2,0,4,0,250.0,train,2,M
576.345920563,1,1000,0,1,3,1,5,2,0,4,0,250.0,train,1,M
640.441894531,4,1000,4,1,3,1,5,2,0,4,0,250.0,train,4,M
480.34286499,5,1000,3,1,3,1,5,2,0,4,0,250.0,train,5,M
448.332071304,3,1000,1,0,3,1,5,2,0,4,0,250.0,train,4,M
1200.18315315,4,1000,4,1,3,1,5,2,0,4,0,250.0,train,4,M
672.410011292,4,1000,4,1,3,1,5,2,0,4,0,250.0,train,4,M
608.497142792,0,1000,5,1,3,1,5,2,0,4,0,250.0,train,0,M
688.457012177,2,1000,2,1,3,1,5,2,0,4,0,250.0,train,2,M
512.257814407,0,1000,5,1,3,1,5,2,0,4,0,250.0,train,0,M
896.852016449,4,1000,4,1,3,1,5,2,0,4,0,250.0,train,4,M
864.39204216,2,1000,2,1,3,1,5,2,0,4,0,250.0,train,2,M
672.298908234,3,1000,1,1,3,1,5,2,0,4,0,250.0,train,3,M
719.631910324,5,1000,3,1,3,1,5,2,0,4,0,250.0,train,5,M
816.025972366,3,1000,1,1,3,1,5,2,0,4,0,250.0,train,3,M
623.516082764,0,1000,5,1,3,1,5,2,0,4,0,250.0,train,0,M
640.22898674,1,1000,0,1,3,1,5,2,0,4,0,250.0,train,1,M
847.398996353,4,1000,4,1,3,1,5,2,0,4,0,250.0,train,4,M
864.324092865,2,1000,2,1,3,1,5,2,0,4,0,250.0,train,2,M
576.848983765,2,1000,2,1,3,1,5,2,0,4,0,250.0,train,2,M
592.873811722,2,1000,2,1,3,1,5,2,0,4,0,250.0,train,2,M
655.94792366,5,1000,3,1,3,1,5,2,0,4,0,250.0,train,5,M
960.244894028,4,1000,4,1,3,1,5,2,0,4,0,250.0,train,4,M
480.210065842,4,1000,4,1,3,1,5,2,0,4,0,250.0,train,4,M
799.711942673,0,1000,5,1,3,1,5,2,0,4,0,250.0,train,0,M
512.763977051,0,1000,5,1,3,1,5,2,0,4,0,250.0,train,0,M
576.131105423,5,1000,3,1,3,1,5,2,0,4,0,250.0,train,5,M
608.782052994,3,1000,1,1,3,1,5,2,0,4,0,250.0,train,3,M
672.765016556,4,1000,4,1,3,1,5,2,0,4,0,250.0,train,4,M
480.928897858,4,1000,4,1,3,1,5,2,0,4,0,250.0,train,4,M
432.20281601,4,1000,4,1,3,1,5,2,0,4,0,250.0,train,4,M
656.852960587,1,1000,0,1,3,1,5,2,0,4,0,250.0,train,1,M
448.822975159,1,1000,0,1,3,1,5,2,0,4,0,250.0,train,1,M
1056.89907074,3,1000,1,1,3,1,5,2,0,4,0,250.0,train,3,M
688.83895874,5,1000,3,1,3,1,5,2,0,4,0,250.0,train,5,M
1008.74900818,2,1000,2,1,3,1,5,2,0,4,0,250.0,train,2,M
592.712879181,0,1000,5,1,3,1,5,2,0,4,0,250.0,train,0,M
640.714168549,1,1000,0,1,3,1,5,2,0,4,0,250.0,train,1,M
960.565090179,4,1000,4,1,3,1,5,2,0,4,0,250.0,train,4,M
928.821086884,1,1000,0,1,3,1,5,2,0,4,0,250.0,train,1,M
480.506896973,0,1000,5,1,3,1,5,2,0,4,0,250.0,train,0,M
528.388977051,0,1000,5,1,3,1,5,2,0,4,0,250.0,train,0,M
704.358816147,2,1000,2,1,3,1,5,2,0,4,0,250.0,train,2,M
528.344869614,2,1000,2,1,3,1,5,2,0,4,0,250.0,train,2,M
544.295072556,3,1000,1,1,3,1,5,2,0,4,0,250.0,train,3,M
448.398828506,4,1000,4,1,3,1,5,2,0,4,0,250.0,train,4,M
544.356107712,0,1000,5,1,3,1,5,2,0,4,0,250.0,train,0,M
640.429973602,5,1000,3,1,3,1,5,2,0,4,0,250.0,train,5,M
816.420078278,3,1000,1,1,3,1,5,2,0,4,0,250.0,train,3,M
432.382106781,4,1000,4,1,3,1,5,2,0,4,0,250.0,train,4,M
528.291940689,0,1000,5,1,3,1,5,2,0,4,0,250.0,train,0,M
448.868989944,2,1000,2,1,3,1,5,2,0,4,0,250.0,train,2,M
623.81196022,5,1000,3,1,3,1,5,2,0,4,0,250.0,train,5,M
672.873020172,3,1000,1,1,3,1,5,2,0,4,0,250.0,train,3,M
576.330184937,2,1000,2,1,3,1,5,2,0,4,0,250.0,train,2,M
608.330965042,5,1000,3,1,3,1,5,2,0,4,0,250.0,train,5,M
480.442047119,0,1000,5,1,3,1,5,2,0,4,0,250.0,train,0,M
672.578811646,1,1000,0,1,3,1,5,2,0,4,0,250.0,train,1,M
672.482967377,4,1000,4,1,3,1,5,2,0,4,0,250.0,train,4,M
736.54294014,1,1000,0,1,3,1,5,2,0,4,0,250.0,train,1,M
528.444051743,0,1000,5,1,3,1,5,2,0,4,0,250.0,train,0,M
672.487974167,5,1000,3,1,3,1,5,2,0,4,0,250.0,train,5,M
496.479034424,5,1000,3,1,3,1,5,2,0,4,0,250.0,train,5,M
688.456058502,2,1000,2,1,3,1,5,2,0,4,0,250.0,train,2,M
688.481092453,5,1000,3,1,3,1,5,2,0,4,0,250.0,train,5,M
640.43712616,3,1000,1,1,3,1,5,2,0,4,0,250.0,train,3,M
416.499853134,4,1000,4,1,3,1,5,2,0,4,0,250.0,train,4,M
704.437017441,1,1000,0,1,3,1,5,2,0,4,0,250.0,train,1,M
560.342073441,0,1000,5,1,3,1,5,2,0,4,0,250.0,train,0,M
656.454086304,4,1000,4,1,3,1,5,2,0,4,0,250.0,train,4,M
416.472911835,5,1000,3,1,3,1,5,2,0,4,0,250.0,train,5,M
1104.54392433,3,1000,1,1,3,1,5,2,0,4,0,250.0,train,3,M
640.385150909,1,1000,0,1,3,1,5,2,0,4,0,250.0,train,1,M
495.986938477,0,1000,5,1,3,1,5,2,0,4,0,250.0,train,0,M
736.471891403,2,1000,2,1,3,1,5,2,0,4,0,250.0,train,2,M
544.306993484,4,1000,4,1,3,1,5,2,0,4,0,250.0,train,4,M
560.560941696,0,1000,5,1,3,1,5,2,0,4,0,250.0,train,0,M
512.534856796,0,1000,5,1,3,1,5,2,0,4,0,250.0,train,0,M
592.550992966,3,1000,1,1,3,1,5,2,0,4,0,250.0,train,3,M
528.439044952,0,1000,5,1,3,1,5,2,0,4,0,250.0,train,0,M
672.747135162,4,1000,4,1,3,1,5,2,0,4,0,250.0,train,4,M
816.770076752,2,1000,2,1,3,1,5,2,0,4,0,250.0,train,2,M
1151.88789368,4,1000,4,1,3,1,5,2,0,4,0,250.0,train,4,M
576.30610466,4,1000,4,1,3,1,5,2,0,4,0,250.0,train,4,M
559.809923172,5,1000,3,1,3,1,5,2,0,4,0,250.0,train,5,M
752.178907394,2,1000,2,1,3,1,5,2,0,4,0,250.0,train,2,M
592.432022095,4,1000,4,1,3,1,5,2,0,4,0,250.0,train,4,M
1088.51504326,3,1000,1,1,3,1,5,2,0,4,0,250.0,train,3,M
720.564126968,0,1000,5,1,3,1,5,2,0,4,0,250.0,train,0,M
720.556020737,2,1000,2,1,3,1,5,2,0,4,0,250.0,train,2,M
800.448894501,3,1000,1,1,3,1,5,2,0,4,0,250.0,train,3,M
416.448116302,4,1000,4,1,3,1,5,2,0,4,0,250.0,train,4,M
624.704122543,3,1000,1,1,3,1,5,2,0,4,0,250.0,train,3,M
513.454198837,0,1000,5,1,3,1,5,2,0,4,0,250.0,train,0,M
784.368991852,3,1000,1,1,3,1,5,2,0,4,0,250.0,train,3,M
432.238101959,4,1000,4,1,3,1,5,2,0,4,0,250.0,train,4,M
544.496059418,0,1000,5,1,3,1,5,2,0,4,0,250.0,train,0,M
576.246976852,0,1000,5,1,3,1,5,2,0,4,0,250.0,train,0,M
687.767028809,4,1000,4,1,3,1,5,2,0,4,0,250.0,train,4,M
528.028964996,0,1000,5,1,3,1,5,2,0,4,0,250.0,train,0,M
576.472043991,5,1000,3,1,3,1,5,2,0,4,0,250.0,train,5,M
528.482913971,3,1000,1,1,3,1,5,2,0,4,0,250.0,train,3,M
512.870073318,3,1000,1,1,3,1,5,2,0,4,0,250.0,train,3,M
544.463157654,0,1000,5,1,3,1,5,2,0,4,0,250.0,train,0,M
608.821153641,2,1000,2,1,3,1,5,2,0,4,0,250.0,train,2,M
528.567075729,2,1000,2,1,3,1,5,2,0,4,0,250.0,train,2,M
720.765829086,4,1000,4,1,3,1,5,2,0,4,0,250.0,train,4,M
544.368982315,4,1000,4,1,3,1,5,2,0,4,0,250.0,train,4,M
848.405838013,2,1000,2,1,3,1,5,2,0,4,0,250.0,train,2,M
448.452949524,2,1000,2,1,3,1,5,2,0,4,0,250.0,train,2,M
544.47889328,2,1000,2,1,3,1,5,2,0,4,0,250.0,train,2,M
480.438947678,2,1000,2,1,3,1,5,2,0,4,0,250.0,train,2,M
560.490131378,0,1000,5,1,3,1,5,2,0,4,0,250.0,train,0,M
592.47803688,2,1000,2,1,3,1,5,2,0,4,0,250.0,train,2,M
576.407909393,1,1000,0,1,3,1,5,2,0,4,0,250.0,train,1,M
608.316898346,1,1000,0,1,3,1,5,2,0,4,0,250.0,train,1,M
592.384815216,2,1000,2,1,3,1,5,2,0,4,0,250.0,train,2,M
577.311992645,1,1000,0,1,3,1,5,2,0,4,0,250.0,train,1,M
560.477972031,1,1000,0,1,3,1,5,2,0,4,0,250.0,train,1,M
512.784004211,1,1000,0,1,3,1,5,2,0,4,0,250.0,train,1,M
672.511816025,5,1000,3,1,3,1,5,2,0,4,0,250.0,train,5,M
736.460924149,2,1000,2,1,3,1,5,2,0,4,0,250.0,train,2,M
672.479152679,2,1000,2,1,3,1,5,2,0,4,0,250.0,train,2,M
592.480897903,3,1000,1,1,3,1,5,2,0,4,0,250.0,train,3,M
656.433105469,2,1000,2,1,3,1,5,2,0,4,0,250.0,train,2,M
576.401948929,5,1000,3,1,3,1,5,2,0,4,0,250.0,train,5,M
624.373197556,1,1000,0,1,3,1,5,2,0,4,0,250.0,train,1,M
512.315988541,1,1000,0,1,3,1,5,2,0,4,0,250.0,train,1,M
768.573999405,3,1000,1,1,3,1,5,2,0,4,0,250.0,train,3,M
816.381931305,2,1000,2,1,3,1,5,2,0,4,0,250.0,train,2,M
576.771020889,3,1000,1,1,3,1,5,2,0,4,0,250.0,train,3,M
608.326196671,5,1000,3,1,3,1,5,2,0,4,0,250.0,train,5,M
592.350006104,1,1000,0,1,3,1,5,2,0,4,0,250.0,train,1,M
704.313993454,5,1000,3,1,3,1,5,2,0,4,0,250.0,train,5,M
560.322999954,3,1000,1,1,3,1,5,2,0,4,0,250.0,train,3,M
560.283184052,0,1000,5,1,3,1,5,2,0,4,0,250.0,train,0,M
656.368970871,3,1000,1,1,3,1,5,2,0,4,0,250.0,train,3,M
720.435857773,4,1000,4,1,3,1,5,2,0,4,0,250.0,train,4,M
560.199022293,4,1000,4,1,3,1,5,2,0,4,0,250.0,train,4,M
688.153028488,2,1000,2,1,3,1,5,2,0,4,0,250.0,train,2,M
912.139892578,4,1000,4,0,3,1,5,2,0,4,0,250.0,train,3,M
719.334125519,3,1000,1,1,3,1,5,2,0,4,0,250.0,train,3,M
688.519954681,4,1000,4,1,3,1,5,2,0,4,0,250.0,train,4,M
656.992197037,1,1000,0,1,3,1,5,2,0,4,0,250.0,train,1,M
688.466072083,3,1000,1,1,3,1,5,2,0,4,0,250.0,train,3,M
720.298051834,2,1000,2,1,3,1,5,2,0,4,0,250.0,train,2,M
672.233104706,4,1000,4,1,3,1,5,2,0,4,0,250.0,train,4,M
576.29609108,0,1000,5,1,3,1,5,2,0,4,0,250.0,train,0,M
592.848062515,5,1000,3,1,3,1,5,2,0,4,0,250.0,train,5,M
544.873952866,1,1000,0,1,3,1,5,2,0,4,0,250.0,train,1,M
784.862995148,2,1000,2,1,3,1,5,2,0,4,0,250.0,train,2,M
672.032117844,1,1000,0,1,3,1,5,2,0,4,0,250.0,train,1,M
495.543003082,3,1000,1,1,3,1,5,2,0,4,0,250.0,train,3,M
33790.6291485,0,1000,5,1,3,1,5,2,0,4,0,250.0,test,0,M
1711.8639946,2,1000,2,1,3,1,5,2,0,4,0,250.0,test,2,M
1599.99203682,1,1000,0,1,3,1,5,2,0,4,0,250.0,test,1,M
1056.28108978,2,1000,2,1,3,1,5,2,0,4,0,250.0,test,2,M
1328.31287384,2,1000,2,1,3,1,5,2,0,4,0,250.0,test,2,M
752.409934998,2,1000,2,1,3,1,5,2,0,4,0,250.0,test,2,M
1536.36097908,0,1000,5,1,3,1,5,2,0,4,0,250.0,test,0,M
1488.16680908,1,1000,0,1,3,1,5,2,0,4,0,250.0,test,1,M
672.431945801,5,1000,3,1,3,1,5,2,0,4,0,250.0,test,5,M
1024.49584007,4,1000,4,1,3,1,5,2,0,4,0,250.0,test,4,M
864.364862442,1,1000,0,1,3,1,5,2,0,4,0,250.0,test,1,M
1008.38184357,3,1000,1,1,3,1,5,2,0,4,0,250.0,test,3,M
704.367876053,3,1000,1,1,3,1,5,2,0,4,0,250.0,test,3,M
688.391923904,3,1000,1,1,3,1,5,2,0,4,0,250.0,test,3,M
736.02104187,1,1000,0,1,3,1,5,2,0,4,0,250.0,test,1,M
1152.44913101,1,1000,0,0,3,1,5,2,0,4,0,250.0,test,0,M
640.271902084,1,1000,0,1,3,1,5,2,0,4,0,250.0,test,1,M
736.256122589,3,1000,1,1,3,1,5,2,0,4,0,250.0,test,3,M
832.385063171,3,1000,1,1,3,1,5,2,0,4,0,250.0,test,3,M
1088.34195137,5,1000,3,1,3,1,5,2,0,4,0,250.0,test,5,M
1376.32799149,1,1000,0,1,3,1,5,2,0,4,0,250.0,test,1,M
1440.2179718,0,1000,5,1,3,1,5,2,0,4,0,250.0,test,0,M
720.287084579,2,1000,2,1,3,1,5,2,0,4,0,250.0,test,2,M
1296.31900787,0,1000,5,1,3,1,5,2,0,4,0,250.0,test,0,M
656.256914139,5,1000,3,1,3,1,5,2,0,4,0,250.0,test,5,M
576.390981674,0,1000,5,1,3,1,5,2,0,4,0,250.0,test,0,M
928.409099579,1,1000,0,1,3,1,5,2,0,4,0,250.0,test,1,M
880.532026291,5,1000,3,1,3,1,5,2,0,4,0,250.0,test,5,M
735.928058624,3,1000,1,1,3,1,5,2,0,4,0,250.0,test,3,M
608.492851257,5,1000,3,1,3,1,5,2,0,4,0,250.0,test,5,M
640.506029129,2,1000,2,1,3,1,5,2,0,4,0,250.0,test,2,M
656.441926956,2,1000,2,1,3,1,5,2,0,4,0,250.0,test,2,M
672.395944595,0,1000,5,1,3,1,5,2,0,4,0,250.0,test,0,M
816.383838654,4,1000,4,1,3,1,5,2,0,4,0,250.0,test,4,M
752.17795372,2,1000,2,1,3,1,5,2,0,4,0,250.0,test,2,M
704.316139221,5,1000,3,1,3,1,5,2,0,4,0,250.0,test,5,M
624.466896057,2,1000,2,1,3,1,5,2,0,4,0,250.0,test,2,M
688.363075256,0,1000,5,1,3,1,5,2,0,4,0,250.0,test,0,M
688.801050186,4,1000,4,1,3,1,5,2,0,4,0,250.0,test,4,M
624.093055725,0,1000,5,1,3,1,5,2,0,4,0,250.0,test,0,M
1104.67505455,1,1000,0,1,3,1,5,2,0,4,0,250.0,test,1,M
896.867990494,1,1000,0,1,3,1,5,2,0,4,0,250.0,test,1,M
752.295970917,0,1000,5,1,3,1,5,2,0,4,0,250.0,test,0,M
784.363031387,1,1000,0,1,3,1,5,2,0,4,0,250.0,test,1,M
623.857021332,1,1000,0,1,3,1,5,2,0,4,0,250.0,test,1,M
624.017953873,1,1000,0,1,3,1,5,2,0,4,0,250.0,test,1,M
736.340999603,3,1000,1,1,3,1,5,2,0,4,0,250.0,test,3,M
688.326120377,3,1000,1,1,3,1,5,2,0,4,0,250.0,test,3,M
656.394958496,2,1000,2,1,3,1,5,2,0,4,0,250.0,test,2,M
752.310991287,5,1000,3,1,3,1,5,2,0,4,0,250.0,test,5,M
752.351999283,4,1000,4,1,3,1,5,2,0,4,0,250.0,test,4,M
816.447019577,1,1000,0,1,3,1,5,2,0,4,0,250.0,test,1,M
592.399120331,2,1000,2,1,3,1,5,2,0,4,0,250.0,test,2,M
816.411972046,1,1000,0,1,3,1,5,2,0,4,0,250.0,test,1,M
880.836963654,1,1000,0,1,3,1,5,2,0,4,0,250.0,test,1,M
640.357971191,5,1000,3,1,3,1,5,2,0,4,0,250.0,test,5,M
496.378898621,0,1000,5,1,3,1,5,2,0,4,0,250.0,test,0,M
848.14286232,0,1000,5,1,3,1,5,2,0,4,0,250.0,test,0,M
816.307067871,3,1000,1,1,3,1,5,2,0,4,0,250.0,test,3,M
640.216112137,0,1000,5,1,3,1,5,2,0,4,0,250.0,test,0,M
784.251928329,1,1000,0,1,3,1,5,2,0,4,0,250.0,test,1,M
656.667947769,2,1000,2,1,3,1,5,2,0,4,0,250.0,test,2,M
607.752084732,2,1000,2,1,3,1,5,2,0,4,0,250.0,test,2,M
672.735929489,5,1000,3,1,3,1,5,2,0,4,0,250.0,test,5,M
640.810012817,5,1000,3,1,3,1,5,2,0,4,0,250.0,test,5,M
735.779047012,0,1000,5,1,3,1,5,2,0,4,0,250.0,test,0,M
608.504056931,0,1000,5,1,3,1,5,2,0,4,0,250.0,test,0,M
704.353094101,2,1000,2,1,3,1,5,2,0,4,0,250.0,test,2,M
608.345031738,2,1000,2,1,3,1,5,2,0,4,0,250.0,test,2,M
848.328828812,1,1000,0,1,3,1,5,2,0,4,0,250.0,test,1,M
608.403205872,1,1000,0,1,3,1,5,2,0,4,0,250.0,test,1,M
672.457933426,2,1000,2,1,3,1,5,2,0,4,0,250.0,test,2,M
944.522857666,5,1000,3,1,3,1,5,2,0,4,0,250.0,test,5,M
960.969924927,3,1000,1,1,3,1,5,2,0,4,0,250.0,test,3,M
688.734054565,5,1000,3,1,3,1,5,2,0,4,0,250.0,test,5,M
640.393018723,2,1000,2,1,3,1,5,2,0,4,0,250.0,test,2,M
816.672086716,1,1000,0,1,3,1,5,2,0,4,0,250.0,test,1,M
768.260002136,4,1000,4,1,3,1,5,2,0,4,0,250.0,test,4,M
656.396865845,3,1000,1,1,3,1,5,2,0,4,0,250.0,test,3,M
704.339981079,1,1000,0,1,3,1,5,2,0,4,0,250.0,test,1,M
688.342094421,5,1000,3,1,3,1,5,2,0,4,0,250.0,test,5,M
672.42193222,4,1000,4,1,3,1,5,2,0,4,0,250.0,test,4,M
640.32292366,1,1000,0,1,3,1,5,2,0,4,0,250.0,test,1,M
704.285144806,0,1000,5,1,3,1,5,2,0,4,0,250.0,test,0,M
640.358924866,5,1000,3,1,3,1,5,2,0,4,0,250.0,test,5,M
704.344034195,3,1000,1,1,3,1,5,2,0,4,0,250.0,test,3,M
640.328884125,2,1000,2,1,3,1,5,2,0,4,0,250.0,test,2,M
623.917818069,4,1000,4,1,3,1,5,2,0,4,0,250.0,test,4,M
672.305107117,4,1000,4,1,3,1,5,2,0,4,0,250.0,test,4,M
576.286077499,0,1000,5,1,3,1,5,2,0,4,0,250.0,test,0,M
720.397949219,4,1000,4,1,3,1,5,2,0,4,0,250.0,test,4,M
640.416145325,4,1000,4,1,3,1,5,2,0,4,0,250.0,test,4,M
656.445026398,4,1000,4,1,3,1,5,2,0,4,0,250.0,test,4,M
544.457912445,2,1000,2,1,3,1,5,2,0,4,0,250.0,test,2,M
720.480918884,1,1000,0,1,3,1,5,2,0,4,0,250.0,test,1,M
640.422105789,3,1000,1,1,3,1,5,2,0,4,0,250.0,test,3,M
704.478979111,0,1000,5,1,3,1,5,2,0,4,0,250.0,test,0,M
768.445014954,1,1000,0,1,3,1,5,2,0,4,0,250.0,test,1,M
672.006845474,3,1000,1,1,3,1,5,2,0,4,0,250.0,test,3,M
720.42298317,1,1000,0,1,3,1,5,2,0,4,0,250.0,test,1,M
1120.34082413,0,1000,5,1,3,1,5,2,0,4,0,250.0,test,0,M
800.426006317,4,1000,4,1,3,1,5,2,0,4,0,250.0,test,4,M
608.446121216,0,1000,5,1,3,1,5,2,0,4,0,250.0,test,0,M
656.344890594,3,1000,1,1,3,1,5,2,0,4,0,250.0,test,3,M
624.408960342,2,1000,2,1,3,1,5,2,0,4,0,250.0,test,2,M
608.39009285,3,1000,1,1,3,1,5,2,0,4,0,250.0,test,3,M
624.413013458,4,1000,4,1,3,1,5,2,0,4,0,250.0,test,4,M
672.28102684,3,1000,1,1,3,1,5,2,0,4,0,250.0,test,3,M
656.460046768,1,1000,0,1,3,1,5,2,0,4,0,250.0,test,1,M
640.377998352,2,1000,2,1,3,1,5,2,0,4,0,250.0,test,2,M
576.345920563,2,1000,2,1,3,1,5,2,0,4,0,250.0,test,2,M
640.472888947,4,1000,4,1,3,1,5,2,0,4,0,250.0,test,4,M
592.299938202,3,1000,1,1,3,1,5,2,0,4,0,250.0,test,3,M
464.48802948,2,1000,2,1,3,1,5,2,0,4,0,250.0,test,2,M
928.144931793,0,1000,5,1,3,1,5,2,0,4,0,250.0,test,0,M
592.794895172,5,1000,3,1,3,1,5,2,0,4,0,250.0,test,5,M
688.699960709,1,1000,0,1,3,1,5,2,0,4,0,250.0,test,1,M
656.247138977,4,1000,4,1,3,1,5,2,0,4,0,250.0,test,4,M
560.839891434,2,1000,2,1,3,1,5,2,0,4,0,250.0,test,2,M
559.854030609,2,1000,2,1,3,1,5,2,0,4,0,250.0,test,2,M
640.193939209,4,1000,4,1,3,1,5,2,0,4,0,250.0,test,4,M
464.281082153,4,1000,4,1,3,1,5,2,0,4,0,250.0,test,4,M
608.091115952,0,1000,5,1,3,1,5,2,0,4,0,250.0,test,0,M
736.140012741,3,1000,1,1,3,1,5,2,0,4,0,250.0,test,3,M
688.732147217,4,1000,4,1,3,1,5,2,0,4,0,250.0,test,4,M
640.623092651,5,1000,3,1,3,1,5,2,0,4,0,250.0,test,5,M
960.774183273,5,1000,3,1,3,1,5,2,0,4,0,250.0,test,5,M
736.439943314,4,1000,4,1,3,1,5,2,0,4,0,250.0,test,4,M
783.900022507,1,1000,0,1,3,1,5,2,0,4,0,250.0,test,1,M
704.412937164,3,1000,1,1,3,1,5,2,0,4,0,250.0,test,3,M
736.09995842,1,1000,0,1,3,1,5,2,0,4,0,250.0,test,1,M
624.319076538,0,1000,5,1,3,1,5,2,0,4,0,250.0,test,0,M
624.396085739,0,1000,5,1,3,1,5,2,0,4,0,250.0,test,0,M
624.328136444,5,1000,3,1,3,1,5,2,0,4,0,250.0,test,5,M
592.351198196,5,1000,3,1,3,1,5,2,0,4,0,250.0,test,5,M
592.228889465,2,1000,2,1,3,1,5,2,0,4,0,250.0,test,2,M
592.33212471,5,1000,3,1,3,1,5,2,0,4,0,250.0,test,5,M
655.940055847,4,1000,4,1,3,1,5,2,0,4,0,250.0,test,4,M
464.27989006,4,1000,4,1,3,1,5,2,0,4,0,250.0,test,4,M
608.423948288,5,1000,3,1,3,1,5,2,0,4,0,250.0,test,5,M
656.384944916,3,1000,1,1,3,1,5,2,0,4,0,250.0,test,3,M
816.419124603,3,1000,1,1,3,1,5,2,0,4,0,250.0,test,3,M
1008.00895691,5,1000,3,1,3,1,5,2,0,4,0,250.0,test,5,M
608.299970627,2,1000,2,1,3,1,5,2,0,4,0,250.0,test,2,M
688.363075256,3,1000,1,0,3,1,5,2,0,4,0,250.0,test,4,M
528.398036957,5,1000,3,1,3,1,5,2,0,4,0,250.0,test,5,M
544.447183609,5,1000,3,1,3,1,5,2,0,4,0,250.0,test,5,M
640.464067459,3,1000,1,1,3,1,5,2,0,4,0,250.0,test,3,M
576.467990875,5,1000,3,1,3,1,5,2,0,4,0,250.0,test,5,M
560.453891754,3,1000,1,1,3,1,5,2,0,4,0,250.0,test,3,M
688.414096832,4,1000,4,1,3,1,5,2,0,4,0,250.0,test,4,M
656.335115433,2,1000,2,1,3,1,5,2,0,4,0,250.0,test,2,M
736.357927322,1,1000,0,1,3,1,5,2,0,4,0,250.0,test,1,M
672.3549366,3,1000,1,1,3,1,5,2,0,4,0,250.0,test,3,M
607.956886292,5,1000,3,1,3,1,5,2,0,4,0,250.0,test,5,M
624.410152435,3,1000,1,1,3,1,5,2,0,4,0,250.0,test,3,M
640.455961227,1,1000,0,1,3,1,5,2,0,4,0,250.0,test,1,M
688.43793869,0,1000,5,1,3,1,5,2,0,4,0,250.0,test,0,M
592.419147491,2,1000,2,1,3,1,5,2,0,4,0,250.0,test,2,M
704.41699028,1,1000,0,1,3,1,5,2,0,4,0,250.0,test,1,M
672.30796814,3,1000,1,1,3,1,5,2,0,4,0,250.0,test,3,M
624.342918396,2,1000,2,1,3,1,5,2,0,4,0,250.0,test,2,M
736.320972443,4,1000,4,1,3,1,5,2,0,4,0,250.0,test,4,M
736.371040344,3,1000,1,1,3,1,5,2,0,4,0,250.0,test,3,M
608.601093292,0,1000,5,1,3,1,5,2,0,4,0,250.0,test,0,M
640.493154526,4,1000,4,1,3,1,5,2,0,4,0,250.0,test,4,M
608.397006989,1,1000,0,1,3,1,5,2,0,4,0,250.0,test,1,M
576.485157013,3,1000,1,1,3,1,5,2,0,4,0,250.0,test,3,M
592.435121536,3,1000,1,1,3,1,5,2,0,4,0,250.0,test,3,M
704.06293869,4,1000,4,1,3,1,5,2,0,4,0,250.0,test,4,M
624.454975128,4,1000,4,1,3,1,5,2,0,4,0,250.0,test,4,M
624.363899231,5,1000,3,1,3,1,5,2,0,4,0,250.0,test,5,M
688.421010971,3,1000,1,1,3,1,5,2,0,4,0,250.0,test,3,M
576.357126236,4,1000,4,1,3,1,5,2,0,4,0,250.0,test,4,M
672.434091568,1,1000,0,1,3,1,5,2,0,4,0,250.0,test,1,M
528.417825699,5,1000,3,1,3,1,5,2,0,4,0,250.0,test,5,M
544.343948364,2,1000,2,1,3,1,5,2,0,4,0,250.0,test,2,M
592.301130295,5,1000,3,1,3,1,5,2,0,4,0,250.0,test,5,M
640.477895737,0,1000,5,1,3,1,5,2,0,4,0,250.0,test,0,M
608.48402977,5,1000,3,1,3,1,5,2,0,4,0,250.0,test,5,M
496.43611908,2,1000,2,1,3,1,5,2,0,4,0,250.0,test,2,M
672.372817993,4,1000,4,1,3,1,5,2,0,4,0,250.0,test,4,M
432.386875153,2,1000,2,1,3,1,5,2,0,4,0,250.0,test,2,M
448.333978653,4,1000,4,1,3,1,5,2,0,4,0,250.0,test,4,M
448.02904129,4,1000,4,0,3,1,5,2,0,4,0,250.0,test,2,M
783.885002136,1,1000,0,1,3,1,5,2,0,4,0,250.0,test,1,M
559.957027435,2,1000,2,1,3,1,5,2,0,4,0,250.0,test,2,M
816.767930984,1,1000,0,1,3,1,5,2,0,4,0,250.0,test,1,M
592.1189785,1,1000,0,1,3,1,5,2,0,4,0,250.0,test,1,M
848.505973816,3,1000,1,1,3,1,5,2,0,4,0,250.0,test,3,M
656.457901001,5,1000,3,1,3,1,5,2,0,4,0,250.0,test,5,M
592.41604805,2,1000,2,1,3,1,5,2,0,4,0,250.0,test,2,M
624.392032623,0,1000,5,1,3,1,5,2,0,4,0,250.0,test,0,M
576.328039169,2,1000,2,1,3,1,5,2,0,4,0,250.0,test,2,M
592.320919037,2,1000,2,1,3,1,5,2,0,4,0,250.0,test,2,M
752.353906631,4,1000,4,1,3,1,5,2,0,4,0,250.0,test,4,M
800.343036652,3,1000,1,1,3,1,5,2,0,4,0,250.0,test,3,M
607.856988907,4,1000,4,1,3,1,5,2,0,4,0,250.0,test,4,M
656.30698204,3,1000,1,1,3,1,5,2,0,4,0,250.0,test,3,M
544.263839722,2,1000,2,1,3,1,5,2,0,4,0,250.0,test,2,M
576.406955719,2,1000,2,1,3,1,5,2,0,4,0,250.0,test,2,M
544.320106506,2,1000,2,1,3,1,5,2,0,4,0,250.0,test,2,M
672.317028046,0,1000,5,1,3,1,5,2,0,4,0,250.0,test,0,M
544.396877289,1,1000,0,1,3,1,5,2,0,4,0,250.0,test,1,M
672.381877899,3,1000,1,1,3,1,5,2,0,4,0,250.0,test,3,M
464.275836945,2,1000,2,1,3,1,5,2,0,4,0,250.0,test,2,M
607.912063599,4,1000,4,1,3,1,5,2,0,4,0,250.0,test,4,M
575.975894928,5,1000,3,1,3,1,5,2,0,4,0,250.0,test,5,M
864.697933197,1,1000,0,1,3,1,5,2,0,4,0,250.0,test,1,M
672.711133957,4,1000,4,1,3,1,5,2,0,4,0,250.0,test,4,M
656.759023666,5,1000,3,1,3,1,5,2,0,4,0,250.0,test,5,M
848.448038101,4,1000,4,1,3,1,5,2,0,4,0,250.0,test,4,M
656.361103058,0,1000,5,1,3,1,5,2,0,4,0,250.0,test,0,M
560.430049896,4,1000,4,1,3,1,5,2,0,4,0,250.0,test,4,M
624.418973923,0,1000,5,1,3,1,5,2,0,4,0,250.0,test,0,M
560.298919678,5,1000,3,1,3,1,5,2,0,4,0,250.0,test,5,M
512.274980545,5,1000,3,1,3,1,5,2,0,4,0,250.0,test,5,M
640.463113785,1,1000,0,1,3,1,5,2,0,4,0,250.0,test,1,M
720.429182053,3,1000,1,1,3,1,5,2,0,4,0,250.0,test,3,M
736.419200897,2,1000,2,1,3,1,5,2,0,4,0,250.0,test,2,M
752.460002899,1,1000,0,1,3,1,5,2,0,4,0,250.0,test,1,M
640.341997147,0,1000,5,1,3,1,5,2,0,4,0,250.0,test,0,M
624.452114105,0,1000,5,1,3,1,5,2,0,4,0,250.0,test,0,M
591.779947281,4,1000,4,1,3,1,5,2,0,4,0,250.0,test,4,M
704.494953156,1,1000,0,1,3,1,5,2,0,4,0,250.0,test,1,M
624.459981918,0,1000,5,1,3,1,5,2,0,4,0,250.0,test,0,M
688.371896744,1,1000,0,1,3,1,5,2,0,4,0,250.0,test,1,M
560.475111008,5,1000,3,1,3,1,5,2,0,4,0,250.0,test,5,M
560.339927673,4,1000,4,1,3,1,5,2,0,4,0,250.0,test,4,M
736.499071121,1,1000,0,1,3,1,5,2,0,4,0,250.0,test,1,M
672.363996506,0,1000,5,1,3,1,5,2,0,4,0,250.0,test,0,M
672.332048416,3,1000,1,1,3,1,5,2,0,4,0,250.0,test,3,M
703.934192657,0,1000,5,1,3,1,5,2,0,4,0,250.0,test,0,M
656.42619133,0,1000,5,1,3,1,5,2,0,4,0,250.0,test,0,M
512.309074402,0,1000,5,1,3,1,5,2,0,4,0,250.0,test,0,M
720.431089401,3,1000,1,1,3,1,5,2,0,4,0,250.0,test,3,M
640.424013138,0,1000,5,1,3,1,5,2,0,4,0,250.0,test,0,M
800.393104553,1,1000,0,1,3,1,5,2,0,4,0,250.0,test,1,M
880.348920822,0,1000,5,1,3,1,5,2,0,4,0,250.0,test,0,M
704.296112061,3,1000,1,1,3,1,5,2,0,4,0,250.0,test,3,M
640.435934067,2,1000,2,1,3,1,5,2,0,4,0,250.0,test,2,M
687.697887421,1,1000,0,1,3,1,5,2,0,4,0,250.0,test,1,M
608.382940292,2,1000,2,1,3,1,5,2,0,4,0,250.0,test,2,M
576.909065247,3,1000,1,1,3,1,5,2,0,4,0,250.0,test,3,M
640.120029449,4,1000,4,1,3,1,5,2,0,4,0,250.0,test,4,M
624.403953552,3,1000,1,1,3,1,5,2,0,4,0,250.0,test,3,M
576.472043991,3,1000,1,1,3,1,5,2,0,4,0,250.0,test,3,M
624.418020248,4,1000,4,1,3,1,5,2,0,4,0,250.0,test,4,M
576.388120651,0,1000,5,1,3,1,5,2,0,4,0,250.0,test,0,M
656.434059143,3,1000,1,1,3,1,5,2,0,4,0,250.0,test,3,M
