RT,correct_response,ms-prestimblank,curstim,correct,SRmap_1,SRmap_0,SRmap_3,SRmap_2,SRmap_5,SRmap_4,ms-precue,ntrials,type,response,condition
2032.23896027,3,1000,4,0,4,5,2,1,0,3,0,250.0,train,4,M
623.934984207,3,1000,4,1,4,5,2,1,0,3,0,250.0,train,3,M
640.179157257,5,1000,0,1,4,5,2,1,0,3,0,250.0,train,5,M
496.193885803,3,1000,4,1,4,5,2,1,0,3,0,250.0,train,3,M
560.13584137,2,1000,3,0,4,5,2,1,0,3,0,250.0,train,1,M
480.148077011,5,1000,0,0,4,5,2,1,0,3,0,250.0,train,3,M
512.15004921,3,1000,4,1,4,5,2,1,0,3,0,250.0,train,3,M
496.171951294,2,1000,3,1,4,5,2,1,0,3,0,250.0,train,2,M
686.65599823,4,1000,1,1,4,5,2,1,0,3,0,250.0,train,4,M
688.146114349,1,1000,2,1,4,5,2,1,0,3,0,250.0,train,1,M
815.513134003,4,1000,1,1,4,5,2,1,0,3,0,250.0,train,4,M
624.083995819,1,1000,2,1,4,5,2,1,0,3,0,250.0,train,1,M
592.141866684,3,1000,4,1,4,5,2,1,0,3,0,250.0,train,3,M
432.179927826,5,1000,0,1,4,5,2,1,0,3,0,250.0,train,5,M
447.852134705,3,1000,4,0,4,5,2,1,0,3,0,250.0,train,4,M
863.883018494,1,1000,2,1,4,5,2,1,0,3,0,250.0,train,1,M
463.676929474,0,1000,5,1,4,5,2,1,0,3,0,250.0,train,0,M
608.289957047,2,1000,3,1,4,5,2,1,0,3,0,250.0,train,2,M
512.122154236,0,1000,5,1,4,5,2,1,0,3,0,250.0,train,0,M
496.255159378,5,1000,0,1,4,5,2,1,0,3,0,250.0,train,5,M
608.438014984,2,1000,3,1,4,5,2,1,0,3,0,250.0,train,2,M
416.507005692,0,1000,5,1,4,5,2,1,0,3,0,250.0,train,0,M
480.233192444,5,1000,0,1,4,5,2,1,0,3,0,250.0,train,5,M
480.345010757,1,1000,2,1,4,5,2,1,0,3,0,250.0,train,1,M
528.060913086,2,1000,3,0,4,5,2,1,0,3,0,250.0,train,1,M
528.156042099,5,1000,0,1,4,5,2,1,0,3,0,250.0,train,5,M
560.088157654,4,1000,1,1,4,5,2,1,0,3,0,250.0,train,4,M
512.121915817,1,1000,2,1,4,5,2,1,0,3,0,250.0,train,1,M
832.472085953,2,1000,3,1,4,5,2,1,0,3,0,250.0,train,2,M
528.216123581,1,1000,2,1,4,5,2,1,0,3,0,250.0,train,1,M
496.302127838,1,1000,2,1,4,5,2,1,0,3,0,250.0,train,1,M
656.092882156,3,1000,4,1,4,5,2,1,0,3,0,250.0,train,3,M
544.185876846,0,1000,5,1,4,5,2,1,0,3,0,250.0,train,0,M
463.997125626,5,1000,0,1,4,5,2,1,0,3,0,250.0,train,5,M
495.743989944,5,1000,0,1,4,5,2,1,0,3,0,250.0,train,5,M
464.186906815,0,1000,5,1,4,5,2,1,0,3,0,250.0,train,0,M
432.853937149,2,1000,3,1,4,5,2,1,0,3,0,250.0,train,2,M
543.864965439,5,1000,0,1,4,5,2,1,0,3,0,250.0,train,5,M
367.992162704,5,1000,0,1,4,5,2,1,0,3,0,250.0,train,5,M
432.280063629,0,1000,5,1,4,5,2,1,0,3,0,250.0,train,0,M
768.138170242,4,1000,1,0,4,5,2,1,0,3,0,250.0,train,2,M
544.126987457,1,1000,2,1,4,5,2,1,0,3,0,250.0,train,1,M
496.293067932,5,1000,0,1,4,5,2,1,0,3,0,250.0,train,5,M
448.309898376,0,1000,5,1,4,5,2,1,0,3,0,250.0,train,0,M
448.204040527,0,1000,5,1,4,5,2,1,0,3,0,250.0,train,0,M
448.273897171,1,1000,2,1,4,5,2,1,0,3,0,250.0,train,1,M
479.9721241,3,1000,4,0,4,5,2,1,0,3,0,250.0,train,2,M
463.90414238,0,1000,5,1,4,5,2,1,0,3,0,250.0,train,0,M
496.293067932,5,1000,0,1,4,5,2,1,0,3,0,250.0,train,5,M
479.964971542,0,1000,5,1,4,5,2,1,0,3,0,250.0,train,0,M
480.180025101,0,1000,5,1,4,5,2,1,0,3,0,250.0,train,0,M
576.128959656,3,1000,4,1,4,5,2,1,0,3,0,250.0,train,3,M
480.154037476,0,1000,5,1,4,5,2,1,0,3,0,250.0,train,0,M
416.059970856,1,1000,2,1,4,5,2,1,0,3,0,250.0,train,1,M
400.037050247,1,1000,2,1,4,5,2,1,0,3,0,250.0,train,1,M
496.073007584,1,1000,2,1,4,5,2,1,0,3,0,250.0,train,1,M
544.260025024,3,1000,4,1,4,5,2,1,0,3,0,250.0,train,3,M
368.175983429,3,1000,4,1,4,5,2,1,0,3,0,250.0,train,3,M
543.677806854,2,1000,3,0,4,5,2,1,0,3,0,250.0,train,1,M
608.172893524,1,1000,2,1,4,5,2,1,0,3,0,250.0,train,1,M
528.223991394,3,1000,4,1,4,5,2,1,0,3,0,250.0,train,3,M
560.302972794,5,1000,0,1,4,5,2,1,0,3,0,250.0,train,5,M
576.354980469,2,1000,3,1,4,5,2,1,0,3,0,250.0,train,2,M
463.767051697,1,1000,2,1,4,5,2,1,0,3,0,250.0,train,1,M
607.752084732,4,1000,1,0,4,5,2,1,0,3,0,250.0,train,5,M
496.083974838,1,1000,2,1,4,5,2,1,0,3,0,250.0,train,1,M
464.105129242,1,1000,2,1,4,5,2,1,0,3,0,250.0,train,1,M
527.57191658,2,1000,3,1,4,5,2,1,0,3,0,250.0,train,2,M
560.135126114,3,1000,4,1,4,5,2,1,0,3,0,250.0,train,3,M
464.3471241,5,1000,0,1,4,5,2,1,0,3,0,250.0,train,5,M
543.754816055,2,1000,3,1,4,5,2,1,0,3,0,250.0,train,2,M
560.356140137,4,1000,1,1,4,5,2,1,0,3,0,250.0,train,4,M
512.375831604,1,1000,2,1,4,5,2,1,0,3,0,250.0,train,1,M
528.301000595,5,1000,0,1,4,5,2,1,0,3,0,250.0,train,5,M
592.019796371,0,1000,5,1,4,5,2,1,0,3,0,250.0,train,0,M
575.669050217,4,1000,1,1,4,5,2,1,0,3,0,250.0,train,4,M
480.319976807,0,1000,5,1,4,5,2,1,0,3,0,250.0,train,0,M
432.214021683,0,1000,5,1,4,5,2,1,0,3,0,250.0,train,0,M
560.092926025,4,1000,1,1,4,5,2,1,0,3,0,250.0,train,4,M
512.137174606,5,1000,0,1,4,5,2,1,0,3,0,250.0,train,5,M
416.177988052,5,1000,0,1,4,5,2,1,0,3,0,250.0,train,5,M
480.298995972,0,1000,5,1,4,5,2,1,0,3,0,250.0,train,0,M
384.319782257,1,1000,2,1,4,5,2,1,0,3,0,250.0,train,1,M
560.217142105,4,1000,1,0,4,5,2,1,0,3,0,250.0,train,5,M
512.173175812,3,1000,4,1,4,5,2,1,0,3,0,250.0,train,3,M
544.277191162,3,1000,4,1,4,5,2,1,0,3,0,250.0,train,3,M
496.292829514,1,1000,2,1,4,5,2,1,0,3,0,250.0,train,1,M
640.1720047,3,1000,4,1,4,5,2,1,0,3,0,250.0,train,3,M
592.311859131,4,1000,1,1,4,5,2,1,0,3,0,250.0,train,4,M
592.19789505,4,1000,1,1,4,5,2,1,0,3,0,250.0,train,4,M
688.372135162,3,1000,4,1,4,5,2,1,0,3,0,250.0,train,3,M
544.167041779,5,1000,0,1,4,5,2,1,0,3,0,250.0,train,5,M
656.253099442,1,1000,2,1,4,5,2,1,0,3,0,250.0,train,1,M
543.189048767,2,1000,3,1,4,5,2,1,0,3,0,250.0,train,2,M
511.606216431,1,1000,2,1,4,5,2,1,0,3,0,250.0,train,1,M
528.13911438,4,1000,1,0,4,5,2,1,0,3,0,250.0,train,3,M
512.892007828,5,1000,0,1,4,5,2,1,0,3,0,250.0,train,5,M
528.208971024,5,1000,0,1,4,5,2,1,0,3,0,250.0,train,5,M
576.268911362,0,1000,5,1,4,5,2,1,0,3,0,250.0,train,0,M
543.642044067,2,1000,3,1,4,5,2,1,0,3,0,250.0,train,2,M
528.151988983,0,1000,5,1,4,5,2,1,0,3,0,250.0,train,0,M
544.29101944,2,1000,3,1,4,5,2,1,0,3,0,250.0,train,2,M
496.156930923,0,1000,5,1,4,5,2,1,0,3,0,250.0,train,0,M
527.993917465,5,1000,0,1,4,5,2,1,0,3,0,250.0,train,5,M
560.362100601,4,1000,1,1,4,5,2,1,0,3,0,250.0,train,4,M
576.447963715,3,1000,4,0,4,5,2,1,0,3,0,250.0,train,2,M
559.558153152,4,1000,1,1,4,5,2,1,0,3,0,250.0,train,4,M
591.887950897,2,1000,3,1,4,5,2,1,0,3,0,250.0,train,2,M
560.277223587,2,1000,3,1,4,5,2,1,0,3,0,250.0,train,2,M
592.327833176,1,1000,2,1,4,5,2,1,0,3,0,250.0,train,1,M
496.134996414,1,1000,2,1,4,5,2,1,0,3,0,250.0,train,1,M
527.609109879,2,1000,3,1,4,5,2,1,0,3,0,250.0,train,2,M
543.741941452,3,1000,4,1,4,5,2,1,0,3,0,250.0,train,3,M
448.431968689,1,1000,2,1,4,5,2,1,0,3,0,250.0,train,1,M
479.624986649,1,1000,2,1,4,5,2,1,0,3,0,250.0,train,1,M
512.377023697,5,1000,0,1,4,5,2,1,0,3,0,250.0,train,5,M
496.40417099,2,1000,3,1,4,5,2,1,0,3,0,250.0,train,2,M
447.510957718,2,1000,3,1,4,5,2,1,0,3,0,250.0,train,2,M
479.928970337,0,1000,5,1,4,5,2,1,0,3,0,250.0,train,0,M
528.195142746,1,1000,2,1,4,5,2,1,0,3,0,250.0,train,1,M
512.2590065,2,1000,3,1,4,5,2,1,0,3,0,250.0,train,2,M
464.225053787,5,1000,0,1,4,5,2,1,0,3,0,250.0,train,5,M
399.916172028,4,1000,1,1,4,5,2,1,0,3,0,250.0,train,4,M
416.208028793,0,1000,5,1,4,5,2,1,0,3,0,250.0,train,0,M
592.149019241,4,1000,1,1,4,5,2,1,0,3,0,250.0,train,4,M
496.186971664,5,1000,0,1,4,5,2,1,0,3,0,250.0,train,5,M
544.325113297,3,1000,4,0,4,5,2,1,0,3,0,250.0,train,2,M
512.063026428,1,1000,2,1,4,5,2,1,0,3,0,250.0,train,1,M
496.261119843,5,1000,0,1,4,5,2,1,0,3,0,250.0,train,5,M
719.841957092,3,1000,4,1,4,5,2,1,0,3,0,250.0,train,3,M
576.165914536,4,1000,1,1,4,5,2,1,0,3,0,250.0,train,4,M
495.500087738,0,1000,5,1,4,5,2,1,0,3,0,250.0,train,0,M
560.220956802,3,1000,4,1,4,5,2,1,0,3,0,250.0,train,3,M
464.303016663,3,1000,4,1,4,5,2,1,0,3,0,250.0,train,3,M
463.647127151,3,1000,4,1,4,5,2,1,0,3,0,250.0,train,3,M
496.153116226,4,1000,1,1,4,5,2,1,0,3,0,250.0,train,4,M
496.254920959,0,1000,5,1,4,5,2,1,0,3,0,250.0,train,0,M
384.292840958,4,1000,1,1,4,5,2,1,0,3,0,250.0,train,4,M
464.005947113,0,1000,5,1,4,5,2,1,0,3,0,250.0,train,0,M
672.298908234,0,1000,5,1,4,5,2,1,0,3,0,250.0,train,0,M
496.251821518,1,1000,2,1,4,5,2,1,0,3,0,250.0,train,1,M
416.31102562,0,1000,5,1,4,5,2,1,0,3,0,250.0,train,0,M
480.212926865,5,1000,0,1,4,5,2,1,0,3,0,250.0,train,5,M
320.042848587,4,1000,1,1,4,5,2,1,0,3,0,250.0,train,4,M
463.925123215,0,1000,5,1,4,5,2,1,0,3,0,250.0,train,0,M
496.17600441,3,1000,4,1,4,5,2,1,0,3,0,250.0,train,3,M
463.991880417,1,1000,2,1,4,5,2,1,0,3,0,250.0,train,1,M
464.178085327,3,1000,4,1,4,5,2,1,0,3,0,250.0,train,3,M
368.361949921,4,1000,1,1,4,5,2,1,0,3,0,250.0,train,4,M
432.000875473,1,1000,2,1,4,5,2,1,0,3,0,250.0,train,1,M
416.200876236,0,1000,5,1,4,5,2,1,0,3,0,250.0,train,0,M
512.231826782,1,1000,2,1,4,5,2,1,0,3,0,250.0,train,1,M
416.918039322,5,1000,0,1,4,5,2,1,0,3,0,250.0,train,5,M
480.406999588,5,1000,0,0,4,5,2,1,0,3,0,250.0,train,4,M
447.443008423,5,1000,0,1,4,5,2,1,0,3,0,250.0,train,5,M
464.194059372,0,1000,5,1,4,5,2,1,0,3,0,250.0,train,0,M
416.309118271,1,1000,2,1,4,5,2,1,0,3,0,250.0,train,1,M
480.813980103,5,1000,0,1,4,5,2,1,0,3,0,250.0,train,5,M
480.851888657,1,1000,2,1,4,5,2,1,0,3,0,250.0,train,1,M
528.752088547,3,1000,4,1,4,5,2,1,0,3,0,250.0,train,3,M
367.601156235,1,1000,2,1,4,5,2,1,0,3,0,250.0,train,1,M
655.679941177,2,1000,3,0,4,5,2,1,0,3,0,250.0,train,3,M
480.218887329,0,1000,5,1,4,5,2,1,0,3,0,250.0,train,0,M
512.183189392,1,1000,2,1,4,5,2,1,0,3,0,250.0,train,1,M
496.185064316,1,1000,2,0,4,5,2,1,0,3,0,250.0,train,0,M
512.163877487,5,1000,0,1,4,5,2,1,0,3,0,250.0,train,5,M
432.469844818,4,1000,1,1,4,5,2,1,0,3,0,250.0,train,4,M
446.936845779,1,1000,2,1,4,5,2,1,0,3,0,250.0,train,1,M
608.246803284,4,1000,1,1,4,5,2,1,0,3,0,250.0,train,4,M
512.046813965,1,1000,2,1,4,5,2,1,0,3,0,250.0,train,1,M
816.105127335,2,1000,3,1,4,5,2,1,0,3,0,250.0,train,2,M
704.159021378,3,1000,4,1,4,5,2,1,0,3,0,250.0,train,3,M
784.27195549,0,1000,5,1,4,5,2,1,0,3,0,250.0,train,0,M
417.073011398,0,1000,5,1,4,5,2,1,0,3,0,250.0,train,0,M
512.262105942,2,1000,3,1,4,5,2,1,0,3,0,250.0,train,2,M
463.615179062,0,1000,5,1,4,5,2,1,0,3,0,250.0,train,0,M
511.914014816,5,1000,0,1,4,5,2,1,0,3,0,250.0,train,5,M
496.268033981,1,1000,2,1,4,5,2,1,0,3,0,250.0,train,1,M
464.354991913,0,1000,5,1,4,5,2,1,0,3,0,250.0,train,0,M
656.301021576,4,1000,1,1,4,5,2,1,0,3,0,250.0,train,4,M
415.627002716,5,1000,0,1,4,5,2,1,0,3,0,250.0,train,5,M
528.285980225,5,1000,0,1,4,5,2,1,0,3,0,250.0,train,5,M
431.736946106,5,1000,0,1,4,5,2,1,0,3,0,250.0,train,5,M
496.204853058,0,1000,5,1,4,5,2,1,0,3,0,250.0,train,0,M
688.3020401,3,1000,4,1,4,5,2,1,0,3,0,250.0,train,3,M
544.299840927,5,1000,0,1,4,5,2,1,0,3,0,250.0,train,5,M
575.77419281,4,1000,1,1,4,5,2,1,0,3,0,250.0,train,4,M
496.262073517,1,1000,2,1,4,5,2,1,0,3,0,250.0,train,1,M
432.088851929,1,1000,2,1,4,5,2,1,0,3,0,250.0,train,1,M
480.075836182,0,1000,5,1,4,5,2,1,0,3,0,250.0,train,0,M
559.594869614,3,1000,4,1,4,5,2,1,0,3,0,250.0,train,3,M
640.780210495,2,1000,3,1,4,5,2,1,0,3,0,250.0,train,2,M
447.75891304,2,1000,3,1,4,5,2,1,0,3,0,250.0,train,2,M
560.221910477,1,1000,2,1,4,5,2,1,0,3,0,250.0,train,1,M
623.986005783,4,1000,1,1,4,5,2,1,0,3,0,250.0,train,4,M
432.298898697,0,1000,5,0,4,5,2,1,0,3,0,250.0,train,2,M
544.184923172,5,1000,0,1,4,5,2,1,0,3,0,250.0,train,5,M
592.14091301,2,1000,3,1,4,5,2,1,0,3,0,250.0,train,2,M
464.27488327,5,1000,0,1,4,5,2,1,0,3,0,250.0,train,5,M
496.918916702,4,1000,1,1,4,5,2,1,0,3,0,250.0,train,4,M
464.035987854,5,1000,0,1,4,5,2,1,0,3,0,250.0,train,5,M
624.33719635,3,1000,4,0,4,5,2,1,0,3,0,250.0,train,2,M
448.292970657,4,1000,1,1,4,5,2,1,0,3,0,250.0,train,4,M
512.269020081,0,1000,5,1,4,5,2,1,0,3,0,250.0,train,0,M
416.002035141,0,1000,5,1,4,5,2,1,0,3,0,250.0,train,0,M
591.516971588,4,1000,1,1,4,5,2,1,0,3,0,250.0,train,4,M
464.304208755,4,1000,1,1,4,5,2,1,0,3,0,250.0,train,4,M
592.132091522,2,1000,3,1,4,5,2,1,0,3,0,250.0,train,2,M
512.873888016,2,1000,3,1,4,5,2,1,0,3,0,250.0,train,2,M
496.693134308,1,1000,2,1,4,5,2,1,0,3,0,250.0,train,1,M
367.540836334,1,1000,2,1,4,5,2,1,0,3,0,250.0,train,1,M
432.348966599,2,1000,3,0,4,5,2,1,0,3,0,250.0,train,1,M
479.651927948,1,1000,2,1,4,5,2,1,0,3,0,250.0,train,1,M
688.232898712,0,1000,5,1,4,5,2,1,0,3,0,250.0,train,0,M
480.163097382,0,1000,5,1,4,5,2,1,0,3,0,250.0,train,0,M
448.190927505,2,1000,3,1,4,5,2,1,0,3,0,250.0,train,2,M
528.228998184,3,1000,4,1,4,5,2,1,0,3,0,250.0,train,3,M
640.280008316,4,1000,1,1,4,5,2,1,0,3,0,250.0,train,4,M
735.921859741,3,1000,4,1,4,5,2,1,0,3,0,250.0,train,3,M
479.624986649,3,1000,4,1,4,5,2,1,0,3,0,250.0,train,3,M
496.10710144,1,1000,2,1,4,5,2,1,0,3,0,250.0,train,1,M
384.262084961,1,1000,2,1,4,5,2,1,0,3,0,250.0,train,1,M
464.179992676,1,1000,2,1,4,5,2,1,0,3,0,250.0,train,1,M
495.587825775,3,1000,4,1,4,5,2,1,0,3,0,250.0,train,3,M
496.304035187,4,1000,1,1,4,5,2,1,0,3,0,250.0,train,4,M
496.279001236,1,1000,2,1,4,5,2,1,0,3,0,250.0,train,1,M
512.83621788,5,1000,0,1,4,5,2,1,0,3,0,250.0,train,5,M
464.169979095,1,1000,2,1,4,5,2,1,0,3,0,250.0,train,1,M
527.914047241,5,1000,0,1,4,5,2,1,0,3,0,250.0,train,5,M
432.157039642,0,1000,5,1,4,5,2,1,0,3,0,250.0,train,0,M
447.910070419,1,1000,2,1,4,5,2,1,0,3,0,250.0,train,1,M
448.246002197,0,1000,5,1,4,5,2,1,0,3,0,250.0,train,0,M
511.355876923,4,1000,1,1,4,5,2,1,0,3,0,250.0,train,4,M
624.290943146,2,1000,3,1,4,5,2,1,0,3,0,250.0,train,2,M
479.914903641,0,1000,5,1,4,5,2,1,0,3,0,250.0,train,0,M
560.787916183,0,1000,5,1,4,5,2,1,0,3,0,250.0,train,0,M
640.352964401,4,1000,1,1,4,5,2,1,0,3,0,250.0,train,4,M
624.451875687,2,1000,3,1,4,5,2,1,0,3,0,250.0,train,2,M
528.42092514,0,1000,5,1,4,5,2,1,0,3,0,250.0,train,0,M
576.471090317,5,1000,0,1,4,5,2,1,0,3,0,250.0,train,5,M
512.181997299,1,1000,2,1,4,5,2,1,0,3,0,250.0,train,1,M
480.400085449,2,1000,3,1,4,5,2,1,0,3,0,250.0,train,2,M
464.169025421,5,1000,0,1,4,5,2,1,0,3,0,250.0,train,5,M
464.475870132,5,1000,0,1,4,5,2,1,0,3,0,250.0,train,5,M
512.350082397,2,1000,3,0,4,5,2,1,0,3,0,250.0,train,1,M
512.31098175,5,1000,0,1,4,5,2,1,0,3,0,250.0,train,5,M
496.410131454,2,1000,3,1,4,5,2,1,0,3,0,250.0,train,2,M
560.373067856,5,1000,0,1,4,5,2,1,0,3,0,250.0,train,5,M
448.20189476,5,1000,0,1,4,5,2,1,0,3,0,250.0,train,5,M
752.257108688,3,1000,4,1,4,5,2,1,0,3,0,250.0,train,3,M
6687.94584274,1,1000,2,0,4,5,2,1,0,3,0,250.0,test,3,M
1584.28406715,2,1000,3,1,4,5,2,1,0,3,0,250.0,test,2,M
1168.22099686,4,1000,1,1,4,5,2,1,0,3,0,250.0,test,4,M
992.285966873,1,1000,2,0,4,5,2,1,0,3,0,250.0,test,2,M
656.239032745,1,1000,2,1,4,5,2,1,0,3,0,250.0,test,1,M
704.426050186,4,1000,1,0,4,5,2,1,0,3,0,250.0,test,5,M
896.361112595,2,1000,3,1,4,5,2,1,0,3,0,250.0,test,2,M
896.111965179,2,1000,3,1,4,5,2,1,0,3,0,250.0,test,2,M
688.086986542,1,1000,2,1,4,5,2,1,0,3,0,250.0,test,1,M
720.43299675,1,1000,2,1,4,5,2,1,0,3,0,250.0,test,1,M
848.482131958,4,1000,1,1,4,5,2,1,0,3,0,250.0,test,4,M
688.292980194,2,1000,3,1,4,5,2,1,0,3,0,250.0,test,2,M
544.480085373,1,1000,2,1,4,5,2,1,0,3,0,250.0,test,1,M
528.29003334,1,1000,2,1,4,5,2,1,0,3,0,250.0,test,1,M
720.322847366,3,1000,4,1,4,5,2,1,0,3,0,250.0,test,3,M
416.421890259,3,1000,4,1,4,5,2,1,0,3,0,250.0,test,3,M
576.288938522,1,1000,2,1,4,5,2,1,0,3,0,250.0,test,1,M
576.402902603,2,1000,3,1,4,5,2,1,0,3,0,250.0,test,2,M
576.38001442,5,1000,0,1,4,5,2,1,0,3,0,250.0,test,5,M
736.353158951,4,1000,1,1,4,5,2,1,0,3,0,250.0,test,4,M
480.333089828,0,1000,5,1,4,5,2,1,0,3,0,250.0,test,0,M
544.42191124,2,1000,3,1,4,5,2,1,0,3,0,250.0,test,2,M
576.027154922,0,1000,5,1,4,5,2,1,0,3,0,250.0,test,0,M
688.370943069,2,1000,3,1,4,5,2,1,0,3,0,250.0,test,2,M
480.452060699,2,1000,3,1,4,5,2,1,0,3,0,250.0,test,2,M
688.369989395,4,1000,1,1,4,5,2,1,0,3,0,250.0,test,4,M
544.358968735,4,1000,1,1,4,5,2,1,0,3,0,250.0,test,4,M
608.446836472,2,1000,3,1,4,5,2,1,0,3,0,250.0,test,2,M
576.390028,4,1000,1,1,4,5,2,1,0,3,0,250.0,test,4,M
608.445882797,1,1000,2,1,4,5,2,1,0,3,0,250.0,test,1,M
688.219070435,2,1000,3,1,4,5,2,1,0,3,0,250.0,test,2,M
560.456991196,5,1000,0,1,4,5,2,1,0,3,0,250.0,test,5,M
720.427036285,4,1000,1,1,4,5,2,1,0,3,0,250.0,test,4,M
592.444896698,3,1000,4,1,4,5,2,1,0,3,0,250.0,test,3,M
400.39396286,3,1000,4,1,4,5,2,1,0,3,0,250.0,test,3,M
608.47401619,0,1000,5,1,4,5,2,1,0,3,0,250.0,test,0,M
528.496026993,1,1000,2,1,4,5,2,1,0,3,0,250.0,test,1,M
544.367074966,4,1000,1,1,4,5,2,1,0,3,0,250.0,test,4,M
592.993974686,3,1000,4,1,4,5,2,1,0,3,0,250.0,test,3,M
560.063838959,3,1000,4,1,4,5,2,1,0,3,0,250.0,test,3,M
512.370824814,3,1000,4,1,4,5,2,1,0,3,0,250.0,test,3,M
512.506961823,4,1000,1,1,4,5,2,1,0,3,0,250.0,test,4,M
528.279781342,0,1000,5,1,4,5,2,1,0,3,0,250.0,test,0,M
448.437929153,3,1000,4,1,4,5,2,1,0,3,0,250.0,test,3,M
544.414997101,3,1000,4,1,4,5,2,1,0,3,0,250.0,test,3,M
640.783071518,2,1000,3,1,4,5,2,1,0,3,0,250.0,test,2,M
576.303958893,0,1000,5,1,4,5,2,1,0,3,0,250.0,test,0,M
624.454975128,5,1000,0,1,4,5,2,1,0,3,0,250.0,test,5,M
592.318058014,0,1000,5,1,4,5,2,1,0,3,0,250.0,test,0,M
592.319965363,1,1000,2,1,4,5,2,1,0,3,0,250.0,test,1,M
528.073072433,1,1000,2,1,4,5,2,1,0,3,0,250.0,test,1,M
544.407129288,4,1000,1,1,4,5,2,1,0,3,0,250.0,test,4,M
560.40096283,5,1000,0,1,4,5,2,1,0,3,0,250.0,test,5,M
496.410131454,0,1000,5,1,4,5,2,1,0,3,0,250.0,test,0,M
496.432065964,1,1000,2,1,4,5,2,1,0,3,0,250.0,test,1,M
464.644908905,2,1000,3,1,4,5,2,1,0,3,0,250.0,test,2,M
704.159975052,3,1000,4,1,4,5,2,1,0,3,0,250.0,test,3,M
432.751893997,3,1000,4,1,4,5,2,1,0,3,0,250.0,test,3,M
544.770002365,0,1000,5,1,4,5,2,1,0,3,0,250.0,test,0,M
464.737892151,1,1000,2,0,4,5,2,1,0,3,0,250.0,test,0,M
512.78090477,4,1000,1,1,4,5,2,1,0,3,0,250.0,test,4,M
576.658010483,3,1000,4,1,4,5,2,1,0,3,0,250.0,test,3,M
416.545152664,5,1000,0,1,4,5,2,1,0,3,0,250.0,test,5,M
528.670072556,3,1000,4,1,4,5,2,1,0,3,0,250.0,test,3,M
576.746940613,4,1000,1,1,4,5,2,1,0,3,0,250.0,test,4,M
511.920928955,3,1000,4,1,4,5,2,1,0,3,0,250.0,test,3,M
432.708024979,3,1000,4,1,4,5,2,1,0,3,0,250.0,test,3,M
544.64507103,0,1000,5,1,4,5,2,1,0,3,0,250.0,test,0,M
560.668945312,4,1000,1,1,4,5,2,1,0,3,0,250.0,test,4,M
464.061021805,5,1000,0,1,4,5,2,1,0,3,0,250.0,test,5,M
448.801994324,5,1000,0,1,4,5,2,1,0,3,0,250.0,test,5,M
559.959173203,1,1000,2,1,4,5,2,1,0,3,0,250.0,test,1,M
688.299179077,0,1000,5,1,4,5,2,1,0,3,0,250.0,test,0,M
496.223926544,5,1000,0,1,4,5,2,1,0,3,0,250.0,test,5,M
576.210975647,5,1000,0,0,4,5,2,1,0,3,0,250.0,test,0,M
671.859025955,2,1000,3,1,4,5,2,1,0,3,0,250.0,test,2,M
496.265888214,2,1000,3,1,4,5,2,1,0,3,0,250.0,test,2,M
528.161048889,0,1000,5,1,4,5,2,1,0,3,0,250.0,test,0,M
608.195066452,2,1000,3,1,4,5,2,1,0,3,0,250.0,test,2,M
528.232097626,1,1000,2,1,4,5,2,1,0,3,0,250.0,test,1,M
464.318990707,4,1000,1,1,4,5,2,1,0,3,0,250.0,test,4,M
560.264110565,2,1000,3,1,4,5,2,1,0,3,0,250.0,test,2,M
512.109041214,4,1000,1,1,4,5,2,1,0,3,0,250.0,test,4,M
528.160095215,0,1000,5,1,4,5,2,1,0,3,0,250.0,test,0,M
495.66411972,2,1000,3,1,4,5,2,1,0,3,0,250.0,test,2,M
479.578971863,2,1000,3,1,4,5,2,1,0,3,0,250.0,test,2,M
560.097932816,5,1000,0,1,4,5,2,1,0,3,0,250.0,test,5,M
623.903036118,2,1000,3,1,4,5,2,1,0,3,0,250.0,test,2,M
544.095993042,4,1000,1,1,4,5,2,1,0,3,0,250.0,test,4,M
607.891082764,3,1000,4,1,4,5,2,1,0,3,0,250.0,test,3,M
672.224998474,5,1000,0,1,4,5,2,1,0,3,0,250.0,test,5,M
640.218019485,5,1000,0,1,4,5,2,1,0,3,0,250.0,test,5,M
399.902105331,5,1000,0,1,4,5,2,1,0,3,0,250.0,test,5,M
431.977033615,5,1000,0,1,4,5,2,1,0,3,0,250.0,test,5,M
560.717105865,3,1000,4,1,4,5,2,1,0,3,0,250.0,test,3,M
575.973987579,2,1000,3,1,4,5,2,1,0,3,0,250.0,test,2,M
544.250965118,3,1000,4,1,4,5,2,1,0,3,0,250.0,test,3,M
592.251062393,4,1000,1,1,4,5,2,1,0,3,0,250.0,test,4,M
592.188119888,0,1000,5,1,4,5,2,1,0,3,0,250.0,test,0,M
608.129024506,2,1000,3,1,4,5,2,1,0,3,0,250.0,test,2,M
416.224002838,2,1000,3,1,4,5,2,1,0,3,0,250.0,test,2,M
592.264890671,1,1000,2,1,4,5,2,1,0,3,0,250.0,test,1,M
528.864860535,3,1000,4,1,4,5,2,1,0,3,0,250.0,test,3,M
464.019060135,2,1000,3,1,4,5,2,1,0,3,0,250.0,test,2,M
512.25399971,4,1000,1,1,4,5,2,1,0,3,0,250.0,test,4,M
576.028108597,1,1000,2,1,4,5,2,1,0,3,0,250.0,test,1,M
528.160810471,2,1000,3,1,4,5,2,1,0,3,0,250.0,test,2,M
416.095018387,4,1000,1,1,4,5,2,1,0,3,0,250.0,test,4,M
496.232032776,2,1000,3,1,4,5,2,1,0,3,0,250.0,test,2,M
560.240983963,0,1000,5,0,4,5,2,1,0,3,0,250.0,test,2,M
544.108867645,4,1000,1,1,4,5,2,1,0,3,0,250.0,test,4,M
720.274925232,5,1000,0,1,4,5,2,1,0,3,0,250.0,test,5,M
592.211008072,1,1000,2,1,4,5,2,1,0,3,0,250.0,test,1,M
624.136924744,0,1000,5,1,4,5,2,1,0,3,0,250.0,test,0,M
512.245893478,5,1000,0,1,4,5,2,1,0,3,0,250.0,test,5,M
512.137174606,4,1000,1,1,4,5,2,1,0,3,0,250.0,test,4,M
528.215169907,0,1000,5,1,4,5,2,1,0,3,0,250.0,test,0,M
640.021085739,4,1000,1,1,4,5,2,1,0,3,0,250.0,test,4,M
448.273897171,4,1000,1,1,4,5,2,1,0,3,0,250.0,test,4,M
528.017997742,3,1000,4,1,4,5,2,1,0,3,0,250.0,test,3,M
560.247898102,5,1000,0,1,4,5,2,1,0,3,0,250.0,test,5,M
543.91503334,3,1000,4,1,4,5,2,1,0,3,0,250.0,test,3,M
816.184043884,4,1000,1,1,4,5,2,1,0,3,0,250.0,test,4,M
655.966043472,4,1000,1,1,4,5,2,1,0,3,0,250.0,test,4,M
480.391979218,0,1000,5,1,4,5,2,1,0,3,0,250.0,test,0,M
431.834936142,3,1000,4,0,4,5,2,1,0,3,0,250.0,test,4,M
511.811971664,5,1000,0,1,4,5,2,1,0,3,0,250.0,test,5,M
496.046066284,4,1000,1,1,4,5,2,1,0,3,0,250.0,test,4,M
527.893781662,2,1000,3,1,4,5,2,1,0,3,0,250.0,test,2,M
608.187913895,1,1000,2,1,4,5,2,1,0,3,0,250.0,test,1,M
527.982950211,2,1000,3,1,4,5,2,1,0,3,0,250.0,test,2,M
528.198003769,2,1000,3,1,4,5,2,1,0,3,0,250.0,test,2,M
607.872962952,5,1000,0,1,4,5,2,1,0,3,0,250.0,test,5,M
544.189929962,5,1000,0,1,4,5,2,1,0,3,0,250.0,test,5,M
495.927095413,3,1000,4,1,4,5,2,1,0,3,0,250.0,test,3,M
464.210987091,2,1000,3,1,4,5,2,1,0,3,0,250.0,test,2,M
592.07701683,0,1000,5,0,4,5,2,1,0,3,0,250.0,test,2,M
495.800018311,4,1000,1,1,4,5,2,1,0,3,0,250.0,test,4,M
591.895103455,1,1000,2,1,4,5,2,1,0,3,0,250.0,test,1,M
544.239997864,3,1000,4,1,4,5,2,1,0,3,0,250.0,test,3,M
431.934118271,3,1000,4,1,4,5,2,1,0,3,0,250.0,test,3,M
592.036008835,5,1000,0,1,4,5,2,1,0,3,0,250.0,test,5,M
560.246944427,3,1000,4,1,4,5,2,1,0,3,0,250.0,test,3,M
463.809013367,0,1000,5,1,4,5,2,1,0,3,0,250.0,test,0,M
544.193029404,0,1000,5,1,4,5,2,1,0,3,0,250.0,test,0,M
367.969989777,3,1000,4,1,4,5,2,1,0,3,0,250.0,test,3,M
576.217889786,2,1000,3,1,4,5,2,1,0,3,0,250.0,test,2,M
528.138875961,1,1000,2,1,4,5,2,1,0,3,0,250.0,test,1,M
496.283054352,3,1000,4,1,4,5,2,1,0,3,0,250.0,test,3,M
496.272087097,4,1000,1,1,4,5,2,1,0,3,0,250.0,test,4,M
496.115922928,0,1000,5,0,4,5,2,1,0,3,0,250.0,test,1,M
480.718851089,4,1000,1,1,4,5,2,1,0,3,0,250.0,test,4,M
496.248006821,0,1000,5,1,4,5,2,1,0,3,0,250.0,test,0,M
560.289859772,2,1000,3,0,4,5,2,1,0,3,0,250.0,test,1,M
575.873851776,3,1000,4,1,4,5,2,1,0,3,0,250.0,test,3,M
592.122077942,1,1000,2,1,4,5,2,1,0,3,0,250.0,test,1,M
608.222961426,5,1000,0,1,4,5,2,1,0,3,0,250.0,test,5,M
496.279001236,3,1000,4,1,4,5,2,1,0,3,0,250.0,test,3,M
512.073993683,1,1000,2,1,4,5,2,1,0,3,0,250.0,test,1,M
496.293067932,1,1000,2,1,4,5,2,1,0,3,0,250.0,test,1,M
656.250953674,2,1000,3,1,4,5,2,1,0,3,0,250.0,test,2,M
528.330087662,4,1000,1,1,4,5,2,1,0,3,0,250.0,test,4,M
544.159889221,1,1000,2,1,4,5,2,1,0,3,0,250.0,test,1,M
448.101043701,4,1000,1,1,4,5,2,1,0,3,0,250.0,test,4,M
512.739896774,1,1000,2,1,4,5,2,1,0,3,0,250.0,test,1,M
464.176177979,3,1000,4,1,4,5,2,1,0,3,0,250.0,test,3,M
496.196985245,4,1000,1,1,4,5,2,1,0,3,0,250.0,test,4,M
432.188034058,2,1000,3,0,4,5,2,1,0,3,0,250.0,test,1,M
576.05099678,5,1000,0,1,4,5,2,1,0,3,0,250.0,test,5,M
559.860944748,4,1000,1,1,4,5,2,1,0,3,0,250.0,test,4,M
496.088981628,4,1000,1,1,4,5,2,1,0,3,0,250.0,test,4,M
432.046175003,4,1000,1,1,4,5,2,1,0,3,0,250.0,test,4,M
592.102050781,0,1000,5,1,4,5,2,1,0,3,0,250.0,test,0,M
512.061834335,5,1000,0,1,4,5,2,1,0,3,0,250.0,test,5,M
543.788909912,4,1000,1,1,4,5,2,1,0,3,0,250.0,test,4,M
479.838132858,1,1000,2,1,4,5,2,1,0,3,0,250.0,test,1,M
640.104055405,5,1000,0,0,4,5,2,1,0,3,0,250.0,test,3,M
608.127117157,2,1000,3,1,4,5,2,1,0,3,0,250.0,test,2,M
624.121904373,1,1000,2,1,4,5,2,1,0,3,0,250.0,test,1,M
528.137922287,4,1000,1,1,4,5,2,1,0,3,0,250.0,test,4,M
591.921806335,3,1000,4,1,4,5,2,1,0,3,0,250.0,test,3,M
592.136859894,2,1000,3,1,4,5,2,1,0,3,0,250.0,test,2,M
560.211896896,3,1000,4,1,4,5,2,1,0,3,0,250.0,test,3,M
528.202056885,1,1000,2,1,4,5,2,1,0,3,0,250.0,test,1,M
624.707221985,1,1000,2,1,4,5,2,1,0,3,0,250.0,test,1,M
480.050086975,1,1000,2,1,4,5,2,1,0,3,0,250.0,test,1,M
528.170824051,5,1000,0,1,4,5,2,1,0,3,0,250.0,test,5,M
512.066841125,4,1000,1,1,4,5,2,1,0,3,0,250.0,test,4,M
512.75396347,0,1000,5,1,4,5,2,1,0,3,0,250.0,test,0,M
511.909008026,3,1000,4,1,4,5,2,1,0,3,0,250.0,test,3,M
448.179006577,2,1000,3,0,4,5,2,1,0,3,0,250.0,test,1,M
544.111967087,4,1000,1,1,4,5,2,1,0,3,0,250.0,test,4,M
576.375007629,4,1000,1,1,4,5,2,1,0,3,0,250.0,test,4,M
544.343948364,2,1000,3,1,4,5,2,1,0,3,0,250.0,test,2,M
448.140144348,2,1000,3,1,4,5,2,1,0,3,0,250.0,test,2,M
368.251085281,2,1000,3,1,4,5,2,1,0,3,0,250.0,test,2,M
543.95699501,2,1000,3,1,4,5,2,1,0,3,0,250.0,test,2,M
608.276128769,0,1000,5,1,4,5,2,1,0,3,0,250.0,test,0,M
432.025909424,0,1000,5,1,4,5,2,1,0,3,0,250.0,test,0,M
448.271989822,4,1000,1,1,4,5,2,1,0,3,0,250.0,test,4,M
528.28001976,5,1000,0,1,4,5,2,1,0,3,0,250.0,test,5,M
512.032032013,3,1000,4,1,4,5,2,1,0,3,0,250.0,test,3,M
671.974897385,2,1000,3,1,4,5,2,1,0,3,0,250.0,test,2,M
480.364084244,1,1000,2,1,4,5,2,1,0,3,0,250.0,test,1,M
544.337034225,2,1000,3,1,4,5,2,1,0,3,0,250.0,test,2,M
480.170965195,4,1000,1,1,4,5,2,1,0,3,0,250.0,test,4,M
560.331106186,1,1000,2,1,4,5,2,1,0,3,0,250.0,test,1,M
512.079000473,4,1000,1,1,4,5,2,1,0,3,0,250.0,test,4,M
496.206045151,4,1000,1,1,4,5,2,1,0,3,0,250.0,test,4,M
559.762001038,3,1000,4,1,4,5,2,1,0,3,0,250.0,test,3,M
560.04691124,2,1000,3,1,4,5,2,1,0,3,0,250.0,test,2,M
592.326879501,1,1000,2,1,4,5,2,1,0,3,0,250.0,test,1,M
560.015916824,5,1000,0,1,4,5,2,1,0,3,0,250.0,test,5,M
592.277050018,2,1000,3,1,4,5,2,1,0,3,0,250.0,test,2,M
528.436899185,4,1000,1,1,4,5,2,1,0,3,0,250.0,test,4,M
576.272964478,3,1000,4,1,4,5,2,1,0,3,0,250.0,test,3,M
512.393951416,3,1000,4,1,4,5,2,1,0,3,0,250.0,test,3,M
608.295202255,2,1000,3,1,4,5,2,1,0,3,0,250.0,test,2,M
544.302940369,3,1000,4,1,4,5,2,1,0,3,0,250.0,test,3,M
544.198036194,1,1000,2,1,4,5,2,1,0,3,0,250.0,test,1,M
480.265855789,4,1000,1,1,4,5,2,1,0,3,0,250.0,test,4,M
592.535972595,1,1000,2,1,4,5,2,1,0,3,0,250.0,test,1,M
464.402914047,4,1000,1,1,4,5,2,1,0,3,0,250.0,test,4,M
496.454954147,0,1000,5,1,4,5,2,1,0,3,0,250.0,test,0,M
480.456113815,4,1000,1,1,4,5,2,1,0,3,0,250.0,test,4,M
576.44701004,2,1000,3,1,4,5,2,1,0,3,0,250.0,test,2,M
768.368005753,0,1000,5,1,4,5,2,1,0,3,0,250.0,test,0,M
512.38489151,4,1000,1,1,4,5,2,1,0,3,0,250.0,test,4,M
560.35399437,3,1000,4,1,4,5,2,1,0,3,0,250.0,test,3,M
368.466854095,5,1000,0,0,4,5,2,1,0,3,0,250.0,test,3,M
480.251073837,4,1000,1,1,4,5,2,1,0,3,0,250.0,test,4,M
576.177835464,1,1000,2,1,4,5,2,1,0,3,0,250.0,test,1,M
544.263124466,5,1000,0,1,4,5,2,1,0,3,0,250.0,test,5,M
448.699951172,1,1000,2,1,4,5,2,1,0,3,0,250.0,test,1,M
528.145074844,5,1000,0,1,4,5,2,1,0,3,0,250.0,test,5,M
431.928157806,2,1000,3,1,4,5,2,1,0,3,0,250.0,test,2,M
384.347200394,1,1000,2,0,4,5,2,1,0,3,0,250.0,test,2,M
496.204137802,5,1000,0,1,4,5,2,1,0,3,0,250.0,test,5,M
512.351036072,2,1000,3,1,4,5,2,1,0,3,0,250.0,test,2,M
528.494119644,1,1000,2,1,4,5,2,1,0,3,0,250.0,test,1,M
464.36715126,4,1000,1,1,4,5,2,1,0,3,0,250.0,test,4,M
448.287963867,4,1000,1,1,4,5,2,1,0,3,0,250.0,test,4,M
448.07600975,4,1000,1,1,4,5,2,1,0,3,0,250.0,test,4,M
368.628025055,0,1000,5,0,4,5,2,1,0,3,0,250.0,test,4,M
528.038024902,3,1000,4,1,4,5,2,1,0,3,0,250.0,test,3,M
400.47287941,3,1000,4,1,4,5,2,1,0,3,0,250.0,test,3,M
416.09787941,3,1000,4,1,4,5,2,1,0,3,0,250.0,test,3,M
496.262073517,2,1000,3,1,4,5,2,1,0,3,0,250.0,test,2,M
544.110059738,1,1000,2,1,4,5,2,1,0,3,0,250.0,test,1,M
560.019016266,4,1000,1,1,4,5,2,1,0,3,0,250.0,test,4,M
