RT,correct_response,ms-prestimblank,curstim,correct,SRmap_1,SRmap_0,SRmap_3,SRmap_2,SRmap_5,SRmap_4,ms-precue,ntrials,type,response,condition
105868.432999,0,1000,5,1,1,5,2,4,0,3,0,250.0,train,0,M
895.938158035,3,1000,4,1,1,5,2,4,0,3,0,250.0,train,3,M
592.331886292,2,1000,3,1,1,5,2,4,0,3,0,250.0,train,2,M
831.590890884,3,1000,4,1,1,5,2,4,0,3,0,250.0,train,3,M
735.682010651,0,1000,5,1,1,5,2,4,0,3,0,250.0,train,0,M
447.765111923,3,1000,4,1,1,5,2,4,0,3,0,250.0,train,3,M
559.844017029,0,1000,5,1,1,5,2,4,0,3,0,250.0,train,0,M
512.934923172,3,1000,4,0,1,5,2,4,0,3,0,250.0,train,2,M
896.425008774,1,1000,1,1,1,5,2,4,0,3,0,250.0,train,1,M
544.383049011,3,1000,4,1,1,5,2,4,0,3,0,250.0,train,3,M
496.40083313,1,1000,1,1,1,5,2,4,0,3,0,250.0,train,1,M
448.798894882,1,1000,1,1,1,5,2,4,0,3,0,250.0,train,1,M
544.435024261,2,1000,3,1,1,5,2,4,0,3,0,250.0,train,2,M
448.448896408,2,1000,3,1,1,5,2,4,0,3,0,250.0,train,2,M
544.471025467,5,1000,0,0,1,5,2,4,0,3,0,250.0,train,3,M
528.35392952,4,1000,2,1,1,5,2,4,0,3,0,250.0,train,4,M
768.881082535,5,1000,0,1,1,5,2,4,0,3,0,250.0,train,5,M
560.171127319,5,1000,0,1,1,5,2,4,0,3,0,250.0,train,5,M
527.634143829,0,1000,5,1,1,5,2,4,0,3,0,250.0,train,0,M
543.564081192,5,1000,0,1,1,5,2,4,0,3,0,250.0,train,5,M
672.772884369,3,1000,4,1,1,5,2,4,0,3,0,250.0,train,3,M
479.635953903,5,1000,0,1,1,5,2,4,0,3,0,250.0,train,5,M
415.683031082,3,1000,4,1,1,5,2,4,0,3,0,250.0,train,3,M
431.554079056,0,1000,5,1,1,5,2,4,0,3,0,250.0,train,0,M
575.598955154,4,1000,2,1,1,5,2,4,0,3,0,250.0,train,4,M
479.969978333,1,1000,1,1,1,5,2,4,0,3,0,250.0,train,1,M
399.784088135,1,1000,1,1,1,5,2,4,0,3,0,250.0,train,1,M
399.677991867,1,1000,1,1,1,5,2,4,0,3,0,250.0,train,1,M
416.31603241,2,1000,3,1,1,5,2,4,0,3,0,250.0,train,2,M
495.852947235,4,1000,2,1,1,5,2,4,0,3,0,250.0,train,4,M
430.365800858,5,1000,0,1,1,5,2,4,0,3,0,250.0,train,5,M
351.590871811,5,1000,0,0,1,5,2,4,0,3,0,250.0,train,4,M
415.503025055,4,1000,2,1,1,5,2,4,0,3,0,250.0,train,4,M
368.515968323,5,1000,0,1,1,5,2,4,0,3,0,250.0,train,5,M
448.426008224,0,1000,5,1,1,5,2,4,0,3,0,250.0,train,0,M
431.45108223,1,1000,1,1,1,5,2,4,0,3,0,250.0,train,1,M
431.622982025,1,1000,1,1,1,5,2,4,0,3,0,250.0,train,1,M
384.099960327,0,1000,5,1,1,5,2,4,0,3,0,250.0,train,0,M
511.741876602,4,1000,2,0,1,5,2,4,0,3,0,250.0,train,5,M
624.238014221,3,1000,4,1,1,5,2,4,0,3,0,250.0,train,3,M
479.340076447,0,1000,5,1,1,5,2,4,0,3,0,250.0,train,0,M
416.436910629,2,1000,3,1,1,5,2,4,0,3,0,250.0,train,2,M
447.647094727,3,1000,4,1,1,5,2,4,0,3,0,250.0,train,3,M
447.861909866,4,1000,2,1,1,5,2,4,0,3,0,250.0,train,4,M
447.718858719,1,1000,1,1,1,5,2,4,0,3,0,250.0,train,1,M
511.658906937,5,1000,0,1,1,5,2,4,0,3,0,250.0,train,5,M
671.943187714,2,1000,3,1,1,5,2,4,0,3,0,250.0,train,2,M
384.07087326,1,1000,1,1,1,5,2,4,0,3,0,250.0,train,1,M
464.03503418,3,1000,4,1,1,5,2,4,0,3,0,250.0,train,3,M
416.244029999,4,1000,2,1,1,5,2,4,0,3,0,250.0,train,4,M
400.902986526,5,1000,0,1,1,5,2,4,0,3,0,250.0,train,5,M
464.848995209,2,1000,3,1,1,5,2,4,0,3,0,250.0,train,2,M
351.487874985,1,1000,1,1,1,5,2,4,0,3,0,250.0,train,1,M
495.507001877,5,1000,0,1,1,5,2,4,0,3,0,250.0,train,5,M
416.089773178,1,1000,1,1,1,5,2,4,0,3,0,250.0,train,1,M
447.772026062,3,1000,4,1,1,5,2,4,0,3,0,250.0,train,3,M
367.81001091,1,1000,1,1,1,5,2,4,0,3,0,250.0,train,1,M
447.685003281,5,1000,0,1,1,5,2,4,0,3,0,250.0,train,5,M
384.064912796,0,1000,5,1,1,5,2,4,0,3,0,250.0,train,0,M
464.063882828,2,1000,3,1,1,5,2,4,0,3,0,250.0,train,2,M
384.191989899,0,1000,5,1,1,5,2,4,0,3,0,250.0,train,0,M
448.126792908,5,1000,0,1,1,5,2,4,0,3,0,250.0,train,5,M
367.90394783,0,1000,5,1,1,5,2,4,0,3,0,250.0,train,0,M
496.324062347,4,1000,2,1,1,5,2,4,0,3,0,250.0,train,4,M
367.90895462,3,1000,4,1,1,5,2,4,0,3,0,250.0,train,3,M
432.234048843,4,1000,2,1,1,5,2,4,0,3,0,250.0,train,4,M
399.40905571,5,1000,0,1,1,5,2,4,0,3,0,250.0,train,5,M
479.661941528,3,1000,4,0,1,5,2,4,0,3,0,250.0,train,2,M
352.097034454,3,1000,4,1,1,5,2,4,0,3,0,250.0,train,3,M
415.934085846,5,1000,0,1,1,5,2,4,0,3,0,250.0,train,5,M
447.444915771,3,1000,4,1,1,5,2,4,0,3,0,250.0,train,3,M
415.623903275,5,1000,0,1,1,5,2,4,0,3,0,250.0,train,5,M
384.241819382,4,1000,2,1,1,5,2,4,0,3,0,250.0,train,4,M
463.958024979,2,1000,3,1,1,5,2,4,0,3,0,250.0,train,2,M
367.784976959,0,1000,5,1,1,5,2,4,0,3,0,250.0,train,0,M
496.394872665,4,1000,2,1,1,5,2,4,0,3,0,250.0,train,4,M
416.341781616,1,1000,1,1,1,5,2,4,0,3,0,250.0,train,1,M
400.870084763,5,1000,0,1,1,5,2,4,0,3,0,250.0,train,5,M
351.520061493,0,1000,5,1,1,5,2,4,0,3,0,250.0,train,0,M
512.257814407,3,1000,4,1,1,5,2,4,0,3,0,250.0,train,3,M
576.149225235,1,1000,1,1,1,5,2,4,0,3,0,250.0,train,1,M
432.930231094,4,1000,2,1,1,5,2,4,0,3,0,250.0,train,4,M
448.220014572,5,1000,0,1,1,5,2,4,0,3,0,250.0,train,5,M
416.225910187,5,1000,0,1,1,5,2,4,0,3,0,250.0,train,5,M
384.472131729,0,1000,5,1,1,5,2,4,0,3,0,250.0,train,0,M
384.36293602,1,1000,1,1,1,5,2,4,0,3,0,250.0,train,1,M
335.542917252,2,1000,3,1,1,5,2,4,0,3,0,250.0,train,2,M
448.267936707,4,1000,2,1,1,5,2,4,0,3,0,250.0,train,4,M
415.672063828,4,1000,2,1,1,5,2,4,0,3,0,250.0,train,4,M
464.092969894,3,1000,4,1,1,5,2,4,0,3,0,250.0,train,3,M
448.954105377,5,1000,0,1,1,5,2,4,0,3,0,250.0,train,5,M
335.494041443,0,1000,5,1,1,5,2,4,0,3,0,250.0,train,0,M
384.026050568,0,1000,5,1,1,5,2,4,0,3,0,250.0,train,0,M
415.609121323,2,1000,3,1,1,5,2,4,0,3,0,250.0,train,2,M
303.776025772,1,1000,1,1,1,5,2,4,0,3,0,250.0,train,1,M
415.679931641,2,1000,3,1,1,5,2,4,0,3,0,250.0,train,2,M
512.223958969,4,1000,2,1,1,5,2,4,0,3,0,250.0,train,4,M
368.077993393,4,1000,2,1,1,5,2,4,0,3,0,250.0,train,4,M
416.381835938,2,1000,3,1,1,5,2,4,0,3,0,250.0,train,2,M
478.357076645,5,1000,0,1,1,5,2,4,0,3,0,250.0,train,5,M
384.920835495,0,1000,5,1,1,5,2,4,0,3,0,250.0,train,0,M
416.224002838,2,1000,3,1,1,5,2,4,0,3,0,250.0,train,2,M
512.866020203,4,1000,2,1,1,5,2,4,0,3,0,250.0,train,4,M
400.343894958,2,1000,3,0,1,5,2,4,0,3,0,250.0,train,0,M
401.075839996,1,1000,1,1,1,5,2,4,0,3,0,250.0,train,1,M
512.34292984,4,1000,2,1,1,5,2,4,0,3,0,250.0,train,4,M
511.942863464,5,1000,0,1,1,5,2,4,0,3,0,250.0,train,5,M
399.538040161,4,1000,2,1,1,5,2,4,0,3,0,250.0,train,4,M
400.321960449,0,1000,5,1,1,5,2,4,0,3,0,250.0,train,0,M
431.882143021,5,1000,0,1,1,5,2,4,0,3,0,250.0,train,5,M
383.619070053,5,1000,0,1,1,5,2,4,0,3,0,250.0,train,5,M
383.937835693,5,1000,0,1,1,5,2,4,0,3,0,250.0,train,5,M
432.790994644,1,1000,1,0,1,5,2,4,0,3,0,250.0,train,2,M
512.96210289,4,1000,2,1,1,5,2,4,0,3,0,250.0,train,4,M
368.314027786,4,1000,2,1,1,5,2,4,0,3,0,250.0,train,4,M
431.796073914,3,1000,4,1,1,5,2,4,0,3,0,250.0,train,3,M
400.899171829,0,1000,5,1,1,5,2,4,0,3,0,250.0,train,0,M
448.113918304,5,1000,0,1,1,5,2,4,0,3,0,250.0,train,5,M
383.442163467,1,1000,1,1,1,5,2,4,0,3,0,250.0,train,1,M
527.688026428,5,1000,0,1,1,5,2,4,0,3,0,250.0,train,5,M
384.377002716,0,1000,5,1,1,5,2,4,0,3,0,250.0,train,0,M
448.289871216,4,1000,2,1,1,5,2,4,0,3,0,250.0,train,4,M
448.745012283,5,1000,0,1,1,5,2,4,0,3,0,250.0,train,5,M
415.963888168,0,1000,5,1,1,5,2,4,0,3,0,250.0,train,0,M
415.529966354,2,1000,3,1,1,5,2,4,0,3,0,250.0,train,2,M
464.893102646,4,1000,2,1,1,5,2,4,0,3,0,250.0,train,4,M
336.110115051,1,1000,1,1,1,5,2,4,0,3,0,250.0,train,1,M
512.475967407,5,1000,0,1,1,5,2,4,0,3,0,250.0,train,5,M
399.974822998,0,1000,5,1,1,5,2,4,0,3,0,250.0,train,0,M
463.938951492,4,1000,2,1,1,5,2,4,0,3,0,250.0,train,4,M
384.228944778,0,1000,5,1,1,5,2,4,0,3,0,250.0,train,0,M
511.788129807,2,1000,3,1,1,5,2,4,0,3,0,250.0,train,2,M
336.251974106,0,1000,5,1,1,5,2,4,0,3,0,250.0,train,0,M
383.687019348,2,1000,3,1,1,5,2,4,0,3,0,250.0,train,2,M
480.909109116,3,1000,4,1,1,5,2,4,0,3,0,250.0,train,3,M
384.427785873,2,1000,3,1,1,5,2,4,0,3,0,250.0,train,2,M
512.157917023,5,1000,0,1,1,5,2,4,0,3,0,250.0,train,5,M
383.679866791,0,1000,5,1,1,5,2,4,0,3,0,250.0,train,0,M
687.611818314,4,1000,2,1,1,5,2,4,0,3,0,250.0,train,4,M
335.80493927,2,1000,3,1,1,5,2,4,0,3,0,250.0,train,2,M
335.533857346,4,1000,2,1,1,5,2,4,0,3,0,250.0,train,4,M
448.018074036,2,1000,3,1,1,5,2,4,0,3,0,250.0,train,2,M
320.852994919,2,1000,3,1,1,5,2,4,0,3,0,250.0,train,2,M
351.799964905,0,1000,5,1,1,5,2,4,0,3,0,250.0,train,0,M
432.021856308,1,1000,1,1,1,5,2,4,0,3,0,250.0,train,1,M
463.728904724,5,1000,0,1,1,5,2,4,0,3,0,250.0,train,5,M
351.531982422,3,1000,4,0,1,5,2,4,0,3,0,250.0,train,2,M
415.722846985,0,1000,5,1,1,5,2,4,0,3,0,250.0,train,0,M
384.199142456,1,1000,1,1,1,5,2,4,0,3,0,250.0,train,1,M
368.386030197,1,1000,1,1,1,5,2,4,0,3,0,250.0,train,1,M
511.740922928,5,1000,0,1,1,5,2,4,0,3,0,250.0,train,5,M
367.570877075,4,1000,2,1,1,5,2,4,0,3,0,250.0,train,4,M
415.627002716,5,1000,0,1,1,5,2,4,0,3,0,250.0,train,5,M
592.052936554,2,1000,3,1,1,5,2,4,0,3,0,250.0,train,2,M
496.859073639,3,1000,4,1,1,5,2,4,0,3,0,250.0,train,3,M
480.825901031,5,1000,0,1,1,5,2,4,0,3,0,250.0,train,5,M
447.548151016,1,1000,1,1,1,5,2,4,0,3,0,250.0,train,1,M
592.956066132,3,1000,4,1,1,5,2,4,0,3,0,250.0,train,3,M
463.812112808,1,1000,1,1,1,5,2,4,0,3,0,250.0,train,1,M
464.935064316,2,1000,3,1,1,5,2,4,0,3,0,250.0,train,2,M
352.200984955,1,1000,1,1,1,5,2,4,0,3,0,250.0,train,1,M
448.919057846,5,1000,0,1,1,5,2,4,0,3,0,250.0,train,5,M
416.194200516,0,1000,5,1,1,5,2,4,0,3,0,250.0,train,0,M
400.839090347,2,1000,3,0,1,5,2,4,0,3,0,250.0,train,3,M
368.93081665,2,1000,3,1,1,5,2,4,0,3,0,250.0,train,2,M
400.965929031,0,1000,5,1,1,5,2,4,0,3,0,250.0,train,0,M
512.25399971,3,1000,4,1,1,5,2,4,0,3,0,250.0,train,3,M
432.35206604,1,1000,1,1,1,5,2,4,0,3,0,250.0,train,1,M
352.464914322,0,1000,5,1,1,5,2,4,0,3,0,250.0,train,0,M
496.340990067,5,1000,0,1,1,5,2,4,0,3,0,250.0,train,5,M
399.595975876,0,1000,5,1,1,5,2,4,0,3,0,250.0,train,0,M
608.525037766,4,1000,2,1,1,5,2,4,0,3,0,250.0,train,4,M
544.438838959,3,1000,4,0,1,5,2,4,0,3,0,250.0,train,2,M
512.402057648,0,1000,5,1,1,5,2,4,0,3,0,250.0,train,0,M
575.977802277,2,1000,3,1,1,5,2,4,0,3,0,250.0,train,2,M
415.605068207,0,1000,5,1,1,5,2,4,0,3,0,250.0,train,0,M
576.078891754,5,1000,0,1,1,5,2,4,0,3,0,250.0,train,5,M
559.798002243,2,1000,3,1,1,5,2,4,0,3,0,250.0,train,2,M
415.798187256,0,1000,5,1,1,5,2,4,0,3,0,250.0,train,0,M
560.50992012,3,1000,4,1,1,5,2,4,0,3,0,250.0,train,3,M
592.039823532,2,1000,3,1,1,5,2,4,0,3,0,250.0,train,2,M
592.263936996,4,1000,2,1,1,5,2,4,0,3,0,250.0,train,4,M
463.778018951,3,1000,4,1,1,5,2,4,0,3,0,250.0,train,3,M
463.654994965,4,1000,2,1,1,5,2,4,0,3,0,250.0,train,4,M
495.627164841,4,1000,2,1,1,5,2,4,0,3,0,250.0,train,4,M
447.922229767,0,1000,5,1,1,5,2,4,0,3,0,250.0,train,0,M
416.00894928,4,1000,2,1,1,5,2,4,0,3,0,250.0,train,4,M
463.804006577,3,1000,4,0,1,5,2,4,0,3,0,250.0,train,2,M
560.828924179,2,1000,3,1,1,5,2,4,0,3,0,250.0,train,2,M
351.773023605,2,1000,3,1,1,5,2,4,0,3,0,250.0,train,2,M
480.817079544,4,1000,2,1,1,5,2,4,0,3,0,250.0,train,4,M
400.330066681,4,1000,2,1,1,5,2,4,0,3,0,250.0,train,4,M
463.753938675,5,1000,0,1,1,5,2,4,0,3,0,250.0,train,5,M
447.447061539,1,1000,1,1,1,5,2,4,0,3,0,250.0,train,1,M
464.859008789,5,1000,0,1,1,5,2,4,0,3,0,250.0,train,5,M
464.354991913,3,1000,4,1,1,5,2,4,0,3,0,250.0,train,3,M
416.866064072,3,1000,4,1,1,5,2,4,0,3,0,250.0,train,3,M
351.888179779,4,1000,2,1,1,5,2,4,0,3,0,250.0,train,4,M
416.043043137,2,1000,3,1,1,5,2,4,0,3,0,250.0,train,2,M
400.413990021,1,1000,1,1,1,5,2,4,0,3,0,250.0,train,1,M
384.917020798,5,1000,0,0,1,5,2,4,0,3,0,250.0,train,2,M
480.533838272,3,1000,4,1,1,5,2,4,0,3,0,250.0,train,3,M
416.882991791,5,1000,0,1,1,5,2,4,0,3,0,250.0,train,5,M
480.179071426,0,1000,5,1,1,5,2,4,0,3,0,250.0,train,0,M
401.768922806,0,1000,5,1,1,5,2,4,0,3,0,250.0,train,0,M
511.775016785,3,1000,4,1,1,5,2,4,0,3,0,250.0,train,3,M
479.927062988,0,1000,5,1,1,5,2,4,0,3,0,250.0,train,0,M
512.348890305,1,1000,1,1,1,5,2,4,0,3,0,250.0,train,1,M
816.476821899,3,1000,4,1,1,5,2,4,0,3,0,250.0,train,3,M
496.361017227,4,1000,2,1,1,5,2,4,0,3,0,250.0,train,4,M
767.964839935,4,1000,2,1,1,5,2,4,0,3,0,250.0,train,4,M
399.584054947,4,1000,2,1,1,5,2,4,0,3,0,250.0,train,4,M
543.685913086,0,1000,5,1,1,5,2,4,0,3,0,250.0,train,0,M
416.280984879,0,1000,5,1,1,5,2,4,0,3,0,250.0,train,0,M
545.022010803,3,1000,4,1,1,5,2,4,0,3,0,250.0,train,3,M
399.625062943,1,1000,1,1,1,5,2,4,0,3,0,250.0,train,1,M
432.359933853,2,1000,3,0,1,5,2,4,0,3,0,250.0,train,3,M
575.705051422,5,1000,0,1,1,5,2,4,0,3,0,250.0,train,5,M
512.365818024,2,1000,3,1,1,5,2,4,0,3,0,250.0,train,2,M
496.943950653,5,1000,0,1,1,5,2,4,0,3,0,250.0,train,5,M
368.525981903,5,1000,0,1,1,5,2,4,0,3,0,250.0,train,5,M
559.990882874,4,1000,2,1,1,5,2,4,0,3,0,250.0,train,4,M
495.481967926,1,1000,1,1,1,5,2,4,0,3,0,250.0,train,1,M
416.051864624,0,1000,5,1,1,5,2,4,0,3,0,250.0,train,0,M
495.636940002,5,1000,0,1,1,5,2,4,0,3,0,250.0,train,5,M
368.116140366,5,1000,0,1,1,5,2,4,0,3,0,250.0,train,5,M
591.849088669,2,1000,3,1,1,5,2,4,0,3,0,250.0,train,2,M
416.103839874,2,1000,3,1,1,5,2,4,0,3,0,250.0,train,2,M
527.942180634,5,1000,0,1,1,5,2,4,0,3,0,250.0,train,5,M
432.134151459,1,1000,1,1,1,5,2,4,0,3,0,250.0,train,1,M
495.740175247,0,1000,5,1,1,5,2,4,0,3,0,250.0,train,0,M
1215.57593346,3,1000,4,1,1,5,2,4,0,3,0,250.0,train,3,M
464.833974838,3,1000,4,1,1,5,2,4,0,3,0,250.0,train,3,M
431.833982468,5,1000,0,1,1,5,2,4,0,3,0,250.0,train,5,M
671.945095062,3,1000,4,1,1,5,2,4,0,3,0,250.0,train,3,M
400.832891464,5,1000,0,1,1,5,2,4,0,3,0,250.0,train,5,M
319.72694397,3,1000,4,1,1,5,2,4,0,3,0,250.0,train,3,M
256.081104279,5,1000,0,1,1,5,2,4,0,3,0,250.0,train,5,M
384.33098793,4,1000,2,0,1,5,2,4,0,3,0,250.0,train,3,M
672.830104828,3,1000,4,1,1,5,2,4,0,3,0,250.0,train,3,M
463.636875153,2,1000,3,1,1,5,2,4,0,3,0,250.0,train,2,M
416.36300087,0,1000,5,1,1,5,2,4,0,3,0,250.0,train,0,M
416.239976883,4,1000,2,1,1,5,2,4,0,3,0,250.0,train,4,M
368.899822235,3,1000,4,1,1,5,2,4,0,3,0,250.0,train,3,M
416.866064072,3,1000,4,1,1,5,2,4,0,3,0,250.0,train,3,M
351.616859436,2,1000,3,0,1,5,2,4,0,3,0,250.0,train,4,M
463.682174683,1,1000,1,1,1,5,2,4,0,3,0,250.0,train,1,M
384.334087372,1,1000,1,1,1,5,2,4,0,3,0,250.0,train,1,M
368.418931961,1,1000,1,1,1,5,2,4,0,3,0,250.0,train,1,M
544.35300827,5,1000,0,1,1,5,2,4,0,3,0,250.0,train,5,M
3839.43295479,0,1000,5,1,1,5,2,4,0,3,0,250.0,test,0,M
1520.7901001,5,1000,0,1,1,5,2,4,0,3,0,250.0,test,5,M
1232.23686218,3,1000,4,1,1,5,2,4,0,3,0,250.0,test,3,M
1152.45485306,3,1000,4,1,1,5,2,4,0,3,0,250.0,test,3,M
1152.09102631,2,1000,3,1,1,5,2,4,0,3,0,250.0,test,2,M
1408.22696686,5,1000,0,1,1,5,2,4,0,3,0,250.0,test,5,M
1135.9269619,2,1000,3,1,1,5,2,4,0,3,0,250.0,test,2,M
703.278064728,2,1000,3,1,1,5,2,4,0,3,0,250.0,test,2,M
1072.09897041,5,1000,0,1,1,5,2,4,0,3,0,250.0,test,5,M
656.447887421,3,1000,4,1,1,5,2,4,0,3,0,250.0,test,3,M
432.366132736,1,1000,1,1,1,5,2,4,0,3,0,250.0,test,1,M
608.25586319,0,1000,5,1,1,5,2,4,0,3,0,250.0,test,0,M
640.784025192,1,1000,1,1,1,5,2,4,0,3,0,250.0,test,1,M
351.830005646,4,1000,2,1,1,5,2,4,0,3,0,250.0,test,4,M
559.828996658,0,1000,5,1,1,5,2,4,0,3,0,250.0,test,0,M
431.984901428,0,1000,5,1,1,5,2,4,0,3,0,250.0,test,0,M
287.958860397,0,1000,5,1,1,5,2,4,0,3,0,250.0,test,0,M
1392.65799522,3,1000,4,1,1,5,2,4,0,3,0,250.0,test,3,M
512.137174606,1,1000,1,1,1,5,2,4,0,3,0,250.0,test,1,M
479.943990707,0,1000,5,1,1,5,2,4,0,3,0,250.0,test,0,M
368.901968002,0,1000,5,1,1,5,2,4,0,3,0,250.0,test,0,M
528.022050858,1,1000,1,1,1,5,2,4,0,3,0,250.0,test,1,M
607.841014862,4,1000,2,1,1,5,2,4,0,3,0,250.0,test,4,M
480.68022728,4,1000,2,1,1,5,2,4,0,3,0,250.0,test,4,M
559.592008591,1,1000,1,1,1,5,2,4,0,3,0,250.0,test,1,M
400.489091873,1,1000,1,1,1,5,2,4,0,3,0,250.0,test,1,M
687.673091888,4,1000,2,1,1,5,2,4,0,3,0,250.0,test,4,M
895.876169205,5,1000,0,1,1,5,2,4,0,3,0,250.0,test,5,M
576.12490654,0,1000,5,1,1,5,2,4,0,3,0,250.0,test,0,M
400.172948837,0,1000,5,1,1,5,2,4,0,3,0,250.0,test,0,M
1087.80908585,2,1000,3,1,1,5,2,4,0,3,0,250.0,test,2,M
751.825094223,5,1000,0,1,1,5,2,4,0,3,0,250.0,test,5,M
671.878814697,3,1000,4,1,1,5,2,4,0,3,0,250.0,test,3,M
543.856859207,0,1000,5,1,1,5,2,4,0,3,0,250.0,test,0,M
752.223014832,2,1000,3,1,1,5,2,4,0,3,0,250.0,test,2,M
544.006109238,2,1000,3,0,1,5,2,4,0,3,0,250.0,test,3,M
623.938083649,3,1000,4,1,1,5,2,4,0,3,0,250.0,test,3,M
544.406890869,4,1000,2,1,1,5,2,4,0,3,0,250.0,test,4,M
495.711803436,0,1000,5,1,1,5,2,4,0,3,0,250.0,test,0,M
624.356031418,3,1000,4,1,1,5,2,4,0,3,0,250.0,test,3,M
800.426959991,5,1000,0,1,1,5,2,4,0,3,0,250.0,test,5,M
768.23091507,2,1000,3,1,1,5,2,4,0,3,0,250.0,test,2,M
752.02703476,4,1000,2,1,1,5,2,4,0,3,0,250.0,test,4,M
863.963127136,5,1000,0,1,1,5,2,4,0,3,0,250.0,test,5,M
687.98494339,2,1000,3,1,1,5,2,4,0,3,0,250.0,test,2,M
576.014041901,3,1000,4,1,1,5,2,4,0,3,0,250.0,test,3,M
607.878923416,4,1000,2,1,1,5,2,4,0,3,0,250.0,test,4,M
512.665987015,1,1000,1,0,1,5,2,4,0,3,0,250.0,test,2,M
527.780056,3,1000,4,1,1,5,2,4,0,3,0,250.0,test,3,M
607.753038406,1,1000,1,1,1,5,2,4,0,3,0,250.0,test,1,M
480.324029922,3,1000,4,1,1,5,2,4,0,3,0,250.0,test,3,M
351.979970932,3,1000,4,1,1,5,2,4,0,3,0,250.0,test,3,M
319.917917252,3,1000,4,1,1,5,2,4,0,3,0,250.0,test,3,M
575.847148895,2,1000,3,1,1,5,2,4,0,3,0,250.0,test,2,M
479.984998703,4,1000,2,0,1,5,2,4,0,3,0,250.0,test,1,M
559.82208252,3,1000,4,1,1,5,2,4,0,3,0,250.0,test,3,M
368.663072586,4,1000,2,1,1,5,2,4,0,3,0,250.0,test,4,M
1343.81699562,0,1000,5,1,1,5,2,4,0,3,0,250.0,test,0,M
367.910861969,0,1000,5,1,1,5,2,4,0,3,0,250.0,test,0,M
511.964082718,4,1000,2,1,1,5,2,4,0,3,0,250.0,test,4,M
575.819015503,2,1000,3,1,1,5,2,4,0,3,0,250.0,test,2,M
527.849912643,0,1000,5,1,1,5,2,4,0,3,0,250.0,test,0,M
719.799995422,4,1000,2,1,1,5,2,4,0,3,0,250.0,test,4,M
735.584974289,2,1000,3,1,1,5,2,4,0,3,0,250.0,test,2,M
608.010053635,4,1000,2,1,1,5,2,4,0,3,0,250.0,test,4,M
575.773954391,0,1000,5,1,1,5,2,4,0,3,0,250.0,test,0,M
607.860088348,2,1000,3,1,1,5,2,4,0,3,0,250.0,test,2,M
575.925111771,1,1000,1,1,1,5,2,4,0,3,0,250.0,test,1,M
497.603178024,1,1000,1,1,1,5,2,4,0,3,0,250.0,test,1,M
720.304965973,2,1000,3,1,1,5,2,4,0,3,0,250.0,test,2,M
656.246900558,2,1000,3,1,1,5,2,4,0,3,0,250.0,test,2,M
575.980901718,4,1000,2,1,1,5,2,4,0,3,0,250.0,test,4,M
496.031999588,1,1000,1,1,1,5,2,4,0,3,0,250.0,test,1,M
447.875976562,1,1000,1,1,1,5,2,4,0,3,0,250.0,test,1,M
592.803001404,3,1000,4,0,1,5,2,4,0,3,0,250.0,test,2,M
528.362989426,1,1000,1,0,1,5,2,4,0,3,0,250.0,test,2,M
447.896957397,4,1000,2,1,1,5,2,4,0,3,0,250.0,test,4,M
512.048006058,1,1000,1,1,1,5,2,4,0,3,0,250.0,test,1,M
832.412004471,2,1000,3,1,1,5,2,4,0,3,0,250.0,test,2,M
592.311143875,1,1000,1,1,1,5,2,4,0,3,0,250.0,test,1,M
464.527845383,4,1000,2,1,1,5,2,4,0,3,0,250.0,test,4,M
496.423959732,5,1000,0,1,1,5,2,4,0,3,0,250.0,test,5,M
496.340990067,1,1000,1,1,1,5,2,4,0,3,0,250.0,test,1,M
415.970087051,1,1000,1,1,1,5,2,4,0,3,0,250.0,test,1,M
640.396118164,2,1000,3,1,1,5,2,4,0,3,0,250.0,test,2,M
720.436811447,3,1000,4,0,1,5,2,4,0,3,0,250.0,test,5,M
592.386960983,3,1000,4,1,1,5,2,4,0,3,0,250.0,test,3,M
623.852014542,0,1000,5,1,1,5,2,4,0,3,0,250.0,test,0,M
559.985876083,5,1000,0,1,1,5,2,4,0,3,0,250.0,test,5,M
383.936882019,5,1000,0,1,1,5,2,4,0,3,0,250.0,test,5,M
543.750047684,1,1000,1,1,1,5,2,4,0,3,0,250.0,test,1,M
703.956127167,3,1000,4,1,1,5,2,4,0,3,0,250.0,test,3,M
512.929916382,4,1000,2,1,1,5,2,4,0,3,0,250.0,test,4,M
704.463005066,1,1000,1,1,1,5,2,4,0,3,0,250.0,test,1,M
431.961774826,1,1000,1,1,1,5,2,4,0,3,0,250.0,test,1,M
495.889902115,1,1000,1,1,1,5,2,4,0,3,0,250.0,test,1,M
975.795030594,3,1000,4,1,1,5,2,4,0,3,0,250.0,test,3,M
351.83095932,3,1000,4,1,1,5,2,4,0,3,0,250.0,test,3,M
303.614854813,3,1000,4,1,1,5,2,4,0,3,0,250.0,test,3,M
527.82702446,4,1000,2,1,1,5,2,4,0,3,0,250.0,test,4,M
688.222885132,5,1000,0,1,1,5,2,4,0,3,0,250.0,test,5,M
751.772880554,4,1000,2,1,1,5,2,4,0,3,0,250.0,test,4,M
399.98292923,4,1000,2,1,1,5,2,4,0,3,0,250.0,test,4,M
655.950069427,3,1000,4,1,1,5,2,4,0,3,0,250.0,test,3,M
592.135190964,5,1000,0,1,1,5,2,4,0,3,0,250.0,test,5,M
448.701143265,3,1000,4,0,1,5,2,4,0,3,0,250.0,test,5,M
544.893026352,4,1000,2,1,1,5,2,4,0,3,0,250.0,test,4,M
592.029809952,1,1000,1,1,1,5,2,4,0,3,0,250.0,test,1,M
464.103937149,4,1000,2,1,1,5,2,4,0,3,0,250.0,test,4,M
575.986862183,0,1000,5,1,1,5,2,4,0,3,0,250.0,test,0,M
320.822954178,0,1000,5,1,1,5,2,4,0,3,0,250.0,test,0,M
543.874979019,3,1000,4,1,1,5,2,4,0,3,0,250.0,test,3,M
368.764162064,3,1000,4,1,1,5,2,4,0,3,0,250.0,test,3,M
480.673074722,4,1000,2,1,1,5,2,4,0,3,0,250.0,test,4,M
352.81586647,4,1000,2,1,1,5,2,4,0,3,0,250.0,test,4,M
511.409044266,0,1000,5,1,1,5,2,4,0,3,0,250.0,test,0,M
384.743928909,1,1000,1,1,1,5,2,4,0,3,0,250.0,test,1,M
335.474014282,3,1000,4,0,1,5,2,4,0,3,0,250.0,test,1,M
496.886014938,4,1000,2,1,1,5,2,4,0,3,0,250.0,test,4,M
431.902885437,4,1000,2,1,1,5,2,4,0,3,0,250.0,test,4,M
527.939081192,3,1000,4,1,1,5,2,4,0,3,0,250.0,test,3,M
576.265096664,0,1000,5,1,1,5,2,4,0,3,0,250.0,test,0,M
351.907968521,0,1000,5,1,1,5,2,4,0,3,0,250.0,test,0,M
752.398014069,3,1000,4,1,1,5,2,4,0,3,0,250.0,test,3,M
496.312856674,4,1000,2,1,1,5,2,4,0,3,0,250.0,test,4,M
768.885135651,5,1000,0,1,1,5,2,4,0,3,0,250.0,test,5,M
752.895116806,0,1000,5,1,1,5,2,4,0,3,0,250.0,test,0,M
352.129936218,0,1000,5,1,1,5,2,4,0,3,0,250.0,test,0,M
560.842037201,1,1000,1,1,1,5,2,4,0,3,0,250.0,test,1,M
592.534780502,4,1000,2,1,1,5,2,4,0,3,0,250.0,test,4,M
559.799909592,1,1000,1,1,1,5,2,4,0,3,0,250.0,test,1,M
495.585918427,0,1000,5,1,1,5,2,4,0,3,0,250.0,test,0,M
624.400138855,3,1000,4,1,1,5,2,4,0,3,0,250.0,test,3,M
464.432001114,4,1000,2,1,1,5,2,4,0,3,0,250.0,test,4,M
399.815797806,4,1000,2,1,1,5,2,4,0,3,0,250.0,test,4,M
479.941129684,0,1000,5,1,1,5,2,4,0,3,0,250.0,test,0,M
1007.3120594,2,1000,3,1,1,5,2,4,0,3,0,250.0,test,2,M
512.395143509,4,1000,2,1,1,5,2,4,0,3,0,250.0,test,4,M
463.726043701,4,1000,2,1,1,5,2,4,0,3,0,250.0,test,4,M
623.993873596,3,1000,4,1,1,5,2,4,0,3,0,250.0,test,3,M
320.157051086,3,1000,4,1,1,5,2,4,0,3,0,250.0,test,3,M
400.07185936,3,1000,4,1,1,5,2,4,0,3,0,250.0,test,3,M
624.792098999,5,1000,0,1,1,5,2,4,0,3,0,250.0,test,5,M
463.819026947,5,1000,0,1,1,5,2,4,0,3,0,250.0,test,5,M
288.330078125,5,1000,0,1,1,5,2,4,0,3,0,250.0,test,5,M
592.288970947,0,1000,5,1,1,5,2,4,0,3,0,250.0,test,0,M
320.327043533,0,1000,5,1,1,5,2,4,0,3,0,250.0,test,0,M
544.42691803,3,1000,4,1,1,5,2,4,0,3,0,250.0,test,3,M
384.484052658,3,1000,4,1,1,5,2,4,0,3,0,250.0,test,3,M
576.42698288,0,1000,5,1,1,5,2,4,0,3,0,250.0,test,0,M
496.086835861,1,1000,1,1,1,5,2,4,0,3,0,250.0,test,1,M
528.73301506,3,1000,4,1,1,5,2,4,0,3,0,250.0,test,3,M
336.982965469,3,1000,4,1,1,5,2,4,0,3,0,250.0,test,3,M
704.80799675,5,1000,0,1,1,5,2,4,0,3,0,250.0,test,5,M
720.809936523,2,1000,3,1,1,5,2,4,0,3,0,250.0,test,2,M
575.98400116,0,1000,5,1,1,5,2,4,0,3,0,250.0,test,0,M
464.771986008,1,1000,1,1,1,5,2,4,0,3,0,250.0,test,1,M
496.828079224,4,1000,2,1,1,5,2,4,0,3,0,250.0,test,4,M
512.705087662,4,1000,2,1,1,5,2,4,0,3,0,250.0,test,4,M
896.895885468,1,1000,1,1,1,5,2,4,0,3,0,250.0,test,1,M
528.71799469,3,1000,4,1,1,5,2,4,0,3,0,250.0,test,3,M
671.745061874,2,1000,3,1,1,5,2,4,0,3,0,250.0,test,2,M
560.123920441,4,1000,2,1,1,5,2,4,0,3,0,250.0,test,4,M
544.83795166,0,1000,5,1,1,5,2,4,0,3,0,250.0,test,0,M
1023.88286591,5,1000,0,1,1,5,2,4,0,3,0,250.0,test,5,M
496.845960617,1,1000,1,1,1,5,2,4,0,3,0,250.0,test,1,M
464.056015015,4,1000,2,1,1,5,2,4,0,3,0,250.0,test,4,M
559.960842133,1,1000,1,1,1,5,2,4,0,3,0,250.0,test,1,M
383.713006973,1,1000,1,1,1,5,2,4,0,3,0,250.0,test,1,M
704.077959061,2,1000,3,1,1,5,2,4,0,3,0,250.0,test,2,M
559.683799744,5,1000,0,1,1,5,2,4,0,3,0,250.0,test,5,M
559.967041016,3,1000,4,1,1,5,2,4,0,3,0,250.0,test,3,M
560.740947723,0,1000,5,1,1,5,2,4,0,3,0,250.0,test,0,M
528.804063797,4,1000,2,1,1,5,2,4,0,3,0,250.0,test,4,M
544.38495636,5,1000,0,1,1,5,2,4,0,3,0,250.0,test,5,M
576.262950897,1,1000,1,1,1,5,2,4,0,3,0,250.0,test,1,M
560.45794487,4,1000,2,1,1,5,2,4,0,3,0,250.0,test,4,M
752.390146255,1,1000,1,1,1,5,2,4,0,3,0,250.0,test,1,M
432.40904808,1,1000,1,1,1,5,2,4,0,3,0,250.0,test,1,M
528.413772583,0,1000,5,1,1,5,2,4,0,3,0,250.0,test,0,M
528.470039368,1,1000,1,1,1,5,2,4,0,3,0,250.0,test,1,M
416.486978531,1,1000,1,1,1,5,2,4,0,3,0,250.0,test,1,M
640.420913696,3,1000,4,1,1,5,2,4,0,3,0,250.0,test,3,M
400.367021561,3,1000,4,1,1,5,2,4,0,3,0,250.0,test,3,M
672.477006912,2,1000,3,1,1,5,2,4,0,3,0,250.0,test,2,M
640.403985977,1,1000,1,1,1,5,2,4,0,3,0,250.0,test,1,M
528.429031372,4,1000,2,1,1,5,2,4,0,3,0,250.0,test,4,M
960.560798645,0,1000,5,1,1,5,2,4,0,3,0,250.0,test,0,M
416.3210392,4,1000,2,1,1,5,2,4,0,3,0,250.0,test,4,M
512.429952621,3,1000,4,1,1,5,2,4,0,3,0,250.0,test,3,M
384.426116943,3,1000,4,1,1,5,2,4,0,3,0,250.0,test,3,M
592.424154282,4,1000,2,1,1,5,2,4,0,3,0,250.0,test,4,M
544.492006302,1,1000,1,1,1,5,2,4,0,3,0,250.0,test,1,M
432.474136353,1,1000,1,1,1,5,2,4,0,3,0,250.0,test,1,M
608.45708847,4,1000,2,1,1,5,2,4,0,3,0,250.0,test,4,M
688.357114792,5,1000,0,1,1,5,2,4,0,3,0,250.0,test,5,M
416.421890259,5,1000,0,1,1,5,2,4,0,3,0,250.0,test,5,M
400.382995605,5,1000,0,1,1,5,2,4,0,3,0,250.0,test,5,M
576.297998428,5,1000,0,1,1,5,2,4,0,3,0,250.0,test,5,M
608.484983444,1,1000,1,1,1,5,2,4,0,3,0,250.0,test,1,M
528.323173523,3,1000,4,1,1,5,2,4,0,3,0,250.0,test,3,M
704.329013824,4,1000,2,1,1,5,2,4,0,3,0,250.0,test,4,M
496.505975723,1,1000,1,1,1,5,2,4,0,3,0,250.0,test,1,M
528.376817703,2,1000,3,1,1,5,2,4,0,3,0,250.0,test,2,M
464.457988739,5,1000,0,1,1,5,2,4,0,3,0,250.0,test,5,M
464.339017868,3,1000,4,1,1,5,2,4,0,3,0,250.0,test,3,M
496.421098709,5,1000,0,1,1,5,2,4,0,3,0,250.0,test,5,M
560.351848602,2,1000,3,1,1,5,2,4,0,3,0,250.0,test,2,M
512.356996536,3,1000,4,1,1,5,2,4,0,3,0,250.0,test,3,M
496.27494812,4,1000,2,1,1,5,2,4,0,3,0,250.0,test,4,M
784.514904022,0,1000,5,1,1,5,2,4,0,3,0,250.0,test,0,M
480.469942093,4,1000,2,1,1,5,2,4,0,3,0,250.0,test,4,M
480.475902557,1,1000,1,1,1,5,2,4,0,3,0,250.0,test,1,M
480.259180069,0,1000,5,1,1,5,2,4,0,3,0,250.0,test,0,M
496.423006058,4,1000,2,1,1,5,2,4,0,3,0,250.0,test,4,M
448.156833649,0,1000,5,1,1,5,2,4,0,3,0,250.0,test,0,M
528.822898865,1,1000,1,1,1,5,2,4,0,3,0,250.0,test,1,M
464.833974838,2,1000,3,1,1,5,2,4,0,3,0,250.0,test,2,M
480.139017105,5,1000,0,1,1,5,2,4,0,3,0,250.0,test,5,M
432.860851288,5,1000,0,1,1,5,2,4,0,3,0,250.0,test,5,M
448.212862015,5,1000,0,1,1,5,2,4,0,3,0,250.0,test,5,M
496.233224869,3,1000,4,1,1,5,2,4,0,3,0,250.0,test,3,M
368.813991547,3,1000,4,1,1,5,2,4,0,3,0,250.0,test,3,M
591.935157776,2,1000,3,1,1,5,2,4,0,3,0,250.0,test,2,M
432.854890823,0,1000,5,1,1,5,2,4,0,3,0,250.0,test,0,M
543.560028076,5,1000,0,1,1,5,2,4,0,3,0,250.0,test,5,M
512.818098068,0,1000,5,0,1,5,2,4,0,3,0,250.0,test,2,M
623.752117157,0,1000,5,1,1,5,2,4,0,3,0,250.0,test,0,M
512.017011642,5,1000,0,1,1,5,2,4,0,3,0,250.0,test,5,M
575.960874557,0,1000,5,1,1,5,2,4,0,3,0,250.0,test,0,M
528.046131134,2,1000,3,1,1,5,2,4,0,3,0,250.0,test,2,M
512.758970261,2,1000,3,1,1,5,2,4,0,3,0,250.0,test,2,M
496.762990952,4,1000,2,1,1,5,2,4,0,3,0,250.0,test,4,M
528.45287323,1,1000,1,1,1,5,2,4,0,3,0,250.0,test,1,M
543.982982635,3,1000,4,1,1,5,2,4,0,3,0,250.0,test,3,M
512.319087982,0,1000,5,1,1,5,2,4,0,3,0,250.0,test,0,M
575.485944748,5,1000,0,1,1,5,2,4,0,3,0,250.0,test,5,M
384.75894928,5,1000,0,1,1,5,2,4,0,3,0,250.0,test,5,M
576.08795166,2,1000,3,1,1,5,2,4,0,3,0,250.0,test,2,M
528.781175613,4,1000,2,1,1,5,2,4,0,3,0,250.0,test,4,M
496.163845062,5,1000,0,1,1,5,2,4,0,3,0,250.0,test,5,M
512.760162354,4,1000,2,1,1,5,2,4,0,3,0,250.0,test,4,M
496.037960052,5,1000,0,1,1,5,2,4,0,3,0,250.0,test,5,M
528.830051422,3,1000,4,1,1,5,2,4,0,3,0,250.0,test,3,M
527.956962585,2,1000,3,1,1,5,2,4,0,3,0,250.0,test,2,M
512.841939926,4,1000,2,1,1,5,2,4,0,3,0,250.0,test,4,M
448.021888733,1,1000,1,1,1,5,2,4,0,3,0,250.0,test,1,M
672.825098038,3,1000,4,1,1,5,2,4,0,3,0,250.0,test,3,M
512.07280159,4,1000,2,1,1,5,2,4,0,3,0,250.0,test,4,M
592.824935913,2,1000,3,1,1,5,2,4,0,3,0,250.0,test,2,M
