RT,correct_response,ms-prestimblank,curstim,correct,SRmap_1,SRmap_0,SRmap_3,SRmap_2,SRmap_5,SRmap_4,ms-precue,ntrials,type,response,condition
857.737064362,0,1000,5,1,2,3,1,4,0,5,0,250.0,train,0,M
602.182149887,1,1000,3,1,2,3,1,4,0,5,0,250.0,train,1,M
394.301176071,2,1000,1,1,2,3,1,4,0,5,0,250.0,train,2,M
650.409936905,1,1000,3,1,2,3,1,4,0,5,0,250.0,train,1,M
538.457870483,2,1000,1,1,2,3,1,4,0,5,0,250.0,train,2,M
539.916992188,2,1000,1,1,2,3,1,4,0,5,0,250.0,train,2,M
458.430051804,0,1000,5,1,2,3,1,4,0,5,0,250.0,train,0,M
410.269975662,0,1000,5,1,2,3,1,4,0,5,0,250.0,train,0,M
618.407964706,3,1000,0,1,2,3,1,4,0,5,0,250.0,train,3,M
410.407781601,4,1000,2,1,2,3,1,4,0,5,0,250.0,train,4,M
394.140005112,0,1000,5,1,2,3,1,4,0,5,0,250.0,train,0,M
426.517963409,0,1000,5,1,2,3,1,4,0,5,0,250.0,train,0,M
650.506019592,3,1000,0,1,2,3,1,4,0,5,0,250.0,train,3,M
506.404161453,5,1000,4,1,2,3,1,4,0,5,0,250.0,train,5,M
379.878997803,4,1000,2,1,2,3,1,4,0,5,0,250.0,train,4,M
538.099050522,5,1000,4,1,2,3,1,4,0,5,0,250.0,train,5,M
395.911931992,5,1000,4,1,2,3,1,4,0,5,0,250.0,train,5,M
458.548069,1,1000,3,1,2,3,1,4,0,5,0,250.0,train,1,M
492.032051086,5,1000,4,1,2,3,1,4,0,5,0,250.0,train,5,M
539.978981018,2,1000,1,1,2,3,1,4,0,5,0,250.0,train,2,M
378.399848938,0,1000,5,1,2,3,1,4,0,5,0,250.0,train,0,M
458.484888077,2,1000,1,0,2,3,1,4,0,5,0,250.0,train,1,M
393.73588562,0,1000,5,1,2,3,1,4,0,5,0,250.0,train,0,M
475.2368927,2,1000,1,1,2,3,1,4,0,5,0,250.0,train,2,M
554.469823837,4,1000,2,1,2,3,1,4,0,5,0,250.0,train,4,M
426.516056061,0,1000,5,1,2,3,1,4,0,5,0,250.0,train,0,M
490.531921387,2,1000,1,1,2,3,1,4,0,5,0,250.0,train,2,M
442.51704216,1,1000,3,1,2,3,1,4,0,5,0,250.0,train,1,M
410.54391861,4,1000,2,1,2,3,1,4,0,5,0,250.0,train,4,M
666.529893875,1,1000,3,1,2,3,1,4,0,5,0,250.0,train,1,M
522.380828857,4,1000,2,1,2,3,1,4,0,5,0,250.0,train,4,M
666.315078735,1,1000,3,1,2,3,1,4,0,5,0,250.0,train,1,M
586.383104324,5,1000,4,1,2,3,1,4,0,5,0,250.0,train,5,M
426.48601532,0,1000,5,1,2,3,1,4,0,5,0,250.0,train,0,M
587.364912033,3,1000,0,0,2,3,1,4,0,5,0,250.0,train,5,M
442.312002182,0,1000,5,1,2,3,1,4,0,5,0,250.0,train,0,M
586.475133896,2,1000,1,1,2,3,1,4,0,5,0,250.0,train,2,M
426.383972168,2,1000,1,1,2,3,1,4,0,5,0,250.0,train,2,M
570.321083069,4,1000,2,1,2,3,1,4,0,5,0,250.0,train,4,M
506.371021271,5,1000,4,1,2,3,1,4,0,5,0,250.0,train,5,M
570.316076279,5,1000,4,1,2,3,1,4,0,5,0,250.0,train,5,M
394.351005554,0,1000,5,1,2,3,1,4,0,5,0,250.0,train,0,M
442.446947098,5,1000,4,1,2,3,1,4,0,5,0,250.0,train,5,M
586.400032043,2,1000,1,1,2,3,1,4,0,5,0,250.0,train,2,M
442.430019379,2,1000,1,1,2,3,1,4,0,5,0,250.0,train,2,M
602.472066879,4,1000,2,1,2,3,1,4,0,5,0,250.0,train,4,M
682.437181473,3,1000,0,1,2,3,1,4,0,5,0,250.0,train,3,M
410.21490097,0,1000,5,1,2,3,1,4,0,5,0,250.0,train,0,M
571.923017502,3,1000,0,0,2,3,1,4,0,5,0,250.0,train,4,M
394.530773163,3,1000,0,1,2,3,1,4,0,5,0,250.0,train,3,M
410.320997238,4,1000,2,1,2,3,1,4,0,5,0,250.0,train,4,M
522.459983826,4,1000,2,1,2,3,1,4,0,5,0,250.0,train,4,M
490.468025208,1,1000,3,1,2,3,1,4,0,5,0,250.0,train,1,M
410.520076752,0,1000,5,1,2,3,1,4,0,5,0,250.0,train,0,M
474.509000778,3,1000,0,0,2,3,1,4,0,5,0,250.0,train,2,M
410.574913025,0,1000,5,1,2,3,1,4,0,5,0,250.0,train,0,M
538.568973541,4,1000,2,1,2,3,1,4,0,5,0,250.0,train,4,M
570.4870224,2,1000,1,1,2,3,1,4,0,5,0,250.0,train,2,M
444.018125534,1,1000,3,1,2,3,1,4,0,5,0,250.0,train,1,M
715.81196785,4,1000,2,1,2,3,1,4,0,5,0,250.0,train,4,M
554.342985153,3,1000,0,1,2,3,1,4,0,5,0,250.0,train,3,M
394.342899323,0,1000,5,1,2,3,1,4,0,5,0,250.0,train,0,M
491.271018982,1,1000,3,1,2,3,1,4,0,5,0,250.0,train,1,M
474.354028702,3,1000,0,0,2,3,1,4,0,5,0,250.0,train,4,M
442.320108414,0,1000,5,1,2,3,1,4,0,5,0,250.0,train,0,M
522.347927094,2,1000,1,1,2,3,1,4,0,5,0,250.0,train,2,M
587.713956833,3,1000,0,1,2,3,1,4,0,5,0,250.0,train,3,M
459.20586586,4,1000,2,1,2,3,1,4,0,5,0,250.0,train,4,M
330.441951752,0,1000,5,1,2,3,1,4,0,5,0,250.0,train,0,M
539.863109589,4,1000,2,1,2,3,1,4,0,5,0,250.0,train,4,M
363.950967789,0,1000,5,1,2,3,1,4,0,5,0,250.0,train,0,M
426.272153854,1,1000,3,1,2,3,1,4,0,5,0,250.0,train,1,M
410.327911377,0,1000,5,1,2,3,1,4,0,5,0,250.0,train,0,M
394.454956055,0,1000,5,1,2,3,1,4,0,5,0,250.0,train,0,M
587.209939957,4,1000,2,1,2,3,1,4,0,5,0,250.0,train,4,M
570.536136627,5,1000,4,1,2,3,1,4,0,5,0,250.0,train,5,M
426.466941833,1,1000,3,1,2,3,1,4,0,5,0,250.0,train,1,M
618.46613884,5,1000,4,1,2,3,1,4,0,5,0,250.0,train,5,M
458.453178406,4,1000,2,1,2,3,1,4,0,5,0,250.0,train,4,M
762.512207031,3,1000,0,1,2,3,1,4,0,5,0,250.0,train,3,M
490.435123444,3,1000,0,0,2,3,1,4,0,5,0,250.0,train,4,M
395.336151123,4,1000,2,1,2,3,1,4,0,5,0,250.0,train,4,M
618.499994278,3,1000,0,1,2,3,1,4,0,5,0,250.0,train,3,M
490.5128479,5,1000,4,1,2,3,1,4,0,5,0,250.0,train,5,M
457.896947861,0,1000,5,1,2,3,1,4,0,5,0,250.0,train,0,M
570.146083832,3,1000,0,1,2,3,1,4,0,5,0,250.0,train,3,M
602.443933487,2,1000,1,1,2,3,1,4,0,5,0,250.0,train,2,M
426.495075226,0,1000,5,1,2,3,1,4,0,5,0,250.0,train,0,M
506.359100342,0,1000,5,1,2,3,1,4,0,5,0,250.0,train,0,M
748.049974442,4,1000,2,1,2,3,1,4,0,5,0,250.0,train,4,M
666.334152222,2,1000,1,1,2,3,1,4,0,5,0,250.0,train,2,M
491.858005524,1,1000,3,1,2,3,1,4,0,5,0,250.0,train,1,M
442.332029343,1,1000,3,1,2,3,1,4,0,5,0,250.0,train,1,M
730.406999588,3,1000,0,0,2,3,1,4,0,5,0,250.0,train,2,M
570.364952087,2,1000,1,1,2,3,1,4,0,5,0,250.0,train,2,M
586.431026459,1,1000,3,1,2,3,1,4,0,5,0,250.0,train,1,M
554.347038269,2,1000,1,1,2,3,1,4,0,5,0,250.0,train,2,M
378.371953964,0,1000,5,1,2,3,1,4,0,5,0,250.0,train,0,M
586.520910263,4,1000,2,1,2,3,1,4,0,5,0,250.0,train,4,M
554.389953613,4,1000,2,1,2,3,1,4,0,5,0,250.0,train,4,M
442.353963852,0,1000,5,1,2,3,1,4,0,5,0,250.0,train,0,M
491.231918335,5,1000,4,1,2,3,1,4,0,5,0,250.0,train,5,M
441.898107529,3,1000,0,1,2,3,1,4,0,5,0,250.0,train,3,M
651.23796463,2,1000,1,1,2,3,1,4,0,5,0,250.0,train,2,M
587.876081467,5,1000,4,1,2,3,1,4,0,5,0,250.0,train,5,M
523.160934448,2,1000,1,1,2,3,1,4,0,5,0,250.0,train,2,M
571.884870529,3,1000,0,1,2,3,1,4,0,5,0,250.0,train,3,M
842.528104782,3,1000,0,1,2,3,1,4,0,5,0,250.0,train,3,M
842.485904694,4,1000,2,1,2,3,1,4,0,5,0,250.0,train,4,M
506.483078003,4,1000,2,1,2,3,1,4,0,5,0,250.0,train,4,M
507.223844528,4,1000,2,1,2,3,1,4,0,5,0,250.0,train,4,M
394.248008728,4,1000,2,1,2,3,1,4,0,5,0,250.0,train,4,M
634.503126144,3,1000,0,1,2,3,1,4,0,5,0,250.0,train,3,M
426.524877548,0,1000,5,1,2,3,1,4,0,5,0,250.0,train,0,M
618.484020233,2,1000,1,1,2,3,1,4,0,5,0,250.0,train,2,M
554.495096207,3,1000,0,1,2,3,1,4,0,5,0,250.0,train,3,M
570.533037186,3,1000,0,1,2,3,1,4,0,5,0,250.0,train,3,M
490.433931351,2,1000,1,1,2,3,1,4,0,5,0,250.0,train,2,M
489.151000977,4,1000,2,1,2,3,1,4,0,5,0,250.0,train,4,M
634.448051453,5,1000,4,1,2,3,1,4,0,5,0,250.0,train,5,M
410.474061966,0,1000,5,1,2,3,1,4,0,5,0,250.0,train,0,M
426.382064819,1,1000,3,1,2,3,1,4,0,5,0,250.0,train,1,M
443.306922913,1,1000,3,1,2,3,1,4,0,5,0,250.0,train,1,M
458.35018158,1,1000,3,1,2,3,1,4,0,5,0,250.0,train,1,M
426.782131195,1,1000,3,1,2,3,1,4,0,5,0,250.0,train,1,M
378.361940384,1,1000,3,1,2,3,1,4,0,5,0,250.0,train,1,M
538.460016251,3,1000,0,0,2,3,1,4,0,5,0,250.0,train,2,M
490.440130234,1,1000,3,1,2,3,1,4,0,5,0,250.0,train,1,M
666.482925415,3,1000,0,1,2,3,1,4,0,5,0,250.0,train,3,M
570.358991623,5,1000,4,1,2,3,1,4,0,5,0,250.0,train,5,M
426.455020905,0,1000,5,1,2,3,1,4,0,5,0,250.0,train,0,M
570.383071899,3,1000,0,1,2,3,1,4,0,5,0,250.0,train,3,M
571.187019348,5,1000,4,1,2,3,1,4,0,5,0,250.0,train,5,M
762.341022491,2,1000,1,1,2,3,1,4,0,5,0,250.0,train,2,M
586.380958557,3,1000,0,1,2,3,1,4,0,5,0,250.0,train,3,M
475.178956985,4,1000,2,1,2,3,1,4,0,5,0,250.0,train,4,M
458.451986313,0,1000,5,1,2,3,1,4,0,5,0,250.0,train,0,M
459.245920181,5,1000,4,1,2,3,1,4,0,5,0,250.0,train,5,M
682.543039322,2,1000,1,1,2,3,1,4,0,5,0,250.0,train,2,M
538.574934006,3,1000,0,1,2,3,1,4,0,5,0,250.0,train,3,M
394.492149353,0,1000,5,1,2,3,1,4,0,5,0,250.0,train,0,M
554.563999176,3,1000,0,1,2,3,1,4,0,5,0,250.0,train,3,M
506.56080246,1,1000,3,1,2,3,1,4,0,5,0,250.0,train,1,M
570.595979691,2,1000,1,1,2,3,1,4,0,5,0,250.0,train,2,M
682.492017746,4,1000,2,0,2,3,1,4,0,5,0,250.0,train,3,M
570.495843887,5,1000,4,1,2,3,1,4,0,5,0,250.0,train,5,M
554.547071457,4,1000,2,1,2,3,1,4,0,5,0,250.0,train,4,M
650.480031967,2,1000,1,1,2,3,1,4,0,5,0,250.0,train,2,M
523.908138275,4,1000,2,1,2,3,1,4,0,5,0,250.0,train,4,M
618.43585968,4,1000,2,1,2,3,1,4,0,5,0,250.0,train,4,M
443.008899689,5,1000,4,1,2,3,1,4,0,5,0,250.0,train,5,M
698.447942734,3,1000,0,1,2,3,1,4,0,5,0,250.0,train,3,M
506.431102753,4,1000,2,1,2,3,1,4,0,5,0,250.0,train,4,M
474.42483902,1,1000,3,1,2,3,1,4,0,5,0,250.0,train,1,M
458.284854889,5,1000,4,1,2,3,1,4,0,5,0,250.0,train,5,M
506.475925446,3,1000,0,1,2,3,1,4,0,5,0,250.0,train,3,M
410.333871841,0,1000,5,1,2,3,1,4,0,5,0,250.0,train,0,M
522.427797318,3,1000,0,0,2,3,1,4,0,5,0,250.0,train,4,M
442.402124405,0,1000,5,1,2,3,1,4,0,5,0,250.0,train,0,M
555.109024048,3,1000,0,1,2,3,1,4,0,5,0,250.0,train,3,M
394.43898201,0,1000,5,1,2,3,1,4,0,5,0,250.0,train,0,M
458.209991455,1,1000,3,1,2,3,1,4,0,5,0,250.0,train,1,M
474.351882935,4,1000,2,1,2,3,1,4,0,5,0,250.0,train,4,M
426.335096359,0,1000,5,1,2,3,1,4,0,5,0,250.0,train,0,M
458.400011063,3,1000,0,1,2,3,1,4,0,5,0,250.0,train,3,M
507.838010788,5,1000,4,1,2,3,1,4,0,5,0,250.0,train,5,M
586.490869522,2,1000,1,1,2,3,1,4,0,5,0,250.0,train,2,M
395.229101181,2,1000,1,1,2,3,1,4,0,5,0,250.0,train,2,M
570.500850677,3,1000,0,1,2,3,1,4,0,5,0,250.0,train,3,M
443.203926086,2,1000,1,1,2,3,1,4,0,5,0,250.0,train,2,M
506.505012512,5,1000,4,1,2,3,1,4,0,5,0,250.0,train,5,M
443.214893341,1,1000,3,0,2,3,1,4,0,5,0,250.0,train,3,M
570.529937744,4,1000,2,1,2,3,1,4,0,5,0,250.0,train,4,M
410.524845123,0,1000,5,1,2,3,1,4,0,5,0,250.0,train,0,M
650.592088699,4,1000,2,1,2,3,1,4,0,5,0,250.0,train,4,M
570.580005646,2,1000,1,1,2,3,1,4,0,5,0,250.0,train,2,M
602.550983429,3,1000,0,1,2,3,1,4,0,5,0,250.0,train,3,M
586.492061615,3,1000,0,1,2,3,1,4,0,5,0,250.0,train,3,M
586.5650177,4,1000,2,1,2,3,1,4,0,5,0,250.0,train,4,M
586.60697937,3,1000,0,1,2,3,1,4,0,5,0,250.0,train,3,M
442.692995071,0,1000,5,1,2,3,1,4,0,5,0,250.0,train,0,M
586.479902267,2,1000,1,1,2,3,1,4,0,5,0,250.0,train,2,M
634.418964386,3,1000,0,1,2,3,1,4,0,5,0,250.0,train,3,M
506.301164627,1,1000,3,1,2,3,1,4,0,5,0,250.0,train,1,M
410.379171371,0,1000,5,1,2,3,1,4,0,5,0,250.0,train,0,M
506.415128708,5,1000,4,1,2,3,1,4,0,5,0,250.0,train,5,M
489.120960236,4,1000,2,1,2,3,1,4,0,5,0,250.0,train,4,M
394.505023956,0,1000,5,1,2,3,1,4,0,5,0,250.0,train,0,M
426.516771317,0,1000,5,1,2,3,1,4,0,5,0,250.0,train,0,M
394.279956818,0,1000,5,1,2,3,1,4,0,5,0,250.0,train,0,M
554.371833801,4,1000,2,1,2,3,1,4,0,5,0,250.0,train,4,M
474.456071854,5,1000,4,1,2,3,1,4,0,5,0,250.0,train,5,M
458.455085754,4,1000,2,1,2,3,1,4,0,5,0,250.0,train,4,M
426.375150681,4,1000,2,1,2,3,1,4,0,5,0,250.0,train,4,M
410.416126251,1,1000,3,1,2,3,1,4,0,5,0,250.0,train,1,M
698.475122452,3,1000,0,1,2,3,1,4,0,5,0,250.0,train,3,M
442.456007004,3,1000,0,1,2,3,1,4,0,5,0,250.0,train,3,M
410.48002243,0,1000,5,1,2,3,1,4,0,5,0,250.0,train,0,M
491.956949234,4,1000,2,1,2,3,1,4,0,5,0,250.0,train,4,M
426.460981369,4,1000,2,1,2,3,1,4,0,5,0,250.0,train,4,M
458.410978317,3,1000,0,1,2,3,1,4,0,5,0,250.0,train,3,M
538.516044617,4,1000,2,1,2,3,1,4,0,5,0,250.0,train,4,M
587.914943695,2,1000,1,1,2,3,1,4,0,5,0,250.0,train,2,M
411.900997162,0,1000,5,1,2,3,1,4,0,5,0,250.0,train,0,M
412.048101425,0,1000,5,1,2,3,1,4,0,5,0,250.0,train,0,M
410.58588028,1,1000,3,1,2,3,1,4,0,5,0,250.0,train,1,M
410.583019257,0,1000,5,1,2,3,1,4,0,5,0,250.0,train,0,M
411.856889725,1,1000,3,1,2,3,1,4,0,5,0,250.0,train,1,M
378.289937973,0,1000,5,1,2,3,1,4,0,5,0,250.0,train,0,M
458.570957184,1,1000,3,1,2,3,1,4,0,5,0,250.0,train,1,M
362.468004227,1,1000,3,1,2,3,1,4,0,5,0,250.0,train,1,M
458.515882492,2,1000,1,1,2,3,1,4,0,5,0,250.0,train,2,M
490.488052368,5,1000,4,1,2,3,1,4,0,5,0,250.0,train,5,M
507.396936417,5,1000,4,1,2,3,1,4,0,5,0,250.0,train,5,M
458.527088165,5,1000,4,1,2,3,1,4,0,5,0,250.0,train,5,M
427.374839783,5,1000,4,1,2,3,1,4,0,5,0,250.0,train,5,M
410.601854324,5,1000,4,1,2,3,1,4,0,5,0,250.0,train,5,M
569.920063019,3,1000,0,1,2,3,1,4,0,5,0,250.0,train,3,M
410.554885864,3,1000,0,1,2,3,1,4,0,5,0,250.0,train,3,M
394.482851028,3,1000,0,1,2,3,1,4,0,5,0,250.0,train,3,M
506.343841553,3,1000,0,1,2,3,1,4,0,5,0,250.0,train,3,M
523.397922516,2,1000,1,1,2,3,1,4,0,5,0,250.0,train,2,M
426.465988159,0,1000,5,1,2,3,1,4,0,5,0,250.0,train,0,M
443.393945694,1,1000,3,1,2,3,1,4,0,5,0,250.0,train,1,M
522.380828857,2,1000,1,1,2,3,1,4,0,5,0,250.0,train,2,M
379.287958145,2,1000,1,1,2,3,1,4,0,5,0,250.0,train,2,M
394.478082657,1,1000,3,1,2,3,1,4,0,5,0,250.0,train,1,M
379.424095154,0,1000,5,1,2,3,1,4,0,5,0,250.0,train,0,M
474.400043488,5,1000,4,1,2,3,1,4,0,5,0,250.0,train,5,M
395.304918289,3,1000,0,1,2,3,1,4,0,5,0,250.0,train,3,M
442.327022552,2,1000,1,0,2,3,1,4,0,5,0,250.0,train,3,M
362.339019775,1,1000,3,1,2,3,1,4,0,5,0,250.0,train,1,M
522.474050522,3,1000,0,1,2,3,1,4,0,5,0,250.0,train,3,M
394.387960434,4,1000,2,1,2,3,1,4,0,5,0,250.0,train,4,M
602.425098419,2,1000,1,1,2,3,1,4,0,5,0,250.0,train,2,M
666.504144669,4,1000,2,1,2,3,1,4,0,5,0,250.0,train,4,M
490.39888382,3,1000,0,1,2,3,1,4,0,5,0,250.0,train,3,M
442.46006012,1,1000,3,1,2,3,1,4,0,5,0,250.0,train,1,M
634.449005127,5,1000,4,1,2,3,1,4,0,5,0,250.0,train,5,M
395.962953568,0,1000,5,1,2,3,1,4,0,5,0,250.0,train,0,M
667.006969452,4,1000,2,1,2,3,1,4,0,5,0,250.0,train,4,M
570.573091507,2,1000,1,1,2,3,1,4,0,5,0,250.0,train,2,M
475.902080536,3,1000,0,0,2,3,1,4,0,5,0,250.0,train,4,M
491.243124008,3,1000,0,1,2,3,1,4,0,5,0,250.0,train,3,M
394.558906555,4,1000,2,1,2,3,1,4,0,5,0,250.0,train,4,M
459.120035172,1,1000,3,1,2,3,1,4,0,5,0,250.0,train,1,M
394.499063492,0,1000,5,1,2,3,1,4,0,5,0,250.0,train,0,M
586.452007294,4,1000,2,1,2,3,1,4,0,5,0,250.0,train,4,M
426.530122757,1,1000,3,1,2,3,1,4,0,5,0,250.0,train,1,M
650.538921356,2,1000,1,0,2,3,1,4,0,5,0,250.0,train,1,M
4394.08397675,2,1000,1,1,2,3,1,4,0,5,0,250.0,test,2,M
874.220132828,1,1000,3,1,2,3,1,4,0,5,0,250.0,test,1,M
1402.25100517,5,1000,4,1,2,3,1,4,0,5,0,250.0,test,5,M
570.317983627,5,1000,4,1,2,3,1,4,0,5,0,250.0,test,5,M
698.282003403,1,1000,3,1,2,3,1,4,0,5,0,250.0,test,1,M
698.319911957,2,1000,1,1,2,3,1,4,0,5,0,250.0,test,2,M
1082.33714104,0,1000,5,1,2,3,1,4,0,5,0,250.0,test,0,M
2074.23400879,1,1000,3,1,2,3,1,4,0,5,0,250.0,test,1,M
843.617200851,3,1000,0,1,2,3,1,4,0,5,0,250.0,test,3,M
1194.3089962,2,1000,1,1,2,3,1,4,0,5,0,250.0,test,2,M
681.812047958,2,1000,1,1,2,3,1,4,0,5,0,250.0,test,2,M
539.119958878,0,1000,5,1,2,3,1,4,0,5,0,250.0,test,0,M
730.276107788,2,1000,1,1,2,3,1,4,0,5,0,250.0,test,2,M
554.29983139,1,1000,3,1,2,3,1,4,0,5,0,250.0,test,1,M
1002.34484673,4,1000,2,1,2,3,1,4,0,5,0,250.0,test,4,M
970.276117325,5,1000,4,1,2,3,1,4,0,5,0,250.0,test,5,M
490.247011185,5,1000,4,1,2,3,1,4,0,5,0,250.0,test,5,M
1033.80203247,4,1000,2,1,2,3,1,4,0,5,0,250.0,test,4,M
762.405157089,1,1000,3,1,2,3,1,4,0,5,0,250.0,test,1,M
1338.43803406,5,1000,4,1,2,3,1,4,0,5,0,250.0,test,5,M
475.739955902,5,1000,4,1,2,3,1,4,0,5,0,250.0,test,5,M
603.125810623,1,1000,3,1,2,3,1,4,0,5,0,250.0,test,1,M
506.307125092,0,1000,5,1,2,3,1,4,0,5,0,250.0,test,0,M
986.172914505,5,1000,4,1,2,3,1,4,0,5,0,250.0,test,5,M
874.276161194,4,1000,2,1,2,3,1,4,0,5,0,250.0,test,4,M
1306.32901192,2,1000,1,1,2,3,1,4,0,5,0,250.0,test,2,M
809.777975082,2,1000,1,1,2,3,1,4,0,5,0,250.0,test,2,M
618.306875229,1,1000,3,1,2,3,1,4,0,5,0,250.0,test,1,M
746.323823929,4,1000,2,1,2,3,1,4,0,5,0,250.0,test,4,M
586.333990097,5,1000,4,1,2,3,1,4,0,5,0,250.0,test,5,M
682.299137115,4,1000,2,1,2,3,1,4,0,5,0,250.0,test,4,M
714.245080948,2,1000,1,1,2,3,1,4,0,5,0,250.0,test,2,M
616.642951965,5,1000,4,1,2,3,1,4,0,5,0,250.0,test,5,M
552.971839905,1,1000,3,0,2,3,1,4,0,5,0,250.0,test,0,M
635.81609726,5,1000,4,1,2,3,1,4,0,5,0,250.0,test,5,M
554.550886154,4,1000,2,1,2,3,1,4,0,5,0,250.0,test,4,M
410.360097885,0,1000,5,0,2,3,1,4,0,5,0,250.0,test,1,M
650.324106216,5,1000,4,1,2,3,1,4,0,5,0,250.0,test,5,M
715.188980103,1,1000,3,1,2,3,1,4,0,5,0,250.0,test,1,M
475.786924362,1,1000,3,1,2,3,1,4,0,5,0,250.0,test,1,M
507.661104202,0,1000,5,1,2,3,1,4,0,5,0,250.0,test,0,M
922.334909439,2,1000,1,1,2,3,1,4,0,5,0,250.0,test,2,M
586.03310585,3,1000,0,1,2,3,1,4,0,5,0,250.0,test,3,M
602.319002151,1,1000,3,1,2,3,1,4,0,5,0,250.0,test,1,M
474.296092987,1,1000,3,1,2,3,1,4,0,5,0,250.0,test,1,M
570.28222084,0,1000,5,1,2,3,1,4,0,5,0,250.0,test,0,M
3658.45704079,3,1000,0,1,2,3,1,4,0,5,0,250.0,test,3,M
539.029836655,3,1000,0,1,2,3,1,4,0,5,0,250.0,test,3,M
651.803970337,0,1000,5,0,2,3,1,4,0,5,0,250.0,test,1,M
746.444940567,4,1000,2,1,2,3,1,4,0,5,0,250.0,test,4,M
602.376937866,5,1000,4,1,2,3,1,4,0,5,0,250.0,test,5,M
906.34894371,2,1000,1,1,2,3,1,4,0,5,0,250.0,test,2,M
522.279977798,5,1000,4,1,2,3,1,4,0,5,0,250.0,test,5,M
586.28988266,0,1000,5,1,2,3,1,4,0,5,0,250.0,test,0,M
538.3040905,5,1000,4,1,2,3,1,4,0,5,0,250.0,test,5,M
1722.37586975,3,1000,0,1,2,3,1,4,0,5,0,250.0,test,3,M
570.30415535,5,1000,4,1,2,3,1,4,0,5,0,250.0,test,5,M
650.280952454,5,1000,4,1,2,3,1,4,0,5,0,250.0,test,5,M
842.256069183,3,1000,0,1,2,3,1,4,0,5,0,250.0,test,3,M
443.166017532,3,1000,0,1,2,3,1,4,0,5,0,250.0,test,3,M
714.301109314,0,1000,5,1,2,3,1,4,0,5,0,250.0,test,0,M
810.343980789,5,1000,4,1,2,3,1,4,0,5,0,250.0,test,5,M
746.304035187,5,1000,4,1,2,3,1,4,0,5,0,250.0,test,5,M
394.330024719,5,1000,4,1,2,3,1,4,0,5,0,250.0,test,5,M
394.376039505,5,1000,4,1,2,3,1,4,0,5,0,250.0,test,5,M
650.343894958,4,1000,2,1,2,3,1,4,0,5,0,250.0,test,4,M
810.372829437,2,1000,1,1,2,3,1,4,0,5,0,250.0,test,2,M
618.30997467,0,1000,5,1,2,3,1,4,0,5,0,250.0,test,0,M
650.349140167,3,1000,0,0,2,3,1,4,0,5,0,250.0,test,5,M
586.277008057,4,1000,2,1,2,3,1,4,0,5,0,250.0,test,4,M
570.266962051,4,1000,2,1,2,3,1,4,0,5,0,250.0,test,4,M
586.300134659,0,1000,5,1,2,3,1,4,0,5,0,250.0,test,0,M
778.192043304,1,1000,3,1,2,3,1,4,0,5,0,250.0,test,1,M
490.195989609,1,1000,3,1,2,3,1,4,0,5,0,250.0,test,1,M
506.186008453,5,1000,4,1,2,3,1,4,0,5,0,250.0,test,5,M
506.251811981,4,1000,2,1,2,3,1,4,0,5,0,250.0,test,4,M
586.202144623,5,1000,4,1,2,3,1,4,0,5,0,250.0,test,5,M
570.230007172,1,1000,3,1,2,3,1,4,0,5,0,250.0,test,1,M
570.243120193,3,1000,0,0,2,3,1,4,0,5,0,250.0,test,0,M
522.336959839,0,1000,5,1,2,3,1,4,0,5,0,250.0,test,0,M
474.318981171,0,1000,5,1,2,3,1,4,0,5,0,250.0,test,0,M
1130.33390045,2,1000,1,0,2,3,1,4,0,5,0,250.0,test,3,M
586.316108704,5,1000,4,1,2,3,1,4,0,5,0,250.0,test,5,M
666.326999664,4,1000,2,1,2,3,1,4,0,5,0,250.0,test,4,M
1033.10799599,1,1000,3,1,2,3,1,4,0,5,0,250.0,test,1,M
554.282903671,0,1000,5,1,2,3,1,4,0,5,0,250.0,test,0,M
1098.37508202,2,1000,1,1,2,3,1,4,0,5,0,250.0,test,2,M
506.199121475,5,1000,4,1,2,3,1,4,0,5,0,250.0,test,5,M
1115.88001251,3,1000,0,1,2,3,1,4,0,5,0,250.0,test,3,M
538.295984268,2,1000,1,0,2,3,1,4,0,5,0,250.0,test,4,M
411.056995392,3,1000,0,0,2,3,1,4,0,5,0,250.0,test,5,M
954.447984695,2,1000,1,1,2,3,1,4,0,5,0,250.0,test,2,M
682.240962982,1,1000,3,1,2,3,1,4,0,5,0,250.0,test,1,M
731.098890305,2,1000,1,1,2,3,1,4,0,5,0,250.0,test,2,M
826.206922531,3,1000,0,1,2,3,1,4,0,5,0,250.0,test,3,M
506.28900528,5,1000,4,1,2,3,1,4,0,5,0,250.0,test,5,M
458.209991455,3,1000,0,0,2,3,1,4,0,5,0,250.0,test,5,M
810.284137726,2,1000,1,1,2,3,1,4,0,5,0,250.0,test,2,M
1643.15891266,0,1000,5,1,2,3,1,4,0,5,0,250.0,test,0,M
554.327964783,5,1000,4,1,2,3,1,4,0,5,0,250.0,test,5,M
490.212917328,5,1000,4,1,2,3,1,4,0,5,0,250.0,test,5,M
698.305845261,1,1000,3,1,2,3,1,4,0,5,0,250.0,test,1,M
442.198991776,5,1000,4,1,2,3,1,4,0,5,0,250.0,test,5,M
810.260057449,0,1000,5,1,2,3,1,4,0,5,0,250.0,test,0,M
554.313182831,5,1000,4,1,2,3,1,4,0,5,0,250.0,test,5,M
346.212148666,5,1000,4,1,2,3,1,4,0,5,0,250.0,test,5,M
538.130998611,1,1000,3,1,2,3,1,4,0,5,0,250.0,test,1,M
986.309051514,3,1000,0,1,2,3,1,4,0,5,0,250.0,test,3,M
554.324865341,3,1000,0,1,2,3,1,4,0,5,0,250.0,test,3,M
779.284954071,5,1000,4,0,2,3,1,4,0,5,0,250.0,test,3,M
699.81098175,3,1000,0,1,2,3,1,4,0,5,0,250.0,test,3,M
538.26713562,3,1000,0,1,2,3,1,4,0,5,0,250.0,test,3,M
921.732902527,0,1000,5,1,2,3,1,4,0,5,0,250.0,test,0,M
699.14484024,3,1000,0,1,2,3,1,4,0,5,0,250.0,test,3,M
603.698015213,2,1000,1,0,2,3,1,4,0,5,0,250.0,test,4,M
666.318893433,2,1000,1,1,2,3,1,4,0,5,0,250.0,test,2,M
427.078008652,5,1000,4,1,2,3,1,4,0,5,0,250.0,test,5,M
666.241884232,1,1000,3,1,2,3,1,4,0,5,0,250.0,test,1,M
410.305976868,1,1000,3,1,2,3,1,4,0,5,0,250.0,test,1,M
762.272119522,3,1000,0,1,2,3,1,4,0,5,0,250.0,test,3,M
778.341770172,0,1000,5,1,2,3,1,4,0,5,0,250.0,test,0,M
634.317874908,4,1000,2,1,2,3,1,4,0,5,0,250.0,test,4,M
794.325113297,1,1000,3,0,2,3,1,4,0,5,0,250.0,test,0,M
538.317918777,5,1000,4,1,2,3,1,4,0,5,0,250.0,test,5,M
986.307859421,0,1000,5,1,2,3,1,4,0,5,0,250.0,test,0,M
874.392986298,3,1000,0,1,2,3,1,4,0,5,0,250.0,test,3,M
779.764175415,2,1000,1,1,2,3,1,4,0,5,0,250.0,test,2,M
842.321157455,2,1000,1,1,2,3,1,4,0,5,0,250.0,test,2,M
506.203889847,5,1000,4,1,2,3,1,4,0,5,0,250.0,test,5,M
522.276878357,5,1000,4,1,2,3,1,4,0,5,0,250.0,test,5,M
986.232042313,0,1000,5,1,2,3,1,4,0,5,0,250.0,test,0,M
650.228977203,1,1000,3,1,2,3,1,4,0,5,0,250.0,test,1,M
698.287963867,4,1000,2,1,2,3,1,4,0,5,0,250.0,test,4,M
442.173957825,4,1000,2,1,2,3,1,4,0,5,0,250.0,test,4,M
1098.10900688,1,1000,3,1,2,3,1,4,0,5,0,250.0,test,1,M
922.262907028,3,1000,0,1,2,3,1,4,0,5,0,250.0,test,3,M
762.272119522,2,1000,1,1,2,3,1,4,0,5,0,250.0,test,2,M
586.171865463,0,1000,5,1,2,3,1,4,0,5,0,250.0,test,0,M
634.323835373,2,1000,1,1,2,3,1,4,0,5,0,250.0,test,2,M
858.415842056,3,1000,0,1,2,3,1,4,0,5,0,250.0,test,3,M
538.232088089,1,1000,3,1,2,3,1,4,0,5,0,250.0,test,1,M
570.254087448,4,1000,2,0,2,3,1,4,0,5,0,250.0,test,3,M
746.23799324,0,1000,5,1,2,3,1,4,0,5,0,250.0,test,0,M
795.627832413,3,1000,0,1,2,3,1,4,0,5,0,250.0,test,3,M
618.175029755,4,1000,2,1,2,3,1,4,0,5,0,250.0,test,4,M
1018.18108559,0,1000,5,1,2,3,1,4,0,5,0,250.0,test,0,M
698.402881622,2,1000,1,0,2,3,1,4,0,5,0,250.0,test,4,M
987.16378212,0,1000,5,1,2,3,1,4,0,5,0,250.0,test,0,M
537.613153458,4,1000,2,1,2,3,1,4,0,5,0,250.0,test,4,M
554.347038269,5,1000,4,1,2,3,1,4,0,5,0,250.0,test,5,M
746.304035187,1,1000,3,1,2,3,1,4,0,5,0,250.0,test,1,M
874.282836914,2,1000,1,1,2,3,1,4,0,5,0,250.0,test,2,M
666.245937347,1,1000,3,1,2,3,1,4,0,5,0,250.0,test,1,M
571.137905121,1,1000,3,1,2,3,1,4,0,5,0,250.0,test,1,M
778.285980225,2,1000,1,1,2,3,1,4,0,5,0,250.0,test,2,M
1162.32395172,3,1000,0,0,2,3,1,4,0,5,0,250.0,test,4,M
714.317083359,4,1000,2,1,2,3,1,4,0,5,0,250.0,test,4,M
602.189064026,5,1000,4,1,2,3,1,4,0,5,0,250.0,test,5,M
426.264047623,5,1000,4,1,2,3,1,4,0,5,0,250.0,test,5,M
745.001077652,3,1000,0,1,2,3,1,4,0,5,0,250.0,test,3,M
538.295030594,4,1000,2,1,2,3,1,4,0,5,0,250.0,test,4,M
570.139884949,1,1000,3,1,2,3,1,4,0,5,0,250.0,test,1,M
555.783987045,5,1000,4,1,2,3,1,4,0,5,0,250.0,test,5,M
778.23805809,2,1000,1,1,2,3,1,4,0,5,0,250.0,test,2,M
490.37694931,2,1000,1,1,2,3,1,4,0,5,0,250.0,test,2,M
618.236780167,4,1000,2,1,2,3,1,4,0,5,0,250.0,test,4,M
474.331855774,1,1000,3,1,2,3,1,4,0,5,0,250.0,test,1,M
729.215860367,3,1000,0,1,2,3,1,4,0,5,0,250.0,test,3,M
570.267915726,1,1000,3,1,2,3,1,4,0,5,0,250.0,test,1,M
666.408061981,4,1000,2,1,2,3,1,4,0,5,0,250.0,test,4,M
650.842905045,0,1000,5,1,2,3,1,4,0,5,0,250.0,test,0,M
586.374998093,2,1000,1,1,2,3,1,4,0,5,0,250.0,test,2,M
458.328962326,5,1000,4,1,2,3,1,4,0,5,0,250.0,test,5,M
491.826057434,1,1000,3,1,2,3,1,4,0,5,0,250.0,test,1,M
586.356878281,5,1000,4,1,2,3,1,4,0,5,0,250.0,test,5,M
778.353214264,3,1000,0,1,2,3,1,4,0,5,0,250.0,test,3,M
586.340904236,0,1000,5,1,2,3,1,4,0,5,0,250.0,test,0,M
506.34098053,1,1000,3,1,2,3,1,4,0,5,0,250.0,test,1,M
506.186962128,0,1000,5,1,2,3,1,4,0,5,0,250.0,test,0,M
554.342985153,5,1000,4,1,2,3,1,4,0,5,0,250.0,test,5,M
426.203012466,0,1000,5,0,2,3,1,4,0,5,0,250.0,test,1,M
601.994037628,4,1000,2,1,2,3,1,4,0,5,0,250.0,test,4,M
506.283998489,0,1000,5,1,2,3,1,4,0,5,0,250.0,test,0,M
634.33098793,3,1000,0,1,2,3,1,4,0,5,0,250.0,test,3,M
506.307840347,1,1000,3,1,2,3,1,4,0,5,0,250.0,test,1,M
472.899913788,0,1000,5,1,2,3,1,4,0,5,0,250.0,test,0,M
474.277019501,0,1000,5,1,2,3,1,4,0,5,0,250.0,test,0,M
586.405992508,3,1000,0,1,2,3,1,4,0,5,0,250.0,test,3,M
442.305088043,3,1000,0,1,2,3,1,4,0,5,0,250.0,test,3,M
475.112915039,4,1000,2,1,2,3,1,4,0,5,0,250.0,test,4,M
554.331064224,0,1000,5,1,2,3,1,4,0,5,0,250.0,test,0,M
938.297986984,3,1000,0,1,2,3,1,4,0,5,0,250.0,test,3,M
586.271047592,5,1000,4,1,2,3,1,4,0,5,0,250.0,test,5,M
506.15811348,0,1000,5,1,2,3,1,4,0,5,0,250.0,test,0,M
538.243770599,4,1000,2,1,2,3,1,4,0,5,0,250.0,test,4,M
522.198200226,4,1000,2,1,2,3,1,4,0,5,0,250.0,test,4,M
602.216959,2,1000,1,1,2,3,1,4,0,5,0,250.0,test,2,M
872.980117798,1,1000,3,1,2,3,1,4,0,5,0,250.0,test,1,M
602.254867554,5,1000,4,1,2,3,1,4,0,5,0,250.0,test,5,M
522.270917892,1,1000,3,1,2,3,1,4,0,5,0,250.0,test,1,M
1098.29211235,4,1000,2,1,2,3,1,4,0,5,0,250.0,test,4,M
506.327867508,2,1000,1,1,2,3,1,4,0,5,0,250.0,test,2,M
474.204778671,5,1000,4,1,2,3,1,4,0,5,0,250.0,test,5,M
490.324020386,0,1000,5,1,2,3,1,4,0,5,0,250.0,test,0,M
874.139070511,3,1000,0,1,2,3,1,4,0,5,0,250.0,test,3,M
475.900173187,2,1000,1,0,2,3,1,4,0,5,0,250.0,test,4,M
554.356098175,1,1000,3,1,2,3,1,4,0,5,0,250.0,test,1,M
634.19508934,4,1000,2,1,2,3,1,4,0,5,0,250.0,test,4,M
539.782047272,4,1000,2,1,2,3,1,4,0,5,0,250.0,test,4,M
570.283889771,4,1000,2,0,2,3,1,4,0,5,0,250.0,test,3,M
531.143188477,5,1000,4,1,2,3,1,4,0,5,0,250.0,test,5,M
490.216970444,3,1000,0,0,2,3,1,4,0,5,0,250.0,test,0,M
938.338041306,2,1000,1,0,2,3,1,4,0,5,0,250.0,test,4,M
602.24199295,1,1000,3,1,2,3,1,4,0,5,0,250.0,test,1,M
922.291994095,2,1000,1,1,2,3,1,4,0,5,0,250.0,test,2,M
650.251865387,0,1000,5,1,2,3,1,4,0,5,0,250.0,test,0,M
539.739131927,1,1000,3,1,2,3,1,4,0,5,0,250.0,test,1,M
394.268989563,1,1000,3,1,2,3,1,4,0,5,0,250.0,test,1,M
698.365926743,4,1000,2,1,2,3,1,4,0,5,0,250.0,test,4,M
554.378032684,5,1000,4,1,2,3,1,4,0,5,0,250.0,test,5,M
538.372993469,0,1000,5,1,2,3,1,4,0,5,0,250.0,test,0,M
458.28294754,0,1000,5,1,2,3,1,4,0,5,0,250.0,test,0,M
955.144882202,2,1000,1,1,2,3,1,4,0,5,0,250.0,test,2,M
634.307146072,4,1000,2,1,2,3,1,4,0,5,0,250.0,test,4,M
714.97297287,1,1000,3,1,2,3,1,4,0,5,0,250.0,test,1,M
586.19594574,4,1000,2,1,2,3,1,4,0,5,0,250.0,test,4,M
522.186040878,1,1000,3,1,2,3,1,4,0,5,0,250.0,test,1,M
810.326099396,2,1000,1,1,2,3,1,4,0,5,0,250.0,test,2,M
794.254779816,4,1000,2,1,2,3,1,4,0,5,0,250.0,test,4,M
1145.51687241,3,1000,0,1,2,3,1,4,0,5,0,250.0,test,3,M
618.255853653,3,1000,0,1,2,3,1,4,0,5,0,250.0,test,3,M
490.318059921,3,1000,0,1,2,3,1,4,0,5,0,250.0,test,3,M
426.265001297,3,1000,0,1,2,3,1,4,0,5,0,250.0,test,3,M
778.339862823,2,1000,1,1,2,3,1,4,0,5,0,250.0,test,2,M
1194.33116913,5,1000,4,1,2,3,1,4,0,5,0,250.0,test,5,M
426.302194595,5,1000,4,1,2,3,1,4,0,5,0,250.0,test,5,M
667.070150375,4,1000,2,1,2,3,1,4,0,5,0,250.0,test,4,M
762.312889099,4,1000,2,1,2,3,1,4,0,5,0,250.0,test,4,M
458.318948746,5,1000,4,1,2,3,1,4,0,5,0,250.0,test,5,M
795.797109604,1,1000,3,1,2,3,1,4,0,5,0,250.0,test,1,M
666.373968124,1,1000,3,1,2,3,1,4,0,5,0,250.0,test,1,M
1146.38113976,2,1000,1,1,2,3,1,4,0,5,0,250.0,test,2,M
778.349161148,5,1000,4,1,2,3,1,4,0,5,0,250.0,test,5,M
554.324150085,5,1000,4,1,2,3,1,4,0,5,0,250.0,test,5,M
842.266798019,0,1000,5,1,2,3,1,4,0,5,0,250.0,test,0,M
1002.3598671,3,1000,0,1,2,3,1,4,0,5,0,250.0,test,3,M
938.296794891,0,1000,5,1,2,3,1,4,0,5,0,250.0,test,0,M
890.365839005,1,1000,3,0,2,3,1,4,0,5,0,250.0,test,0,M
715.144872665,0,1000,5,1,2,3,1,4,0,5,0,250.0,test,0,M
794.322967529,5,1000,4,1,2,3,1,4,0,5,0,250.0,test,5,M
