RT,correct_response,ms-prestimblank,curstim,correct,SRmap_1,SRmap_0,SRmap_3,SRmap_2,SRmap_5,SRmap_4,ms-precue,ntrials,type,response,condition
1695.96600533,0,1000,2,1,3,1,4,0,5,2,0,250.0,train,0,M
944.319963455,3,1000,1,1,3,1,4,0,5,2,0,250.0,train,3,M
928.339004517,1,1000,0,1,3,1,4,0,5,2,0,250.0,train,1,M
848.42300415,3,1000,1,1,3,1,4,0,5,2,0,250.0,train,3,M
464.303016663,4,1000,3,0,3,1,4,0,5,2,0,250.0,train,3,M
704.874038696,1,1000,0,1,3,1,4,0,5,2,0,250.0,train,1,M
672.397851944,2,1000,4,1,3,1,4,0,5,2,0,250.0,train,2,M
608.36482048,1,1000,0,1,3,1,4,0,5,2,0,250.0,train,1,M
672.92714119,3,1000,1,1,3,1,4,0,5,2,0,250.0,train,3,M
688.395023346,1,1000,0,1,3,1,4,0,5,2,0,250.0,train,1,M
928.546905518,5,1000,5,1,3,1,4,0,5,2,0,250.0,train,5,M
592.400074005,3,1000,1,1,3,1,4,0,5,2,0,250.0,train,3,M
592.382907867,5,1000,5,1,3,1,4,0,5,2,0,250.0,train,5,M
640.345096588,4,1000,3,1,3,1,4,0,5,2,0,250.0,train,4,M
528.784036636,3,1000,1,0,3,1,4,0,5,2,0,250.0,train,2,M
592.899084091,5,1000,5,1,3,1,4,0,5,2,0,250.0,train,5,M
592.432975769,5,1000,5,1,3,1,4,0,5,2,0,250.0,train,5,M
528.55014801,1,1000,0,1,3,1,4,0,5,2,0,250.0,train,1,M
512.408018112,2,1000,4,1,3,1,4,0,5,2,0,250.0,train,2,M
448.392868042,1,1000,0,1,3,1,4,0,5,2,0,250.0,train,1,M
544.368028641,3,1000,1,1,3,1,4,0,5,2,0,250.0,train,3,M
640.434980392,4,1000,3,1,3,1,4,0,5,2,0,250.0,train,4,M
784.478902817,2,1000,4,1,3,1,4,0,5,2,0,250.0,train,2,M
592.25487709,3,1000,1,1,3,1,4,0,5,2,0,250.0,train,3,M
592.283010483,3,1000,1,0,3,1,4,0,5,2,0,250.0,train,2,M
608.269929886,2,1000,4,0,3,1,4,0,5,2,0,250.0,train,1,M
544.349193573,1,1000,0,1,3,1,4,0,5,2,0,250.0,train,1,M
560.798883438,2,1000,4,1,3,1,4,0,5,2,0,250.0,train,2,M
528.269052505,5,1000,5,1,3,1,4,0,5,2,0,250.0,train,5,M
736.527919769,4,1000,3,1,3,1,4,0,5,2,0,250.0,train,4,M
768.442869186,3,1000,1,1,3,1,4,0,5,2,0,250.0,train,3,M
608.521938324,2,1000,4,1,3,1,4,0,5,2,0,250.0,train,2,M
448.570966721,3,1000,1,1,3,1,4,0,5,2,0,250.0,train,3,M
528.411149979,2,1000,4,1,3,1,4,0,5,2,0,250.0,train,2,M
512.42184639,1,1000,0,1,3,1,4,0,5,2,0,250.0,train,1,M
464.395046234,0,1000,2,1,3,1,4,0,5,2,0,250.0,train,0,M
464.405059814,4,1000,3,0,3,1,4,0,5,2,0,250.0,train,3,M
592.315912247,0,1000,2,1,3,1,4,0,5,2,0,250.0,train,0,M
480.41009903,1,1000,0,1,3,1,4,0,5,2,0,250.0,train,1,M
480.438947678,3,1000,1,1,3,1,4,0,5,2,0,250.0,train,3,M
464.450120926,0,1000,2,1,3,1,4,0,5,2,0,250.0,train,0,M
496.406078339,4,1000,3,0,3,1,4,0,5,2,0,250.0,train,3,M
560.33706665,1,1000,0,1,3,1,4,0,5,2,0,250.0,train,1,M
448.519945145,0,1000,2,1,3,1,4,0,5,2,0,250.0,train,0,M
544.523000717,3,1000,1,1,3,1,4,0,5,2,0,250.0,train,3,M
528.578996658,1,1000,0,1,3,1,4,0,5,2,0,250.0,train,1,M
640.507221222,2,1000,4,1,3,1,4,0,5,2,0,250.0,train,2,M
464.560985565,0,1000,2,1,3,1,4,0,5,2,0,250.0,train,0,M
480.935096741,2,1000,4,1,3,1,4,0,5,2,0,250.0,train,2,M
512.568950653,5,1000,5,0,3,1,4,0,5,2,0,250.0,train,3,M
528.352975845,2,1000,4,1,3,1,4,0,5,2,0,250.0,train,2,M
576.869010925,1,1000,0,1,3,1,4,0,5,2,0,250.0,train,1,M
528.535842896,5,1000,5,1,3,1,4,0,5,2,0,250.0,train,5,M
480.450153351,2,1000,4,1,3,1,4,0,5,2,0,250.0,train,2,M
576.516866684,4,1000,3,1,3,1,4,0,5,2,0,250.0,train,4,M
768.520116806,3,1000,1,1,3,1,4,0,5,2,0,250.0,train,3,M
544.513940811,1,1000,0,1,3,1,4,0,5,2,0,250.0,train,1,M
448.508024216,0,1000,2,1,3,1,4,0,5,2,0,250.0,train,0,M
720.567941666,4,1000,3,1,3,1,4,0,5,2,0,250.0,train,4,M
544.442892075,0,1000,2,1,3,1,4,0,5,2,0,250.0,train,0,M
464.440822601,1,1000,0,1,3,1,4,0,5,2,0,250.0,train,1,M
480.382204056,3,1000,1,1,3,1,4,0,5,2,0,250.0,train,3,M
528.311014175,3,1000,1,1,3,1,4,0,5,2,0,250.0,train,3,M
464.383840561,3,1000,1,1,3,1,4,0,5,2,0,250.0,train,3,M
480.375051498,4,1000,3,1,3,1,4,0,5,2,0,250.0,train,4,M
688.48490715,3,1000,1,1,3,1,4,0,5,2,0,250.0,train,3,M
704.378128052,2,1000,4,1,3,1,4,0,5,2,0,250.0,train,2,M
544.373989105,2,1000,4,1,3,1,4,0,5,2,0,250.0,train,2,M
496.397972107,5,1000,5,1,3,1,4,0,5,2,0,250.0,train,5,M
495.630025864,4,1000,3,1,3,1,4,0,5,2,0,250.0,train,4,M
543.687105179,3,1000,1,1,3,1,4,0,5,2,0,250.0,train,3,M
463.623046875,2,1000,4,1,3,1,4,0,5,2,0,250.0,train,2,M
367.640018463,2,1000,4,1,3,1,4,0,5,2,0,250.0,train,2,M
416.082143784,0,1000,2,1,3,1,4,0,5,2,0,250.0,train,0,M
399.790763855,0,1000,2,1,3,1,4,0,5,2,0,250.0,train,0,M
528.9311409,5,1000,5,1,3,1,4,0,5,2,0,250.0,train,5,M
480.471134186,0,1000,2,1,3,1,4,0,5,2,0,250.0,train,0,M
656.324863434,4,1000,3,1,3,1,4,0,5,2,0,250.0,train,4,M
512.477874756,5,1000,5,1,3,1,4,0,5,2,0,250.0,train,5,M
560.553073883,2,1000,4,1,3,1,4,0,5,2,0,250.0,train,2,M
464.545965195,5,1000,5,1,3,1,4,0,5,2,0,250.0,train,5,M
544.53587532,4,1000,3,1,3,1,4,0,5,2,0,250.0,train,4,M
528.53512764,4,1000,3,1,3,1,4,0,5,2,0,250.0,train,4,M
688.480854034,5,1000,5,1,3,1,4,0,5,2,0,250.0,train,5,M
479.954957962,2,1000,4,1,3,1,4,0,5,2,0,250.0,train,2,M
432.452917099,2,1000,4,1,3,1,4,0,5,2,0,250.0,train,2,M
432.964086533,5,1000,5,1,3,1,4,0,5,2,0,250.0,train,5,M
496.551990509,0,1000,2,1,3,1,4,0,5,2,0,250.0,train,0,M
560.882091522,3,1000,1,0,3,1,4,0,5,2,0,250.0,train,4,M
528.491020203,4,1000,3,1,3,1,4,0,5,2,0,250.0,train,4,M
576.503992081,2,1000,4,1,3,1,4,0,5,2,0,250.0,train,2,M
464.51997757,0,1000,2,1,3,1,4,0,5,2,0,250.0,train,0,M
496.446847916,1,1000,0,1,3,1,4,0,5,2,0,250.0,train,1,M
448.509931564,2,1000,4,1,3,1,4,0,5,2,0,250.0,train,2,M
416.528940201,3,1000,1,1,3,1,4,0,5,2,0,250.0,train,3,M
464.474201202,5,1000,5,1,3,1,4,0,5,2,0,250.0,train,5,M
416.464090347,0,1000,2,1,3,1,4,0,5,2,0,250.0,train,0,M
560.503959656,4,1000,3,0,3,1,4,0,5,2,0,250.0,train,5,M
528.474092484,2,1000,4,1,3,1,4,0,5,2,0,250.0,train,2,M
447.901964188,0,1000,2,1,3,1,4,0,5,2,0,250.0,train,0,M
512.479066849,5,1000,5,1,3,1,4,0,5,2,0,250.0,train,5,M
464.481115341,4,1000,3,1,3,1,4,0,5,2,0,250.0,train,4,M
464.415073395,2,1000,4,0,3,1,4,0,5,2,0,250.0,train,1,M
432.343959808,0,1000,2,1,3,1,4,0,5,2,0,250.0,train,0,M
592.375993729,4,1000,3,0,3,1,4,0,5,2,0,250.0,train,5,M
512.769937515,1,1000,0,1,3,1,4,0,5,2,0,250.0,train,1,M
1088.49310875,3,1000,1,1,3,1,4,0,5,2,0,250.0,train,3,M
432.446956635,0,1000,2,1,3,1,4,0,5,2,0,250.0,train,0,M
512.494087219,1,1000,0,1,3,1,4,0,5,2,0,250.0,train,1,M
432.513952255,0,1000,2,1,3,1,4,0,5,2,0,250.0,train,0,M
576.456069946,5,1000,5,1,3,1,4,0,5,2,0,250.0,train,5,M
464.457035065,0,1000,2,1,3,1,4,0,5,2,0,250.0,train,0,M
464.900016785,0,1000,2,1,3,1,4,0,5,2,0,250.0,train,0,M
592.555999756,3,1000,1,1,3,1,4,0,5,2,0,250.0,train,3,M
512.573003769,1,1000,0,1,3,1,4,0,5,2,0,250.0,train,1,M
512.497901917,2,1000,4,1,3,1,4,0,5,2,0,250.0,train,2,M
464.485883713,0,1000,2,1,3,1,4,0,5,2,0,250.0,train,0,M
1584.53202248,4,1000,3,1,3,1,4,0,5,2,0,250.0,train,4,M
576.444864273,2,1000,4,1,3,1,4,0,5,2,0,250.0,train,2,M
992.542028427,4,1000,3,1,3,1,4,0,5,2,0,250.0,train,4,M
544.526100159,4,1000,3,1,3,1,4,0,5,2,0,250.0,train,4,M
576.459884644,3,1000,1,1,3,1,4,0,5,2,0,250.0,train,3,M
464.536905289,3,1000,1,1,3,1,4,0,5,2,0,250.0,train,3,M
528.460025787,4,1000,3,1,3,1,4,0,5,2,0,250.0,train,4,M
544.37994957,4,1000,3,1,3,1,4,0,5,2,0,250.0,train,4,M
416.391849518,4,1000,3,1,3,1,4,0,5,2,0,250.0,train,4,M
400.546073914,4,1000,3,1,3,1,4,0,5,2,0,250.0,train,4,M
464.577913284,0,1000,2,1,3,1,4,0,5,2,0,250.0,train,0,M
496.432065964,5,1000,5,1,3,1,4,0,5,2,0,250.0,train,5,M
464.614152908,2,1000,4,0,3,1,4,0,5,2,0,250.0,train,1,M
640.488862991,2,1000,4,1,3,1,4,0,5,2,0,250.0,train,2,M
496.578931808,3,1000,1,1,3,1,4,0,5,2,0,250.0,train,3,M
464.496850967,5,1000,5,1,3,1,4,0,5,2,0,250.0,train,5,M
864.459991455,0,1000,2,1,3,1,4,0,5,2,0,250.0,train,0,M
512.569904327,5,1000,5,1,3,1,4,0,5,2,0,250.0,train,5,M
576.930999756,4,1000,3,1,3,1,4,0,5,2,0,250.0,train,4,M
432.52491951,4,1000,3,0,3,1,4,0,5,2,0,250.0,train,5,M
544.459104538,5,1000,5,1,3,1,4,0,5,2,0,250.0,train,5,M
432.56521225,5,1000,5,1,3,1,4,0,5,2,0,250.0,train,5,M
688.551902771,2,1000,4,1,3,1,4,0,5,2,0,250.0,train,2,M
544.682979584,4,1000,3,1,3,1,4,0,5,2,0,250.0,train,4,M
832.497835159,3,1000,1,1,3,1,4,0,5,2,0,250.0,train,3,M
448.385000229,3,1000,1,1,3,1,4,0,5,2,0,250.0,train,3,M
496.498823166,5,1000,5,1,3,1,4,0,5,2,0,250.0,train,5,M
672.436952591,4,1000,3,1,3,1,4,0,5,2,0,250.0,train,4,M
576.499938965,5,1000,5,1,3,1,4,0,5,2,0,250.0,train,5,M
496.846199036,3,1000,1,0,3,1,4,0,5,2,0,250.0,train,2,M
672.435998917,4,1000,3,1,3,1,4,0,5,2,0,250.0,train,4,M
688.544034958,3,1000,1,1,3,1,4,0,5,2,0,250.0,train,3,M
640.540122986,2,1000,4,1,3,1,4,0,5,2,0,250.0,train,2,M
592.376947403,3,1000,1,1,3,1,4,0,5,2,0,250.0,train,3,M
576.369047165,2,1000,4,1,3,1,4,0,5,2,0,250.0,train,2,M
624.639034271,1,1000,0,1,3,1,4,0,5,2,0,250.0,train,1,M
608.010053635,3,1000,1,1,3,1,4,0,5,2,0,250.0,train,3,M
544.595003128,3,1000,1,1,3,1,4,0,5,2,0,250.0,train,3,M
560.516119003,1,1000,0,1,3,1,4,0,5,2,0,250.0,train,1,M
560.507059097,5,1000,5,1,3,1,4,0,5,2,0,250.0,train,5,M
560.465097427,0,1000,2,1,3,1,4,0,5,2,0,250.0,train,0,M
576.51591301,2,1000,4,1,3,1,4,0,5,2,0,250.0,train,2,M
544.475078583,5,1000,5,1,3,1,4,0,5,2,0,250.0,train,5,M
544.500112534,2,1000,4,1,3,1,4,0,5,2,0,250.0,train,2,M
480.538129807,0,1000,2,1,3,1,4,0,5,2,0,250.0,train,0,M
560.564994812,4,1000,3,0,3,1,4,0,5,2,0,250.0,train,5,M
576.443910599,4,1000,3,1,3,1,4,0,5,2,0,250.0,train,4,M
464.54501152,0,1000,2,1,3,1,4,0,5,2,0,250.0,train,0,M
448.451042175,0,1000,2,1,3,1,4,0,5,2,0,250.0,train,0,M
480.396986008,1,1000,0,1,3,1,4,0,5,2,0,250.0,train,1,M
592.912912369,4,1000,3,1,3,1,4,0,5,2,0,250.0,train,4,M
560.492992401,2,1000,4,1,3,1,4,0,5,2,0,250.0,train,2,M
624.487876892,5,1000,5,1,3,1,4,0,5,2,0,250.0,train,5,M
624.58896637,2,1000,4,1,3,1,4,0,5,2,0,250.0,train,2,M
528.534173965,4,1000,3,1,3,1,4,0,5,2,0,250.0,train,4,M
576.542139053,1,1000,0,1,3,1,4,0,5,2,0,250.0,train,1,M
864.609956741,3,1000,1,1,3,1,4,0,5,2,0,250.0,train,3,M
464.931964874,0,1000,2,1,3,1,4,0,5,2,0,250.0,train,0,M
544.558048248,4,1000,3,1,3,1,4,0,5,2,0,250.0,train,4,M
576.554059982,3,1000,1,1,3,1,4,0,5,2,0,250.0,train,3,M
688.413858414,1,1000,0,1,3,1,4,0,5,2,0,250.0,train,1,M
512.444972992,4,1000,3,1,3,1,4,0,5,2,0,250.0,train,4,M
624.888896942,4,1000,3,1,3,1,4,0,5,2,0,250.0,train,4,M
592.478990555,1,1000,0,1,3,1,4,0,5,2,0,250.0,train,1,M
496.482849121,2,1000,4,1,3,1,4,0,5,2,0,250.0,train,2,M
528.486013412,1,1000,0,1,3,1,4,0,5,2,0,250.0,train,1,M
464.437007904,2,1000,4,1,3,1,4,0,5,2,0,250.0,train,2,M
496.528148651,5,1000,5,1,3,1,4,0,5,2,0,250.0,train,5,M
480.443954468,0,1000,2,1,3,1,4,0,5,2,0,250.0,train,0,M
496.428012848,1,1000,0,1,3,1,4,0,5,2,0,250.0,train,1,M
544.411897659,4,1000,3,1,3,1,4,0,5,2,0,250.0,train,4,M
480.247020721,0,1000,2,1,3,1,4,0,5,2,0,250.0,train,0,M
608.330011368,3,1000,1,1,3,1,4,0,5,2,0,250.0,train,3,M
496.469974518,0,1000,2,1,3,1,4,0,5,2,0,250.0,train,0,M
560.523986816,2,1000,4,1,3,1,4,0,5,2,0,250.0,train,2,M
480.474948883,0,1000,2,1,3,1,4,0,5,2,0,250.0,train,0,M
720.380067825,1,1000,0,1,3,1,4,0,5,2,0,250.0,train,1,M
560.530185699,1,1000,0,1,3,1,4,0,5,2,0,250.0,train,1,M
784.570932388,1,1000,0,1,3,1,4,0,5,2,0,250.0,train,1,M
608.422040939,2,1000,4,1,3,1,4,0,5,2,0,250.0,train,2,M
640.334129333,4,1000,3,1,3,1,4,0,5,2,0,250.0,train,4,M
480.933904648,0,1000,2,1,3,1,4,0,5,2,0,250.0,train,0,M
496.479034424,1,1000,0,1,3,1,4,0,5,2,0,250.0,train,1,M
624.204158783,4,1000,3,1,3,1,4,0,5,2,0,250.0,train,4,M
528.451919556,3,1000,1,0,3,1,4,0,5,2,0,250.0,train,2,M
608.427047729,5,1000,5,1,3,1,4,0,5,2,0,250.0,train,5,M
592.509031296,4,1000,3,1,3,1,4,0,5,2,0,250.0,train,4,M
1280.48181534,0,1000,2,1,3,1,4,0,5,2,0,250.0,train,0,M
560.381889343,1,1000,0,1,3,1,4,0,5,2,0,250.0,train,1,M
784.878015518,0,1000,2,1,3,1,4,0,5,2,0,250.0,train,0,M
576.508045197,2,1000,4,1,3,1,4,0,5,2,0,250.0,train,2,M
496.397018433,1,1000,0,1,3,1,4,0,5,2,0,250.0,train,1,M
640.498161316,4,1000,3,1,3,1,4,0,5,2,0,250.0,train,4,M
512.612104416,5,1000,5,1,3,1,4,0,5,2,0,250.0,train,5,M
432.960987091,4,1000,3,1,3,1,4,0,5,2,0,250.0,train,4,M
432.52491951,2,1000,4,0,3,1,4,0,5,2,0,250.0,train,1,M
576.47395134,4,1000,3,0,3,1,4,0,5,2,0,250.0,train,5,M
528.477907181,4,1000,3,1,3,1,4,0,5,2,0,250.0,train,4,M
640.590190887,3,1000,1,1,3,1,4,0,5,2,0,250.0,train,3,M
496.514081955,0,1000,2,1,3,1,4,0,5,2,0,250.0,train,0,M
528.521060944,5,1000,5,1,3,1,4,0,5,2,0,250.0,train,5,M
512.490987778,2,1000,4,1,3,1,4,0,5,2,0,250.0,train,2,M
512.877941132,2,1000,4,1,3,1,4,0,5,2,0,250.0,train,2,M
512.544155121,4,1000,3,1,3,1,4,0,5,2,0,250.0,train,4,M
640.464067459,3,1000,1,1,3,1,4,0,5,2,0,250.0,train,3,M
640.422105789,1,1000,0,1,3,1,4,0,5,2,0,250.0,train,1,M
784.508228302,5,1000,5,1,3,1,4,0,5,2,0,250.0,train,5,M
560.535907745,3,1000,1,1,3,1,4,0,5,2,0,250.0,train,3,M
592.356920242,2,1000,4,1,3,1,4,0,5,2,0,250.0,train,2,M
496.922969818,5,1000,5,1,3,1,4,0,5,2,0,250.0,train,5,M
1056.36286736,0,1000,2,1,3,1,4,0,5,2,0,250.0,train,0,M
528.352022171,5,1000,5,1,3,1,4,0,5,2,0,250.0,train,5,M
480.304002762,2,1000,4,1,3,1,4,0,5,2,0,250.0,train,2,M
544.564962387,1,1000,0,1,3,1,4,0,5,2,0,250.0,train,1,M
528.371095657,3,1000,1,1,3,1,4,0,5,2,0,250.0,train,3,M
576.591968536,2,1000,4,1,3,1,4,0,5,2,0,250.0,train,2,M
544.490814209,4,1000,3,0,3,1,4,0,5,2,0,250.0,train,5,M
528.434991837,0,1000,2,1,3,1,4,0,5,2,0,250.0,train,0,M
624.581098557,5,1000,5,1,3,1,4,0,5,2,0,250.0,train,5,M
544.47889328,5,1000,5,1,3,1,4,0,5,2,0,250.0,train,5,M
512.522935867,1,1000,0,1,3,1,4,0,5,2,0,250.0,train,1,M
528.427124023,1,1000,0,1,3,1,4,0,5,2,0,250.0,train,1,M
1120.24593353,3,1000,1,1,3,1,4,0,5,2,0,250.0,train,3,M
608.341932297,1,1000,0,1,3,1,4,0,5,2,0,250.0,train,1,M
528.568029404,3,1000,1,1,3,1,4,0,5,2,0,250.0,train,3,M
496.561050415,5,1000,5,1,3,1,4,0,5,2,0,250.0,train,5,M
496.500968933,2,1000,4,1,3,1,4,0,5,2,0,250.0,train,2,M
464.580059052,1,1000,0,1,3,1,4,0,5,2,0,250.0,train,1,M
496.617078781,5,1000,5,1,3,1,4,0,5,2,0,250.0,train,5,M
544.943809509,3,1000,1,1,3,1,4,0,5,2,0,250.0,train,3,M
496.610164642,1,1000,0,1,3,1,4,0,5,2,0,250.0,train,1,M
464.967012405,2,1000,4,1,3,1,4,0,5,2,0,250.0,train,2,M
480.454921722,5,1000,5,1,3,1,4,0,5,2,0,250.0,train,5,M
5199.93901253,0,1000,2,1,3,1,4,0,5,2,0,250.0,test,0,M
2000.45609474,4,1000,3,1,3,1,4,0,5,2,0,250.0,test,4,M
1248.22592735,3,1000,1,1,3,1,4,0,5,2,0,250.0,test,3,M
2752.37894058,1,1000,0,1,3,1,4,0,5,2,0,250.0,test,1,M
1136.38496399,2,1000,4,1,3,1,4,0,5,2,0,250.0,test,2,M
1200.23608208,2,1000,4,1,3,1,4,0,5,2,0,250.0,test,2,M
1088.50502968,3,1000,1,1,3,1,4,0,5,2,0,250.0,test,3,M
720.375061035,2,1000,4,1,3,1,4,0,5,2,0,250.0,test,2,M
640.203952789,0,1000,2,1,3,1,4,0,5,2,0,250.0,test,0,M
608.73913765,2,1000,4,1,3,1,4,0,5,2,0,250.0,test,2,M
560.370922089,0,1000,2,1,3,1,4,0,5,2,0,250.0,test,0,M
1120.40090561,3,1000,1,1,3,1,4,0,5,2,0,250.0,test,3,M
1088.50383759,4,1000,3,1,3,1,4,0,5,2,0,250.0,test,4,M
496.431827545,5,1000,5,1,3,1,4,0,5,2,0,250.0,test,5,M
544.345855713,2,1000,4,1,3,1,4,0,5,2,0,250.0,test,2,M
768.433094025,4,1000,3,1,3,1,4,0,5,2,0,250.0,test,4,M
672.334909439,4,1000,3,1,3,1,4,0,5,2,0,250.0,test,4,M
544.435977936,5,1000,5,1,3,1,4,0,5,2,0,250.0,test,5,M
464.332103729,4,1000,3,1,3,1,4,0,5,2,0,250.0,test,4,M
656.356096268,2,1000,4,1,3,1,4,0,5,2,0,250.0,test,2,M
992.451190948,3,1000,1,1,3,1,4,0,5,2,0,250.0,test,3,M
496.464967728,5,1000,5,1,3,1,4,0,5,2,0,250.0,test,5,M
896.534919739,3,1000,1,1,3,1,4,0,5,2,0,250.0,test,3,M
576.484203339,2,1000,4,1,3,1,4,0,5,2,0,250.0,test,2,M
639.945983887,3,1000,1,1,3,1,4,0,5,2,0,250.0,test,3,M
512.37988472,0,1000,2,1,3,1,4,0,5,2,0,250.0,test,0,M
576.308012009,4,1000,3,1,3,1,4,0,5,2,0,250.0,test,4,M
576.297998428,3,1000,1,0,3,1,4,0,5,2,0,250.0,test,2,M
528.450965881,0,1000,2,1,3,1,4,0,5,2,0,250.0,test,0,M
1264.31918144,3,1000,1,1,3,1,4,0,5,2,0,250.0,test,3,M
432.526826859,3,1000,1,1,3,1,4,0,5,2,0,250.0,test,3,M
528.437137604,0,1000,2,1,3,1,4,0,5,2,0,250.0,test,0,M
704.516887665,5,1000,5,0,3,1,4,0,5,2,0,250.0,test,4,M
624.408006668,3,1000,1,1,3,1,4,0,5,2,0,250.0,test,3,M
496.448040009,0,1000,2,1,3,1,4,0,5,2,0,250.0,test,0,M
496.41084671,4,1000,3,1,3,1,4,0,5,2,0,250.0,test,4,M
656.376123428,2,1000,4,1,3,1,4,0,5,2,0,250.0,test,2,M
383.898019791,1,1000,0,1,3,1,4,0,5,2,0,250.0,test,1,M
464.53499794,0,1000,2,1,3,1,4,0,5,2,0,250.0,test,0,M
496.887922287,3,1000,1,1,3,1,4,0,5,2,0,250.0,test,3,M
560.27007103,2,1000,4,1,3,1,4,0,5,2,0,250.0,test,2,M
512.25399971,2,1000,4,1,3,1,4,0,5,2,0,250.0,test,2,M
544.355869293,4,1000,3,1,3,1,4,0,5,2,0,250.0,test,4,M
480.443954468,2,1000,4,1,3,1,4,0,5,2,0,250.0,test,2,M
496.466875076,0,1000,2,1,3,1,4,0,5,2,0,250.0,test,0,M
512.243032455,3,1000,1,1,3,1,4,0,5,2,0,250.0,test,3,M
576.349020004,0,1000,2,1,3,1,4,0,5,2,0,250.0,test,0,M
640.286922455,5,1000,5,0,3,1,4,0,5,2,0,250.0,test,4,M
447.93009758,5,1000,5,1,3,1,4,0,5,2,0,250.0,test,5,M
704.475164413,4,1000,3,1,3,1,4,0,5,2,0,250.0,test,4,M
768.357038498,1,1000,0,1,3,1,4,0,5,2,0,250.0,test,1,M
480.41009903,0,1000,2,1,3,1,4,0,5,2,0,250.0,test,0,M
672.313928604,4,1000,3,1,3,1,4,0,5,2,0,250.0,test,4,M
528.709173203,4,1000,3,1,3,1,4,0,5,2,0,250.0,test,4,M
512.358903885,0,1000,2,1,3,1,4,0,5,2,0,250.0,test,0,M
768.551826477,5,1000,5,1,3,1,4,0,5,2,0,250.0,test,5,M
592.323064804,0,1000,2,1,3,1,4,0,5,2,0,250.0,test,0,M
624.361038208,3,1000,1,1,3,1,4,0,5,2,0,250.0,test,3,M
896.464109421,1,1000,0,1,3,1,4,0,5,2,0,250.0,test,1,M
544.435977936,1,1000,0,1,3,1,4,0,5,2,0,250.0,test,1,M
367.905855179,1,1000,0,1,3,1,4,0,5,2,0,250.0,test,1,M
528.317928314,2,1000,4,1,3,1,4,0,5,2,0,250.0,test,2,M
544.281005859,3,1000,1,1,3,1,4,0,5,2,0,250.0,test,3,M
784.462928772,5,1000,5,1,3,1,4,0,5,2,0,250.0,test,5,M
528.415203094,2,1000,4,1,3,1,4,0,5,2,0,250.0,test,2,M
512.439012527,3,1000,1,1,3,1,4,0,5,2,0,250.0,test,3,M
768.440008163,3,1000,1,1,3,1,4,0,5,2,0,250.0,test,3,M
703.955888748,5,1000,5,1,3,1,4,0,5,2,0,250.0,test,5,M
1040.42005539,1,1000,0,1,3,1,4,0,5,2,0,250.0,test,1,M
912.43314743,5,1000,5,1,3,1,4,0,5,2,0,250.0,test,5,M
512.42184639,4,1000,3,1,3,1,4,0,5,2,0,250.0,test,4,M
496.481895447,3,1000,1,1,3,1,4,0,5,2,0,250.0,test,3,M
1216.41016006,1,1000,0,1,3,1,4,0,5,2,0,250.0,test,1,M
560.320138931,2,1000,4,0,3,1,4,0,5,2,0,250.0,test,1,M
560.240983963,0,1000,2,1,3,1,4,0,5,2,0,250.0,test,0,M
623.985052109,2,1000,4,1,3,1,4,0,5,2,0,250.0,test,2,M
544.430971146,1,1000,0,1,3,1,4,0,5,2,0,250.0,test,1,M
544.295072556,0,1000,2,1,3,1,4,0,5,2,0,250.0,test,0,M
592.308998108,5,1000,5,1,3,1,4,0,5,2,0,250.0,test,5,M
784.506797791,4,1000,3,1,3,1,4,0,5,2,0,250.0,test,4,M
640.436172485,1,1000,0,1,3,1,4,0,5,2,0,250.0,test,1,M
592.505931854,2,1000,4,1,3,1,4,0,5,2,0,250.0,test,2,M
656.280994415,4,1000,3,1,3,1,4,0,5,2,0,250.0,test,4,M
464.467048645,4,1000,3,1,3,1,4,0,5,2,0,250.0,test,4,M
480.284929276,2,1000,4,1,3,1,4,0,5,2,0,250.0,test,2,M
559.809923172,1,1000,0,1,3,1,4,0,5,2,0,250.0,test,1,M
432.272911072,1,1000,0,1,3,1,4,0,5,2,0,250.0,test,1,M
448.260068893,1,1000,0,1,3,1,4,0,5,2,0,250.0,test,1,M
400.509119034,1,1000,0,1,3,1,4,0,5,2,0,250.0,test,1,M
512.393951416,4,1000,3,1,3,1,4,0,5,2,0,250.0,test,4,M
624.506950378,5,1000,5,1,3,1,4,0,5,2,0,250.0,test,5,M
560.321092606,0,1000,2,1,3,1,4,0,5,2,0,250.0,test,0,M
704.282999039,0,1000,2,1,3,1,4,0,5,2,0,250.0,test,0,M
640.409946442,1,1000,0,1,3,1,4,0,5,2,0,250.0,test,1,M
480.408906937,0,1000,2,1,3,1,4,0,5,2,0,250.0,test,0,M
608.520030975,4,1000,3,1,3,1,4,0,5,2,0,250.0,test,4,M
496.376991272,4,1000,3,1,3,1,4,0,5,2,0,250.0,test,4,M
527.992010117,1,1000,0,1,3,1,4,0,5,2,0,250.0,test,1,M
480.463027954,4,1000,3,1,3,1,4,0,5,2,0,250.0,test,4,M
544.376134872,3,1000,1,1,3,1,4,0,5,2,0,250.0,test,3,M
592.393159866,2,1000,4,1,3,1,4,0,5,2,0,250.0,test,2,M
592.339992523,2,1000,4,1,3,1,4,0,5,2,0,250.0,test,2,M
496.425867081,0,1000,2,1,3,1,4,0,5,2,0,250.0,test,0,M
416.354894638,0,1000,2,1,3,1,4,0,5,2,0,250.0,test,0,M
544.498205185,4,1000,3,1,3,1,4,0,5,2,0,250.0,test,4,M
496.407032013,1,1000,0,1,3,1,4,0,5,2,0,250.0,test,1,M
463.9980793,4,1000,3,1,3,1,4,0,5,2,0,250.0,test,4,M
576.423168182,2,1000,4,1,3,1,4,0,5,2,0,250.0,test,2,M
464.322090149,3,1000,1,1,3,1,4,0,5,2,0,250.0,test,3,M
1456.45999908,1,1000,0,1,3,1,4,0,5,2,0,250.0,test,1,M
432.393789291,2,1000,4,0,3,1,4,0,5,2,0,250.0,test,1,M
560.297012329,0,1000,2,1,3,1,4,0,5,2,0,250.0,test,0,M
591.918945312,1,1000,0,1,3,1,4,0,5,2,0,250.0,test,1,M
560.396909714,3,1000,1,1,3,1,4,0,5,2,0,250.0,test,3,M
528.281927109,4,1000,3,1,3,1,4,0,5,2,0,250.0,test,4,M
1696.20299339,4,1000,3,1,3,1,4,0,5,2,0,250.0,test,4,M
512.30597496,4,1000,3,1,3,1,4,0,5,2,0,250.0,test,4,M
512.431144714,2,1000,4,1,3,1,4,0,5,2,0,250.0,test,2,M
496.346950531,4,1000,3,1,3,1,4,0,5,2,0,250.0,test,4,M
384.485006332,4,1000,3,1,3,1,4,0,5,2,0,250.0,test,4,M
512.510061264,2,1000,4,1,3,1,4,0,5,2,0,250.0,test,2,M
464.427947998,4,1000,3,1,3,1,4,0,5,2,0,250.0,test,4,M
496.36888504,2,1000,4,1,3,1,4,0,5,2,0,250.0,test,2,M
400.498867035,5,1000,5,0,3,1,4,0,5,2,0,250.0,test,2,M
544.342041016,0,1000,2,1,3,1,4,0,5,2,0,250.0,test,0,M
608.39009285,2,1000,4,1,3,1,4,0,5,2,0,250.0,test,2,M
560.433149338,5,1000,5,1,3,1,4,0,5,2,0,250.0,test,5,M
560.475111008,3,1000,1,1,3,1,4,0,5,2,0,250.0,test,3,M
976.500034332,1,1000,0,1,3,1,4,0,5,2,0,250.0,test,1,M
464.219808578,0,1000,2,1,3,1,4,0,5,2,0,250.0,test,0,M
592.361927032,4,1000,3,1,3,1,4,0,5,2,0,250.0,test,4,M
496.246099472,0,1000,2,1,3,1,4,0,5,2,0,250.0,test,0,M
656.670093536,1,1000,0,1,3,1,4,0,5,2,0,250.0,test,1,M
400.340080261,4,1000,3,1,3,1,4,0,5,2,0,250.0,test,4,M
608.469963074,4,1000,3,1,3,1,4,0,5,2,0,250.0,test,4,M
688.460826874,5,1000,5,1,3,1,4,0,5,2,0,250.0,test,5,M
688.482046127,2,1000,4,1,3,1,4,0,5,2,0,250.0,test,2,M
480.376005173,0,1000,2,1,3,1,4,0,5,2,0,250.0,test,0,M
384.368896484,0,1000,2,1,3,1,4,0,5,2,0,250.0,test,0,M
576.526165009,4,1000,3,1,3,1,4,0,5,2,0,250.0,test,4,M
608.529806137,5,1000,5,1,3,1,4,0,5,2,0,250.0,test,5,M
480.486869812,0,1000,2,1,3,1,4,0,5,2,0,250.0,test,0,M
544.321060181,5,1000,5,1,3,1,4,0,5,2,0,250.0,test,5,M
591.648101807,2,1000,4,1,3,1,4,0,5,2,0,250.0,test,2,M
1168.04480553,2,1000,4,1,3,1,4,0,5,2,0,250.0,test,2,M
624.203920364,5,1000,5,1,3,1,4,0,5,2,0,250.0,test,5,M
480.501890182,0,1000,2,1,3,1,4,0,5,2,0,250.0,test,0,M
800.48584938,1,1000,0,0,3,1,4,0,5,2,0,250.0,test,0,M
672.341108322,1,1000,0,1,3,1,4,0,5,2,0,250.0,test,1,M
560.315847397,2,1000,4,1,3,1,4,0,5,2,0,250.0,test,2,M
480.429172516,1,1000,0,1,3,1,4,0,5,2,0,250.0,test,1,M
480.338096619,0,1000,2,1,3,1,4,0,5,2,0,250.0,test,0,M
592.539072037,5,1000,5,1,3,1,4,0,5,2,0,250.0,test,5,M
560.459852219,3,1000,1,1,3,1,4,0,5,2,0,250.0,test,3,M
544.538021088,3,1000,1,1,3,1,4,0,5,2,0,250.0,test,3,M
560.441017151,2,1000,4,1,3,1,4,0,5,2,0,250.0,test,2,M
496.448993683,4,1000,3,1,3,1,4,0,5,2,0,250.0,test,4,M
512.424945831,5,1000,5,1,3,1,4,0,5,2,0,250.0,test,5,M
495.936870575,5,1000,5,1,3,1,4,0,5,2,0,250.0,test,5,M
528.42092514,0,1000,2,1,3,1,4,0,5,2,0,250.0,test,0,M
768.2929039,2,1000,4,1,3,1,4,0,5,2,0,250.0,test,2,M
576.333999634,2,1000,4,1,3,1,4,0,5,2,0,250.0,test,2,M
512.356042862,0,1000,2,1,3,1,4,0,5,2,0,250.0,test,0,M
400.346040726,0,1000,2,1,3,1,4,0,5,2,0,250.0,test,0,M
528.327941895,2,1000,4,1,3,1,4,0,5,2,0,250.0,test,2,M
432.410955429,2,1000,4,1,3,1,4,0,5,2,0,250.0,test,2,M
592.367172241,1,1000,0,1,3,1,4,0,5,2,0,250.0,test,1,M
591.897964478,0,1000,2,1,3,1,4,0,5,2,0,250.0,test,0,M
528.383970261,5,1000,5,1,3,1,4,0,5,2,0,250.0,test,5,M
560.359954834,3,1000,1,1,3,1,4,0,5,2,0,250.0,test,3,M
608.434200287,5,1000,5,1,3,1,4,0,5,2,0,250.0,test,5,M
608.469009399,1,1000,0,1,3,1,4,0,5,2,0,250.0,test,1,M
544.498920441,5,1000,5,1,3,1,4,0,5,2,0,250.0,test,5,M
448.452949524,0,1000,2,1,3,1,4,0,5,2,0,250.0,test,0,M
464.336156845,2,1000,4,1,3,1,4,0,5,2,0,250.0,test,2,M
992.478132248,1,1000,0,1,3,1,4,0,5,2,0,250.0,test,1,M
576.113939285,3,1000,1,1,3,1,4,0,5,2,0,250.0,test,3,M
479.787826538,0,1000,2,1,3,1,4,0,5,2,0,250.0,test,0,M
432.729959488,0,1000,2,1,3,1,4,0,5,2,0,250.0,test,0,M
560.334920883,1,1000,0,1,3,1,4,0,5,2,0,250.0,test,1,M
704.478025436,4,1000,3,1,3,1,4,0,5,2,0,250.0,test,4,M
784.484863281,4,1000,3,1,3,1,4,0,5,2,0,250.0,test,4,M
576.466083527,3,1000,1,1,3,1,4,0,5,2,0,250.0,test,3,M
528.392076492,5,1000,5,1,3,1,4,0,5,2,0,250.0,test,5,M
512.462854385,2,1000,4,1,3,1,4,0,5,2,0,250.0,test,2,M
416.476011276,4,1000,3,1,3,1,4,0,5,2,0,250.0,test,4,M
448.512077332,3,1000,1,1,3,1,4,0,5,2,0,250.0,test,3,M
448.471069336,4,1000,3,1,3,1,4,0,5,2,0,250.0,test,4,M
448.345899582,0,1000,2,1,3,1,4,0,5,2,0,250.0,test,0,M
432.382106781,0,1000,2,1,3,1,4,0,5,2,0,250.0,test,0,M
511.92688942,2,1000,4,1,3,1,4,0,5,2,0,250.0,test,2,M
431.813001633,0,1000,2,1,3,1,4,0,5,2,0,250.0,test,0,M
544.698953629,2,1000,4,0,3,1,4,0,5,2,0,250.0,test,1,M
496.675014496,0,1000,2,1,3,1,4,0,5,2,0,250.0,test,0,M
544.685125351,1,1000,0,1,3,1,4,0,5,2,0,250.0,test,1,M
720.78204155,1,1000,0,1,3,1,4,0,5,2,0,250.0,test,1,M
656.801939011,2,1000,4,1,3,1,4,0,5,2,0,250.0,test,2,M
528.886795044,4,1000,3,1,3,1,4,0,5,2,0,250.0,test,4,M
432.43098259,0,1000,2,1,3,1,4,0,5,2,0,250.0,test,0,M
608.433008194,1,1000,0,1,3,1,4,0,5,2,0,250.0,test,1,M
496.356964111,0,1000,2,1,3,1,4,0,5,2,0,250.0,test,0,M
592.381954193,4,1000,3,1,3,1,4,0,5,2,0,250.0,test,4,M
768.38684082,1,1000,0,0,3,1,4,0,5,2,0,250.0,test,0,M
800.462961197,5,1000,5,1,3,1,4,0,5,2,0,250.0,test,5,M
528.357982635,3,1000,1,1,3,1,4,0,5,2,0,250.0,test,3,M
528.414011002,1,1000,0,1,3,1,4,0,5,2,0,250.0,test,1,M
448.46200943,0,1000,2,1,3,1,4,0,5,2,0,250.0,test,0,M
528.337955475,1,1000,0,1,3,1,4,0,5,2,0,250.0,test,1,M
544.532060623,2,1000,4,1,3,1,4,0,5,2,0,250.0,test,2,M
624.417066574,2,1000,4,1,3,1,4,0,5,2,0,250.0,test,2,M
672.27602005,1,1000,0,1,3,1,4,0,5,2,0,250.0,test,1,M
528.387784958,0,1000,2,1,3,1,4,0,5,2,0,250.0,test,0,M
832.396030426,1,1000,0,1,3,1,4,0,5,2,0,250.0,test,1,M
576.392889023,5,1000,5,1,3,1,4,0,5,2,0,250.0,test,5,M
416.42999649,0,1000,2,1,3,1,4,0,5,2,0,250.0,test,0,M
640.549898148,2,1000,4,1,3,1,4,0,5,2,0,250.0,test,2,M
608.386039734,3,1000,1,1,3,1,4,0,5,2,0,250.0,test,3,M
752.516031265,1,1000,0,1,3,1,4,0,5,2,0,250.0,test,1,M
608.299016953,1,1000,0,1,3,1,4,0,5,2,0,250.0,test,1,M
495.807170868,0,1000,2,1,3,1,4,0,5,2,0,250.0,test,0,M
400.417089462,0,1000,2,1,3,1,4,0,5,2,0,250.0,test,0,M
592.344999313,5,1000,5,1,3,1,4,0,5,2,0,250.0,test,5,M
496.451854706,3,1000,1,1,3,1,4,0,5,2,0,250.0,test,3,M
464.422941208,0,1000,2,1,3,1,4,0,5,2,0,250.0,test,0,M
384.505987167,0,1000,2,1,3,1,4,0,5,2,0,250.0,test,0,M
528.365135193,3,1000,1,1,3,1,4,0,5,2,0,250.0,test,3,M
447.861909866,0,1000,2,1,3,1,4,0,5,2,0,250.0,test,0,M
624.317169189,4,1000,3,1,3,1,4,0,5,2,0,250.0,test,4,M
544.25406456,1,1000,0,1,3,1,4,0,5,2,0,250.0,test,1,M
512.357950211,0,1000,2,1,3,1,4,0,5,2,0,250.0,test,0,M
448.308944702,0,1000,2,1,3,1,4,0,5,2,0,250.0,test,0,M
368.465900421,0,1000,2,1,3,1,4,0,5,2,0,250.0,test,0,M
464.380025864,4,1000,3,1,3,1,4,0,5,2,0,250.0,test,4,M
608.418941498,1,1000,0,1,3,1,4,0,5,2,0,250.0,test,1,M
640.332937241,1,1000,0,1,3,1,4,0,5,2,0,250.0,test,1,M
544.449090958,3,1000,1,1,3,1,4,0,5,2,0,250.0,test,3,M
544.476032257,1,1000,0,1,3,1,4,0,5,2,0,250.0,test,1,M
512.47215271,4,1000,3,1,3,1,4,0,5,2,0,250.0,test,4,M
400.284051895,4,1000,3,1,3,1,4,0,5,2,0,250.0,test,4,M
512.384176254,5,1000,5,1,3,1,4,0,5,2,0,250.0,test,5,M
528.370857239,3,1000,1,1,3,1,4,0,5,2,0,250.0,test,3,M
560.390949249,5,1000,5,1,3,1,4,0,5,2,0,250.0,test,5,M
496.484041214,3,1000,1,1,3,1,4,0,5,2,0,250.0,test,3,M
480.447053909,5,1000,5,1,3,1,4,0,5,2,0,250.0,test,5,M
464.464902878,3,1000,1,1,3,1,4,0,5,2,0,250.0,test,3,M
512.454032898,0,1000,2,1,3,1,4,0,5,2,0,250.0,test,0,M
544.261932373,2,1000,4,1,3,1,4,0,5,2,0,250.0,test,2,M
464.321136475,1,1000,0,1,3,1,4,0,5,2,0,250.0,test,1,M
560.302019119,5,1000,5,1,3,1,4,0,5,2,0,250.0,test,5,M
464.365005493,4,1000,3,1,3,1,4,0,5,2,0,250.0,test,4,M
