RT,correct_response,ms-prestimblank,curstim,correct,SRmap_1,SRmap_0,SRmap_3,SRmap_2,SRmap_5,SRmap_4,ms-precue,ntrials,type,response,condition
40558.4139824,1,1000,2,1,0,5,3,1,4,2,0,250.0,train,1,M
784.294843674,1,1000,2,1,0,5,3,1,4,2,0,250.0,train,1,M
1168.24293137,2,1000,4,1,0,5,3,1,4,2,0,250.0,train,2,M
1120.35298347,0,1000,1,1,0,5,3,1,4,2,0,250.0,train,0,M
1360.16583443,5,1000,0,1,0,5,3,1,4,2,0,250.0,train,5,M
1263.3960247,3,1000,3,1,0,5,3,1,4,2,0,250.0,train,3,M
927.81996727,4,1000,5,1,0,5,3,1,4,2,0,250.0,train,4,M
832.217931747,5,1000,0,1,0,5,3,1,4,2,0,250.0,train,5,M
720.470905304,4,1000,5,1,0,5,3,1,4,2,0,250.0,train,4,M
768.389940262,5,1000,0,1,0,5,3,1,4,2,0,250.0,train,5,M
832.596063614,2,1000,4,1,0,5,3,1,4,2,0,250.0,train,2,M
752.477884293,1,1000,2,1,0,5,3,1,4,2,0,250.0,train,1,M
736.320018768,2,1000,4,1,0,5,3,1,4,2,0,250.0,train,2,M
752.173900604,5,1000,0,1,0,5,3,1,4,2,0,250.0,train,5,M
640.58804512,1,1000,2,1,0,5,3,1,4,2,0,250.0,train,1,M
688.435077667,4,1000,5,1,0,5,3,1,4,2,0,250.0,train,4,M
640.466928482,0,1000,1,1,0,5,3,1,4,2,0,250.0,train,0,M
512.535095215,1,1000,2,1,0,5,3,1,4,2,0,250.0,train,1,M
864.39704895,3,1000,3,1,0,5,3,1,4,2,0,250.0,train,3,M
624.52507019,4,1000,5,1,0,5,3,1,4,2,0,250.0,train,4,M
816.504001617,1,1000,2,1,0,5,3,1,4,2,0,250.0,train,1,M
528.475046158,2,1000,4,1,0,5,3,1,4,2,0,250.0,train,2,M
768.424034119,1,1000,2,1,0,5,3,1,4,2,0,250.0,train,1,M
672.48916626,1,1000,2,1,0,5,3,1,4,2,0,250.0,train,1,M
496.454000473,2,1000,4,1,0,5,3,1,4,2,0,250.0,train,2,M
608.425855637,4,1000,5,1,0,5,3,1,4,2,0,250.0,train,4,M
608.291149139,1,1000,2,1,0,5,3,1,4,2,0,250.0,train,1,M
496.523141861,1,1000,2,1,0,5,3,1,4,2,0,250.0,train,1,M
512.467861176,0,1000,1,1,0,5,3,1,4,2,0,250.0,train,0,M
848.97685051,5,1000,0,1,0,5,3,1,4,2,0,250.0,train,5,M
608.515977859,1,1000,2,1,0,5,3,1,4,2,0,250.0,train,1,M
976.52888298,3,1000,3,1,0,5,3,1,4,2,0,250.0,train,3,M
592.620849609,2,1000,4,1,0,5,3,1,4,2,0,250.0,train,2,M
704.560995102,5,1000,0,1,0,5,3,1,4,2,0,250.0,train,5,M
592.462778091,5,1000,0,1,0,5,3,1,4,2,0,250.0,train,5,M
544.505834579,0,1000,1,1,0,5,3,1,4,2,0,250.0,train,0,M
528.416156769,0,1000,1,1,0,5,3,1,4,2,0,250.0,train,0,M
496.448993683,0,1000,1,1,0,5,3,1,4,2,0,250.0,train,0,M
720.628976822,5,1000,0,1,0,5,3,1,4,2,0,250.0,train,5,M
800.620794296,3,1000,3,1,0,5,3,1,4,2,0,250.0,train,3,M
592.4949646,3,1000,3,1,0,5,3,1,4,2,0,250.0,train,3,M
832.624912262,2,1000,4,1,0,5,3,1,4,2,0,250.0,train,2,M
752.326965332,3,1000,3,1,0,5,3,1,4,2,0,250.0,train,3,M
576.282024384,0,1000,1,1,0,5,3,1,4,2,0,250.0,train,0,M
544.600009918,2,1000,4,1,0,5,3,1,4,2,0,250.0,train,2,M
1024.28197861,3,1000,3,1,0,5,3,1,4,2,0,250.0,train,3,M
816.462993622,2,1000,4,1,0,5,3,1,4,2,0,250.0,train,2,M
512.099027634,1,1000,2,1,0,5,3,1,4,2,0,250.0,train,1,M
688.892841339,3,1000,3,1,0,5,3,1,4,2,0,250.0,train,3,M
591.917037964,3,1000,3,1,0,5,3,1,4,2,0,250.0,train,3,M
608.416080475,5,1000,0,1,0,5,3,1,4,2,0,250.0,train,5,M
607.560157776,2,1000,4,1,0,5,3,1,4,2,0,250.0,train,2,M
560.539960861,3,1000,3,1,0,5,3,1,4,2,0,250.0,train,3,M
592.410087585,1,1000,2,1,0,5,3,1,4,2,0,250.0,train,1,M
560.404062271,3,1000,3,1,0,5,3,1,4,2,0,250.0,train,3,M
592.487096786,2,1000,4,1,0,5,3,1,4,2,0,250.0,train,2,M
656.483888626,5,1000,0,1,0,5,3,1,4,2,0,250.0,train,5,M
624.496936798,2,1000,4,1,0,5,3,1,4,2,0,250.0,train,2,M
576.534032822,5,1000,0,1,0,5,3,1,4,2,0,250.0,train,5,M
688.616037369,2,1000,4,1,0,5,3,1,4,2,0,250.0,train,2,M
576.342105865,4,1000,5,1,0,5,3,1,4,2,0,250.0,train,4,M
592.478990555,1,1000,2,1,0,5,3,1,4,2,0,250.0,train,1,M
528.491973877,2,1000,4,1,0,5,3,1,4,2,0,250.0,train,2,M
704.19883728,5,1000,0,1,0,5,3,1,4,2,0,250.0,train,5,M
544.39997673,0,1000,1,1,0,5,3,1,4,2,0,250.0,train,0,M
528.223991394,0,1000,1,1,0,5,3,1,4,2,0,250.0,train,0,M
784.514904022,1,1000,2,1,0,5,3,1,4,2,0,250.0,train,1,M
1344.12693977,2,1000,4,1,0,5,3,1,4,2,0,250.0,train,2,M
560.374975204,1,1000,2,1,0,5,3,1,4,2,0,250.0,train,1,M
736.613988876,5,1000,0,1,0,5,3,1,4,2,0,250.0,train,5,M
560.511827469,5,1000,0,1,0,5,3,1,4,2,0,250.0,train,5,M
512.526035309,5,1000,0,1,0,5,3,1,4,2,0,250.0,train,5,M
544.536113739,5,1000,0,1,0,5,3,1,4,2,0,250.0,train,5,M
896.620035172,3,1000,3,1,0,5,3,1,4,2,0,250.0,train,3,M
560.297966003,3,1000,3,1,0,5,3,1,4,2,0,250.0,train,3,M
624.581813812,4,1000,5,1,0,5,3,1,4,2,0,250.0,train,4,M
544.608831406,4,1000,5,1,0,5,3,1,4,2,0,250.0,train,4,M
544.507980347,4,1000,5,1,0,5,3,1,4,2,0,250.0,train,4,M
560.482978821,5,1000,0,1,0,5,3,1,4,2,0,250.0,train,5,M
624.653100967,3,1000,3,1,0,5,3,1,4,2,0,250.0,train,3,M
592.592000961,0,1000,1,1,0,5,3,1,4,2,0,250.0,train,0,M
512.620925903,1,1000,2,1,0,5,3,1,4,2,0,250.0,train,1,M
656.56709671,5,1000,0,1,0,5,3,1,4,2,0,250.0,train,5,M
528.610944748,5,1000,0,1,0,5,3,1,4,2,0,250.0,train,5,M
560.614109039,0,1000,1,1,0,5,3,1,4,2,0,250.0,train,0,M
832.604885101,2,1000,4,1,0,5,3,1,4,2,0,250.0,train,2,M
688.512802124,3,1000,3,1,0,5,3,1,4,2,0,250.0,train,3,M
480.203151703,5,1000,0,1,0,5,3,1,4,2,0,250.0,train,5,M
768.624067307,2,1000,4,1,0,5,3,1,4,2,0,250.0,train,2,M
832.583904266,3,1000,3,1,0,5,3,1,4,2,0,250.0,train,3,M
560.530900955,1,1000,2,1,0,5,3,1,4,2,0,250.0,train,1,M
512.468099594,1,1000,2,1,0,5,3,1,4,2,0,250.0,train,1,M
544.638156891,2,1000,4,1,0,5,3,1,4,2,0,250.0,train,2,M
592.550992966,1,1000,2,1,0,5,3,1,4,2,0,250.0,train,1,M
672.545909882,4,1000,5,1,0,5,3,1,4,2,0,250.0,train,4,M
608.47401619,2,1000,4,1,0,5,3,1,4,2,0,250.0,train,2,M
640.789985657,5,1000,0,1,0,5,3,1,4,2,0,250.0,train,5,M
656.952142715,1,1000,2,1,0,5,3,1,4,2,0,250.0,train,1,M
688.81893158,4,1000,5,1,0,5,3,1,4,2,0,250.0,train,4,M
624.85909462,4,1000,5,1,0,5,3,1,4,2,0,250.0,train,4,M
767.107009888,1,1000,2,1,0,5,3,1,4,2,0,250.0,train,1,M
928.807973862,3,1000,3,1,0,5,3,1,4,2,0,250.0,train,3,M
544.86989975,3,1000,3,1,0,5,3,1,4,2,0,250.0,train,3,M
544.816970825,3,1000,3,1,0,5,3,1,4,2,0,250.0,train,3,M
511.652946472,4,1000,5,1,0,5,3,1,4,2,0,250.0,train,4,M
672.841072083,4,1000,5,1,0,5,3,1,4,2,0,250.0,train,4,M
576.871871948,3,1000,3,1,0,5,3,1,4,2,0,250.0,train,3,M
672.992944717,5,1000,0,1,0,5,3,1,4,2,0,250.0,train,5,M
560.549974442,4,1000,5,1,0,5,3,1,4,2,0,250.0,train,4,M
784.575939178,1,1000,2,1,0,5,3,1,4,2,0,250.0,train,1,M
816.648006439,3,1000,3,1,0,5,3,1,4,2,0,250.0,train,3,M
816.510915756,2,1000,4,1,0,5,3,1,4,2,0,250.0,train,2,M
752.604961395,2,1000,4,1,0,5,3,1,4,2,0,250.0,train,2,M
624.23491478,1,1000,2,1,0,5,3,1,4,2,0,250.0,train,1,M
704.518079758,3,1000,3,1,0,5,3,1,4,2,0,250.0,train,3,M
624.222993851,5,1000,0,1,0,5,3,1,4,2,0,250.0,train,5,M
720.614910126,1,1000,2,1,0,5,3,1,4,2,0,250.0,train,1,M
1168.50399971,4,1000,5,1,0,5,3,1,4,2,0,250.0,train,4,M
672.57809639,5,1000,0,1,0,5,3,1,4,2,0,250.0,train,5,M
592.504024506,1,1000,2,1,0,5,3,1,4,2,0,250.0,train,1,M
560.441970825,5,1000,0,1,0,5,3,1,4,2,0,250.0,train,5,M
560.44793129,5,1000,0,1,0,5,3,1,4,2,0,250.0,train,5,M
560.609102249,5,1000,0,1,0,5,3,1,4,2,0,250.0,train,5,M
688.480854034,3,1000,3,1,0,5,3,1,4,2,0,250.0,train,3,M
592.522859573,4,1000,5,1,0,5,3,1,4,2,0,250.0,train,4,M
576.514005661,5,1000,0,1,0,5,3,1,4,2,0,250.0,train,5,M
640.530109406,4,1000,5,1,0,5,3,1,4,2,0,250.0,train,4,M
640.486001968,2,1000,4,1,0,5,3,1,4,2,0,250.0,train,2,M
496.578931808,1,1000,2,1,0,5,3,1,4,2,0,250.0,train,1,M
672.577142715,0,1000,1,1,0,5,3,1,4,2,0,250.0,train,0,M
624.527931213,0,1000,1,1,0,5,3,1,4,2,0,250.0,train,0,M
544.305086136,0,1000,1,1,0,5,3,1,4,2,0,250.0,train,0,M
944.585800171,4,1000,5,1,0,5,3,1,4,2,0,250.0,train,4,M
576.443910599,4,1000,5,1,0,5,3,1,4,2,0,250.0,train,4,M
848.559141159,2,1000,4,1,0,5,3,1,4,2,0,250.0,train,2,M
576.542854309,1,1000,2,1,0,5,3,1,4,2,0,250.0,train,1,M
688.612937927,4,1000,5,1,0,5,3,1,4,2,0,250.0,train,4,M
688.438892365,3,1000,3,0,0,5,3,1,4,2,0,250.0,train,2,M
1008.34798813,5,1000,0,1,0,5,3,1,4,2,0,250.0,train,5,M
656.518220901,2,1000,4,1,0,5,3,1,4,2,0,250.0,train,2,M
624.542951584,0,1000,1,1,0,5,3,1,4,2,0,250.0,train,0,M
576.554059982,3,1000,3,1,0,5,3,1,4,2,0,250.0,train,3,M
640.519857407,2,1000,4,1,0,5,3,1,4,2,0,250.0,train,2,M
704.531908035,0,1000,1,1,0,5,3,1,4,2,0,250.0,train,0,M
560.570001602,0,1000,1,1,0,5,3,1,4,2,0,250.0,train,0,M
576.324939728,1,1000,2,1,0,5,3,1,4,2,0,250.0,train,1,M
928.54309082,3,1000,3,1,0,5,3,1,4,2,0,250.0,train,3,M
496.445894241,4,1000,5,1,0,5,3,1,4,2,0,250.0,train,4,M
624.231100082,0,1000,1,1,0,5,3,1,4,2,0,250.0,train,0,M
640.487194061,4,1000,5,1,0,5,3,1,4,2,0,250.0,train,4,M
592.3640728,1,1000,2,1,0,5,3,1,4,2,0,250.0,train,1,M
752.516031265,3,1000,3,1,0,5,3,1,4,2,0,250.0,train,3,M
512.454986572,4,1000,5,1,0,5,3,1,4,2,0,250.0,train,4,M
528.486967087,4,1000,5,1,0,5,3,1,4,2,0,250.0,train,4,M
560.299158096,0,1000,1,1,0,5,3,1,4,2,0,250.0,train,0,M
608.47401619,2,1000,4,1,0,5,3,1,4,2,0,250.0,train,2,M
656.395196915,1,1000,2,1,0,5,3,1,4,2,0,250.0,train,1,M
656.625032425,3,1000,3,1,0,5,3,1,4,2,0,250.0,train,3,M
512.490987778,4,1000,5,1,0,5,3,1,4,2,0,250.0,train,4,M
528.532028198,4,1000,5,1,0,5,3,1,4,2,0,250.0,train,4,M
544.588088989,2,1000,4,1,0,5,3,1,4,2,0,250.0,train,2,M
512.4771595,0,1000,1,1,0,5,3,1,4,2,0,250.0,train,0,M
640.472173691,3,1000,3,1,0,5,3,1,4,2,0,250.0,train,3,M
608.433008194,0,1000,1,1,0,5,3,1,4,2,0,250.0,train,0,M
672.470092773,1,1000,2,1,0,5,3,1,4,2,0,250.0,train,1,M
720.275163651,5,1000,0,1,0,5,3,1,4,2,0,250.0,train,5,M
576.495170593,5,1000,0,1,0,5,3,1,4,2,0,250.0,train,5,M
528.524875641,4,1000,5,1,0,5,3,1,4,2,0,250.0,train,4,M
576.537132263,1,1000,2,1,0,5,3,1,4,2,0,250.0,train,1,M
592.181921005,1,1000,2,1,0,5,3,1,4,2,0,250.0,train,1,M
623.617887497,2,1000,4,1,0,5,3,1,4,2,0,250.0,train,2,M
687.644004822,5,1000,0,1,0,5,3,1,4,2,0,250.0,train,5,M
496.272087097,1,1000,2,1,0,5,3,1,4,2,0,250.0,train,1,M
592.700004578,4,1000,5,1,0,5,3,1,4,2,0,250.0,train,4,M
831.545829773,3,1000,3,1,0,5,3,1,4,2,0,250.0,train,3,M
607.661962509,5,1000,0,1,0,5,3,1,4,2,0,250.0,train,5,M
687.792062759,2,1000,4,1,0,5,3,1,4,2,0,250.0,train,2,M
560.163021088,2,1000,4,1,0,5,3,1,4,2,0,250.0,train,2,M
544.163942337,4,1000,5,1,0,5,3,1,4,2,0,250.0,train,4,M
719.812870026,2,1000,4,1,0,5,3,1,4,2,0,250.0,train,2,M
591.418981552,5,1000,0,1,0,5,3,1,4,2,0,250.0,train,5,M
559.940099716,5,1000,0,1,0,5,3,1,4,2,0,250.0,train,5,M
895.668983459,2,1000,4,1,0,5,3,1,4,2,0,250.0,train,2,M
575.721025467,2,1000,4,1,0,5,3,1,4,2,0,250.0,train,2,M
543.677091599,5,1000,0,1,0,5,3,1,4,2,0,250.0,train,5,M
608.988046646,2,1000,4,1,0,5,3,1,4,2,0,250.0,train,2,M
592.578887939,0,1000,1,1,0,5,3,1,4,2,0,250.0,train,0,M
592.489004135,5,1000,0,1,0,5,3,1,4,2,0,250.0,train,5,M
719.846010208,3,1000,3,1,0,5,3,1,4,2,0,250.0,train,3,M
608.489990234,1,1000,2,1,0,5,3,1,4,2,0,250.0,train,1,M
656.069993973,4,1000,5,1,0,5,3,1,4,2,0,250.0,train,4,M
608.491897583,1,1000,2,1,0,5,3,1,4,2,0,250.0,train,1,M
623.795986176,3,1000,3,1,0,5,3,1,4,2,0,250.0,train,3,M
527.575016022,1,1000,2,1,0,5,3,1,4,2,0,250.0,train,1,M
496.243000031,5,1000,0,1,0,5,3,1,4,2,0,250.0,train,5,M
480.444192886,5,1000,0,1,0,5,3,1,4,2,0,250.0,train,5,M
592.391967773,3,1000,3,1,0,5,3,1,4,2,0,250.0,train,3,M
607.759952545,1,1000,2,1,0,5,3,1,4,2,0,250.0,train,1,M
688.210010529,3,1000,3,1,0,5,3,1,4,2,0,250.0,train,3,M
559.746980667,3,1000,3,1,0,5,3,1,4,2,0,250.0,train,3,M
736.263036728,2,1000,4,1,0,5,3,1,4,2,0,250.0,train,2,M
575.633049011,4,1000,5,1,0,5,3,1,4,2,0,250.0,train,4,M
432.289838791,4,1000,5,1,0,5,3,1,4,2,0,250.0,train,4,M
735.944032669,2,1000,4,1,0,5,3,1,4,2,0,250.0,train,2,M
1039.10183907,4,1000,5,1,0,5,3,1,4,2,0,250.0,train,4,M
608.355045319,5,1000,0,1,0,5,3,1,4,2,0,250.0,train,5,M
591.665029526,4,1000,5,1,0,5,3,1,4,2,0,250.0,train,4,M
607.532024384,0,1000,1,1,0,5,3,1,4,2,0,250.0,train,0,M
543.693065643,4,1000,5,1,0,5,3,1,4,2,0,250.0,train,4,M
576.015949249,4,1000,5,1,0,5,3,1,4,2,0,250.0,train,4,M
527.945041656,5,1000,0,1,0,5,3,1,4,2,0,250.0,train,5,M
719.785928726,2,1000,4,1,0,5,3,1,4,2,0,250.0,train,2,M
591.694831848,0,1000,1,1,0,5,3,1,4,2,0,250.0,train,0,M
559.39078331,1,1000,2,1,0,5,3,1,4,2,0,250.0,train,1,M
655.975103378,4,1000,5,1,0,5,3,1,4,2,0,250.0,train,4,M
591.640949249,1,1000,2,1,0,5,3,1,4,2,0,250.0,train,1,M
607.698917389,5,1000,0,1,0,5,3,1,4,2,0,250.0,train,5,M
511.97218895,5,1000,0,1,0,5,3,1,4,2,0,250.0,train,5,M
575.688838959,0,1000,1,1,0,5,3,1,4,2,0,250.0,train,0,M
879.930973053,3,1000,3,1,0,5,3,1,4,2,0,250.0,train,3,M
624.138116837,2,1000,4,1,0,5,3,1,4,2,0,250.0,train,2,M
639.802932739,2,1000,4,1,0,5,3,1,4,2,0,250.0,train,2,M
640.155792236,3,1000,3,1,0,5,3,1,4,2,0,250.0,train,3,M
592.40603447,1,1000,2,1,0,5,3,1,4,2,0,250.0,train,1,M
591.62402153,3,1000,3,1,0,5,3,1,4,2,0,250.0,train,3,M
576.030015945,4,1000,5,1,0,5,3,1,4,2,0,250.0,train,4,M
639.709949493,2,1000,4,1,0,5,3,1,4,2,0,250.0,train,2,M
623.529911041,3,1000,3,1,0,5,3,1,4,2,0,250.0,train,3,M
543.678998947,1,1000,2,1,0,5,3,1,4,2,0,250.0,train,1,M
639.964818954,4,1000,5,1,0,5,3,1,4,2,0,250.0,train,4,M
575.588941574,0,1000,1,1,0,5,3,1,4,2,0,250.0,train,0,M
639.773130417,3,1000,3,1,0,5,3,1,4,2,0,250.0,train,3,M
559.695005417,2,1000,4,1,0,5,3,1,4,2,0,250.0,train,2,M
544.037103653,2,1000,4,1,0,5,3,1,4,2,0,250.0,train,2,M
623.794794083,1,1000,2,1,0,5,3,1,4,2,0,250.0,train,1,M
623.67606163,1,1000,2,1,0,5,3,1,4,2,0,250.0,train,1,M
687.763929367,3,1000,3,1,0,5,3,1,4,2,0,250.0,train,3,M
687.76512146,5,1000,0,1,0,5,3,1,4,2,0,250.0,train,5,M
735.751152039,1,1000,2,1,0,5,3,1,4,2,0,250.0,train,1,M
672.115087509,0,1000,1,1,0,5,3,1,4,2,0,250.0,train,0,M
592.420101166,2,1000,4,1,0,5,3,1,4,2,0,250.0,train,2,M
576.390028,4,1000,5,1,0,5,3,1,4,2,0,250.0,train,4,M
544.327974319,1,1000,2,1,0,5,3,1,4,2,0,250.0,train,1,M
544.83795166,5,1000,0,1,0,5,3,1,4,2,0,250.0,train,5,M
544.295072556,5,1000,0,1,0,5,3,1,4,2,0,250.0,train,5,M
448.881864548,5,1000,0,1,0,5,3,1,4,2,0,250.0,train,5,M
495.610952377,4,1000,5,1,0,5,3,1,4,2,0,250.0,train,4,M
768.838882446,2,1000,4,1,0,5,3,1,4,2,0,250.0,train,2,M
528.29003334,0,1000,1,1,0,5,3,1,4,2,0,250.0,train,0,M
544.870138168,0,1000,1,1,0,5,3,1,4,2,0,250.0,train,0,M
16558.8619709,2,1000,4,1,0,5,3,1,4,2,0,250.0,test,2,M
1344.26999092,1,1000,2,1,0,5,3,1,4,2,0,250.0,test,1,M
1328.41086388,4,1000,5,1,0,5,3,1,4,2,0,250.0,test,4,M
1472.35393524,1,1000,2,1,0,5,3,1,4,2,0,250.0,test,1,M
1632.46393204,0,1000,1,1,0,5,3,1,4,2,0,250.0,test,0,M
1552.32405663,2,1000,4,1,0,5,3,1,4,2,0,250.0,test,2,M
720.286130905,2,1000,4,1,0,5,3,1,4,2,0,250.0,test,2,M
576.38502121,3,1000,3,1,0,5,3,1,4,2,0,250.0,test,3,M
1104.41088676,1,1000,2,1,0,5,3,1,4,2,0,250.0,test,1,M
1392.25888252,0,1000,1,1,0,5,3,1,4,2,0,250.0,test,0,M
1328.45377922,5,1000,0,0,0,5,3,1,4,2,0,250.0,test,4,M
1024.31702614,0,1000,1,1,0,5,3,1,4,2,0,250.0,test,0,M
1712.3298645,2,1000,4,1,0,5,3,1,4,2,0,250.0,test,2,M
1136.46197319,1,1000,2,1,0,5,3,1,4,2,0,250.0,test,1,M
912.461996078,0,1000,1,1,0,5,3,1,4,2,0,250.0,test,0,M
864.466190338,3,1000,3,1,0,5,3,1,4,2,0,250.0,test,3,M
1632.51900673,2,1000,4,1,0,5,3,1,4,2,0,250.0,test,2,M
816.50018692,3,1000,3,1,0,5,3,1,4,2,0,250.0,test,3,M
896.574020386,5,1000,0,1,0,5,3,1,4,2,0,250.0,test,5,M
1536.4420414,5,1000,0,1,0,5,3,1,4,2,0,250.0,test,5,M
1328.0620575,3,1000,3,1,0,5,3,1,4,2,0,250.0,test,3,M
752.424955368,5,1000,0,0,0,5,3,1,4,2,0,250.0,test,4,M
880.099773407,3,1000,3,1,0,5,3,1,4,2,0,250.0,test,3,M
800.446987152,4,1000,5,1,0,5,3,1,4,2,0,250.0,test,4,M
720.514059067,5,1000,0,1,0,5,3,1,4,2,0,250.0,test,5,M
1200.31309128,0,1000,1,1,0,5,3,1,4,2,0,250.0,test,0,M
816.575050354,1,1000,2,1,0,5,3,1,4,2,0,250.0,test,1,M
1328.03106308,2,1000,4,1,0,5,3,1,4,2,0,250.0,test,2,M
1633.10313225,2,1000,4,1,0,5,3,1,4,2,0,250.0,test,2,M
896.447896957,4,1000,5,1,0,5,3,1,4,2,0,250.0,test,4,M
736.212015152,4,1000,5,1,0,5,3,1,4,2,0,250.0,test,4,M
1296.42891884,2,1000,4,1,0,5,3,1,4,2,0,250.0,test,2,M
912.472009659,0,1000,1,1,0,5,3,1,4,2,0,250.0,test,0,M
976.383209229,4,1000,5,1,0,5,3,1,4,2,0,250.0,test,4,M
624.325990677,4,1000,5,1,0,5,3,1,4,2,0,250.0,test,4,M
560.15920639,4,1000,5,1,0,5,3,1,4,2,0,250.0,test,4,M
1232.27500916,1,1000,2,1,0,5,3,1,4,2,0,250.0,test,1,M
832.442998886,3,1000,3,1,0,5,3,1,4,2,0,250.0,test,3,M
1408.46300125,2,1000,4,1,0,5,3,1,4,2,0,250.0,test,2,M
832.429170609,5,1000,0,1,0,5,3,1,4,2,0,250.0,test,5,M
1312.03794479,2,1000,4,1,0,5,3,1,4,2,0,250.0,test,2,M
913.177967072,0,1000,1,1,0,5,3,1,4,2,0,250.0,test,0,M
576.319932938,1,1000,2,1,0,5,3,1,4,2,0,250.0,test,1,M
1088.47689629,2,1000,4,1,0,5,3,1,4,2,0,250.0,test,2,M
928.353786469,0,1000,1,1,0,5,3,1,4,2,0,250.0,test,0,M
1344.37799454,2,1000,4,1,0,5,3,1,4,2,0,250.0,test,2,M
800.425052643,5,1000,0,1,0,5,3,1,4,2,0,250.0,test,5,M
688.256978989,5,1000,0,1,0,5,3,1,4,2,0,250.0,test,5,M
464.317083359,5,1000,0,1,0,5,3,1,4,2,0,250.0,test,5,M
1136.31701469,0,1000,1,1,0,5,3,1,4,2,0,250.0,test,0,M
848.297834396,2,1000,4,1,0,5,3,1,4,2,0,250.0,test,2,M
784.329175949,4,1000,5,1,0,5,3,1,4,2,0,250.0,test,4,M
1376.42097473,1,1000,2,1,0,5,3,1,4,2,0,250.0,test,1,M
1232.89394379,2,1000,4,1,0,5,3,1,4,2,0,250.0,test,2,M
896.341085434,0,1000,1,1,0,5,3,1,4,2,0,250.0,test,0,M
1264.3699646,4,1000,5,1,0,5,3,1,4,2,0,250.0,test,4,M
768.345117569,3,1000,3,1,0,5,3,1,4,2,0,250.0,test,3,M
928.529977798,1,1000,2,1,0,5,3,1,4,2,0,250.0,test,1,M
640.443086624,3,1000,3,1,0,5,3,1,4,2,0,250.0,test,3,M
496.423006058,3,1000,3,1,0,5,3,1,4,2,0,250.0,test,3,M
1200.47497749,0,1000,1,1,0,5,3,1,4,2,0,250.0,test,0,M
736.424922943,1,1000,2,1,0,5,3,1,4,2,0,250.0,test,1,M
640.311002731,2,1000,4,1,0,5,3,1,4,2,0,250.0,test,2,M
481.276035309,2,1000,4,1,0,5,3,1,4,2,0,250.0,test,2,M
464.366912842,2,1000,4,1,0,5,3,1,4,2,0,250.0,test,2,M
480.38315773,2,1000,4,1,0,5,3,1,4,2,0,250.0,test,2,M
751.975059509,4,1000,5,1,0,5,3,1,4,2,0,250.0,test,4,M
688.498973846,3,1000,3,1,0,5,3,1,4,2,0,250.0,test,3,M
816.465139389,2,1000,4,1,0,5,3,1,4,2,0,250.0,test,2,M
992.478132248,1,1000,2,1,0,5,3,1,4,2,0,250.0,test,1,M
832.318067551,4,1000,5,1,0,5,3,1,4,2,0,250.0,test,4,M
928.433895111,1,1000,2,1,0,5,3,1,4,2,0,250.0,test,1,M
704.492807388,0,1000,1,1,0,5,3,1,4,2,0,250.0,test,0,M
512.451887131,0,1000,1,1,0,5,3,1,4,2,0,250.0,test,0,M
864.495992661,4,1000,5,1,0,5,3,1,4,2,0,250.0,test,4,M
736.41705513,0,1000,1,1,0,5,3,1,4,2,0,250.0,test,0,M
816.359996796,2,1000,4,1,0,5,3,1,4,2,0,250.0,test,2,M
480.062007904,2,1000,4,1,0,5,3,1,4,2,0,250.0,test,2,M
720.386981964,4,1000,5,1,0,5,3,1,4,2,0,250.0,test,4,M
912.383079529,0,1000,1,1,0,5,3,1,4,2,0,250.0,test,0,M
528.513908386,1,1000,2,1,0,5,3,1,4,2,0,250.0,test,1,M
672.389030457,2,1000,4,1,0,5,3,1,4,2,0,250.0,test,2,M
640.410900116,3,1000,3,1,0,5,3,1,4,2,0,250.0,test,3,M
784.349918365,3,1000,3,0,0,5,3,1,4,2,0,250.0,test,2,M
960.283041,5,1000,0,1,0,5,3,1,4,2,0,250.0,test,5,M
672.348022461,3,1000,3,1,0,5,3,1,4,2,0,250.0,test,3,M
640.522956848,4,1000,5,1,0,5,3,1,4,2,0,250.0,test,4,M
736.490011215,2,1000,4,1,0,5,3,1,4,2,0,250.0,test,2,M
784.464120865,0,1000,1,1,0,5,3,1,4,2,0,250.0,test,0,M
656.418085098,2,1000,4,1,0,5,3,1,4,2,0,250.0,test,2,M
656.491041183,1,1000,2,1,0,5,3,1,4,2,0,250.0,test,1,M
688.367128372,2,1000,4,1,0,5,3,1,4,2,0,250.0,test,2,M
608.509063721,3,1000,3,1,0,5,3,1,4,2,0,250.0,test,3,M
672.394037247,0,1000,1,1,0,5,3,1,4,2,0,250.0,test,0,M
624.464988708,1,1000,2,1,0,5,3,1,4,2,0,250.0,test,1,M
768.351078033,2,1000,4,1,0,5,3,1,4,2,0,250.0,test,2,M
688.485145569,4,1000,5,1,0,5,3,1,4,2,0,250.0,test,4,M
481.262207031,4,1000,5,1,0,5,3,1,4,2,0,250.0,test,4,M
577.208042145,4,1000,5,1,0,5,3,1,4,2,0,250.0,test,4,M
608.534097672,5,1000,0,1,0,5,3,1,4,2,0,250.0,test,5,M
1040.58003426,1,1000,2,1,0,5,3,1,4,2,0,250.0,test,1,M
816.386938095,5,1000,0,1,0,5,3,1,4,2,0,250.0,test,5,M
624.43614006,2,1000,4,1,0,5,3,1,4,2,0,250.0,test,2,M
592.350959778,4,1000,5,1,0,5,3,1,4,2,0,250.0,test,4,M
704.475879669,0,1000,1,1,0,5,3,1,4,2,0,250.0,test,0,M
576.33805275,1,1000,2,1,0,5,3,1,4,2,0,250.0,test,1,M
656.467914581,4,1000,5,1,0,5,3,1,4,2,0,250.0,test,4,M
528.465986252,5,1000,0,1,0,5,3,1,4,2,0,250.0,test,5,M
704.334974289,0,1000,1,1,0,5,3,1,4,2,0,250.0,test,0,M
640.460014343,0,1000,1,1,0,5,3,1,4,2,0,250.0,test,0,M
688.349962234,3,1000,3,1,0,5,3,1,4,2,0,250.0,test,3,M
736.355066299,3,1000,3,1,0,5,3,1,4,2,0,250.0,test,3,M
672.472000122,0,1000,1,1,0,5,3,1,4,2,0,250.0,test,0,M
640.40184021,5,1000,0,1,0,5,3,1,4,2,0,250.0,test,5,M
672.398805618,3,1000,3,1,0,5,3,1,4,2,0,250.0,test,3,M
1280.33208847,1,1000,2,1,0,5,3,1,4,2,0,250.0,test,1,M
640.40184021,0,1000,1,1,0,5,3,1,4,2,0,250.0,test,0,M
656.337976456,3,1000,3,1,0,5,3,1,4,2,0,250.0,test,3,M
736.284971237,2,1000,4,1,0,5,3,1,4,2,0,250.0,test,2,M
576.421022415,4,1000,5,1,0,5,3,1,4,2,0,250.0,test,4,M
608.424901962,0,1000,1,1,0,5,3,1,4,2,0,250.0,test,0,M
880.392074585,0,1000,1,1,0,5,3,1,4,2,0,250.0,test,0,M
608.258962631,0,1000,1,1,0,5,3,1,4,2,0,250.0,test,0,M
864.855051041,2,1000,4,1,0,5,3,1,4,2,0,250.0,test,2,M
1056.74910545,1,1000,2,1,0,5,3,1,4,2,0,250.0,test,1,M
799.925804138,5,1000,0,1,0,5,3,1,4,2,0,250.0,test,5,M
720.386981964,2,1000,4,1,0,5,3,1,4,2,0,250.0,test,2,M
656.450986862,5,1000,0,1,0,5,3,1,4,2,0,250.0,test,5,M
624.063968658,0,1000,1,1,0,5,3,1,4,2,0,250.0,test,0,M
624.358892441,5,1000,0,1,0,5,3,1,4,2,0,250.0,test,5,M
656.471967697,1,1000,2,0,0,5,3,1,4,2,0,250.0,test,0,M
992.350101471,4,1000,5,1,0,5,3,1,4,2,0,250.0,test,4,M
1056.5199852,2,1000,4,1,0,5,3,1,4,2,0,250.0,test,2,M
656.476020813,4,1000,5,1,0,5,3,1,4,2,0,250.0,test,4,M
640.758991241,5,1000,0,1,0,5,3,1,4,2,0,250.0,test,5,M
640.290975571,5,1000,0,1,0,5,3,1,4,2,0,250.0,test,5,M
767.76099205,2,1000,4,1,0,5,3,1,4,2,0,250.0,test,2,M
640.021085739,4,1000,5,1,0,5,3,1,4,2,0,250.0,test,4,M
864.43901062,1,1000,2,1,0,5,3,1,4,2,0,250.0,test,1,M
736.289978027,2,1000,4,1,0,5,3,1,4,2,0,250.0,test,2,M
688.003063202,0,1000,1,1,0,5,3,1,4,2,0,250.0,test,0,M
640.426158905,0,1000,1,1,0,5,3,1,4,2,0,250.0,test,0,M
688.524961472,1,1000,2,1,0,5,3,1,4,2,0,250.0,test,1,M
752.413988113,5,1000,0,1,0,5,3,1,4,2,0,250.0,test,5,M
639.855146408,0,1000,1,1,0,5,3,1,4,2,0,250.0,test,0,M
687.973022461,1,1000,2,1,0,5,3,1,4,2,0,250.0,test,1,M
704.05292511,2,1000,4,1,0,5,3,1,4,2,0,250.0,test,2,M
704.022884369,4,1000,5,1,0,5,3,1,4,2,0,250.0,test,4,M
703.784942627,0,1000,1,1,0,5,3,1,4,2,0,250.0,test,0,M
688.976049423,3,1000,3,1,0,5,3,1,4,2,0,250.0,test,3,M
752.793073654,1,1000,2,1,0,5,3,1,4,2,0,250.0,test,1,M
848.745822906,2,1000,4,1,0,5,3,1,4,2,0,250.0,test,2,M
736.794948578,4,1000,5,1,0,5,3,1,4,2,0,250.0,test,4,M
528.703927994,4,1000,5,1,0,5,3,1,4,2,0,250.0,test,4,M
784.810066223,2,1000,4,1,0,5,3,1,4,2,0,250.0,test,2,M
816.704034805,5,1000,0,1,0,5,3,1,4,2,0,250.0,test,5,M
784.799814224,1,1000,2,1,0,5,3,1,4,2,0,250.0,test,1,M
752.604961395,3,1000,3,1,0,5,3,1,4,2,0,250.0,test,3,M
880.451917648,0,1000,1,1,0,5,3,1,4,2,0,250.0,test,0,M
880.358934402,2,1000,4,1,0,5,3,1,4,2,0,250.0,test,2,M
688.33398819,4,1000,5,1,0,5,3,1,4,2,0,250.0,test,4,M
655.781030655,0,1000,1,1,0,5,3,1,4,2,0,250.0,test,0,M
672.895908356,1,1000,2,1,0,5,3,1,4,2,0,250.0,test,1,M
608.772993088,1,1000,2,1,0,5,3,1,4,2,0,250.0,test,1,M
704.326868057,3,1000,3,1,0,5,3,1,4,2,0,250.0,test,3,M
800.345897675,0,1000,1,1,0,5,3,1,4,2,0,250.0,test,0,M
784.442901611,3,1000,3,1,0,5,3,1,4,2,0,250.0,test,3,M
656.491041183,3,1000,3,1,0,5,3,1,4,2,0,250.0,test,3,M
576.412916183,3,1000,3,1,0,5,3,1,4,2,0,250.0,test,3,M
912.589073181,2,1000,4,1,0,5,3,1,4,2,0,250.0,test,2,M
704.825878143,0,1000,1,1,0,5,3,1,4,2,0,250.0,test,0,M
832.129001617,5,1000,0,1,0,5,3,1,4,2,0,250.0,test,5,M
736.451864243,2,1000,4,1,0,5,3,1,4,2,0,250.0,test,2,M
576.377153397,2,1000,4,1,0,5,3,1,4,2,0,250.0,test,2,M
1056.42390251,5,1000,0,1,0,5,3,1,4,2,0,250.0,test,5,M
672.361135483,4,1000,5,1,0,5,3,1,4,2,0,250.0,test,4,M
672.456979752,3,1000,3,1,0,5,3,1,4,2,0,250.0,test,3,M
688.4329319,1,1000,2,1,0,5,3,1,4,2,0,250.0,test,1,M
784.152030945,5,1000,0,0,0,5,3,1,4,2,0,250.0,test,4,M
1040.41099548,4,1000,5,1,0,5,3,1,4,2,0,250.0,test,4,M
704.437017441,3,1000,3,1,0,5,3,1,4,2,0,250.0,test,3,M
656.319141388,4,1000,5,1,0,5,3,1,4,2,0,250.0,test,4,M
976.42993927,3,1000,3,1,0,5,3,1,4,2,0,250.0,test,3,M
784.385919571,1,1000,2,1,0,5,3,1,4,2,0,250.0,test,1,M
688.4329319,1,1000,2,1,0,5,3,1,4,2,0,250.0,test,1,M
704.524040222,0,1000,1,1,0,5,3,1,4,2,0,250.0,test,0,M
704.084157944,4,1000,5,1,0,5,3,1,4,2,0,250.0,test,4,M
688.682079315,0,1000,1,1,0,5,3,1,4,2,0,250.0,test,0,M
832.804203033,3,1000,3,1,0,5,3,1,4,2,0,250.0,test,3,M
576.408147812,3,1000,3,1,0,5,3,1,4,2,0,250.0,test,3,M
944.465875626,5,1000,0,1,0,5,3,1,4,2,0,250.0,test,5,M
784.408092499,1,1000,2,1,0,5,3,1,4,2,0,250.0,test,1,M
961.246967316,2,1000,4,1,0,5,3,1,4,2,0,250.0,test,2,M
768.2929039,1,1000,2,1,0,5,3,1,4,2,0,250.0,test,1,M
656.367063522,0,1000,1,1,0,5,3,1,4,2,0,250.0,test,0,M
752.405166626,2,1000,4,1,0,5,3,1,4,2,0,250.0,test,2,M
560.404062271,2,1000,4,1,0,5,3,1,4,2,0,250.0,test,2,M
720.383882523,1,1000,2,1,0,5,3,1,4,2,0,250.0,test,1,M
672.394990921,3,1000,3,1,0,5,3,1,4,2,0,250.0,test,3,M
832.384109497,2,1000,4,1,0,5,3,1,4,2,0,250.0,test,2,M
672.235965729,1,1000,2,1,0,5,3,1,4,2,0,250.0,test,1,M
832.452058792,4,1000,5,1,0,5,3,1,4,2,0,250.0,test,4,M
720.442771912,4,1000,5,1,0,5,3,1,4,2,0,250.0,test,4,M
513.411998749,4,1000,5,1,0,5,3,1,4,2,0,250.0,test,4,M
656.10909462,5,1000,0,1,0,5,3,1,4,2,0,250.0,test,5,M
784.40618515,2,1000,4,1,0,5,3,1,4,2,0,250.0,test,2,M
624.371051788,4,1000,5,1,0,5,3,1,4,2,0,250.0,test,4,M
704.349040985,2,1000,4,1,0,5,3,1,4,2,0,250.0,test,2,M
688.509225845,3,1000,3,1,0,5,3,1,4,2,0,250.0,test,3,M
672.415971756,2,1000,4,1,0,5,3,1,4,2,0,250.0,test,2,M
688.314914703,0,1000,1,1,0,5,3,1,4,2,0,250.0,test,0,M
656.433820724,1,1000,2,1,0,5,3,1,4,2,0,250.0,test,1,M
736.248016357,5,1000,0,1,0,5,3,1,4,2,0,250.0,test,5,M
639.96386528,3,1000,3,1,0,5,3,1,4,2,0,250.0,test,3,M
656.213998795,5,1000,0,1,0,5,3,1,4,2,0,250.0,test,5,M
640.295028687,4,1000,5,1,0,5,3,1,4,2,0,250.0,test,4,M
560.074090958,4,1000,5,1,0,5,3,1,4,2,0,250.0,test,4,M
671.889066696,4,1000,5,1,0,5,3,1,4,2,0,250.0,test,4,M
688.316106796,3,1000,3,1,0,5,3,1,4,2,0,250.0,test,3,M
640.319108963,1,1000,2,1,0,5,3,1,4,2,0,250.0,test,1,M
672.399997711,1,1000,2,1,0,5,3,1,4,2,0,250.0,test,1,M
848.443984985,5,1000,0,1,0,5,3,1,4,2,0,250.0,test,5,M
672.461032867,3,1000,3,1,0,5,3,1,4,2,0,250.0,test,3,M
688.374996185,0,1000,1,1,0,5,3,1,4,2,0,250.0,test,0,M
560.397863388,0,1000,1,1,0,5,3,1,4,2,0,250.0,test,0,M
608.44707489,0,1000,1,1,0,5,3,1,4,2,0,250.0,test,0,M
1024.48916435,4,1000,5,1,0,5,3,1,4,2,0,250.0,test,4,M
832.403182983,2,1000,4,1,0,5,3,1,4,2,0,250.0,test,2,M
752.084970474,1,1000,2,1,0,5,3,1,4,2,0,250.0,test,1,M
656.239032745,2,1000,4,1,0,5,3,1,4,2,0,250.0,test,2,M
832.489967346,3,1000,3,1,0,5,3,1,4,2,0,250.0,test,3,M
688.395023346,4,1000,5,1,0,5,3,1,4,2,0,250.0,test,4,M
560.364961624,5,1000,0,1,0,5,3,1,4,2,0,250.0,test,5,M
640.450954437,5,1000,0,1,0,5,3,1,4,2,0,250.0,test,5,M
656.014204025,5,1000,0,1,0,5,3,1,4,2,0,250.0,test,5,M
512.340068817,5,1000,0,1,0,5,3,1,4,2,0,250.0,test,5,M
624.325990677,5,1000,0,1,0,5,3,1,4,2,0,250.0,test,5,M
800.385951996,1,1000,2,1,0,5,3,1,4,2,0,250.0,test,1,M
752.454996109,4,1000,5,1,0,5,3,1,4,2,0,250.0,test,4,M
656.482934952,0,1000,1,1,0,5,3,1,4,2,0,250.0,test,0,M
704.435110092,4,1000,5,1,0,5,3,1,4,2,0,250.0,test,4,M
624.433994293,5,1000,0,1,0,5,3,1,4,2,0,250.0,test,5,M
720.345973969,2,1000,4,1,0,5,3,1,4,2,0,250.0,test,2,M
816.475868225,4,1000,5,1,0,5,3,1,4,2,0,250.0,test,4,M
704.473972321,0,1000,1,1,0,5,3,1,4,2,0,250.0,test,0,M
752.485990524,3,1000,3,1,0,5,3,1,4,2,0,250.0,test,3,M
496.392965317,3,1000,3,1,0,5,3,1,4,2,0,250.0,test,3,M
704.566955566,5,1000,0,1,0,5,3,1,4,2,0,250.0,test,5,M
1168.40600967,2,1000,4,1,0,5,3,1,4,2,0,250.0,test,2,M
1008.09502602,0,1000,1,1,0,5,3,1,4,2,0,250.0,test,0,M
