RT,correct_response,ms-prestimblank,curstim,correct,SRmap_1,SRmap_0,SRmap_3,SRmap_2,SRmap_5,SRmap_4,ms-precue,ntrials,type,response,condition
1466.49003029,2,1000,1,1,2,5,4,3,1,0,0,250.0,train,2,M
650.321960449,3,1000,2,1,2,5,4,3,1,0,0,250.0,train,3,M
538.104057312,5,1000,0,1,2,5,4,3,1,0,0,250.0,train,5,M
570.49202919,3,1000,2,0,2,5,4,3,1,0,0,250.0,train,4,M
523.509025574,0,1000,4,1,2,5,4,3,1,0,0,250.0,train,0,M
538.305997849,1,1000,5,1,2,5,4,3,1,0,0,250.0,train,1,M
474.553823471,2,1000,1,1,2,5,4,3,1,0,0,250.0,train,2,M
490.547180176,5,1000,0,1,2,5,4,3,1,0,0,250.0,train,5,M
730.538129807,2,1000,1,1,2,5,4,3,1,0,0,250.0,train,2,M
666.594028473,2,1000,1,1,2,5,4,3,1,0,0,250.0,train,2,M
602.568864822,1,1000,5,1,2,5,4,3,1,0,0,250.0,train,1,M
602.542877197,1,1000,5,1,2,5,4,3,1,0,0,250.0,train,1,M
458.604812622,2,1000,1,1,2,5,4,3,1,0,0,250.0,train,2,M
506.33597374,4,1000,3,1,2,5,4,3,1,0,0,250.0,train,4,M
554.488897324,0,1000,4,1,2,5,4,3,1,0,0,250.0,train,0,M
522.490024567,0,1000,4,1,2,5,4,3,1,0,0,250.0,train,0,M
458.558082581,2,1000,1,1,2,5,4,3,1,0,0,250.0,train,2,M
586.591959,4,1000,3,0,2,5,4,3,1,0,0,250.0,train,3,M
506.443023682,5,1000,0,1,2,5,4,3,1,0,0,250.0,train,5,M
474.510908127,5,1000,0,1,2,5,4,3,1,0,0,250.0,train,5,M
554.404020309,2,1000,1,1,2,5,4,3,1,0,0,250.0,train,2,M
602.380037308,2,1000,1,1,2,5,4,3,1,0,0,250.0,train,2,M
443.030118942,2,1000,1,1,2,5,4,3,1,0,0,250.0,train,2,M
506.395101547,1,1000,5,1,2,5,4,3,1,0,0,250.0,train,1,M
586.453914642,3,1000,2,0,2,5,4,3,1,0,0,250.0,train,2,M
426.469087601,3,1000,2,1,2,5,4,3,1,0,0,250.0,train,3,M
428.022861481,5,1000,0,1,2,5,4,3,1,0,0,250.0,train,5,M
506.416082382,4,1000,3,1,2,5,4,3,1,0,0,250.0,train,4,M
490.431070328,5,1000,0,1,2,5,4,3,1,0,0,250.0,train,5,M
651.093959808,3,1000,2,0,2,5,4,3,1,0,0,250.0,train,2,M
426.445007324,4,1000,3,1,2,5,4,3,1,0,0,250.0,train,4,M
635.827064514,2,1000,1,1,2,5,4,3,1,0,0,250.0,train,2,M
523.066043854,4,1000,3,1,2,5,4,3,1,0,0,250.0,train,4,M
586.579084396,4,1000,3,1,2,5,4,3,1,0,0,250.0,train,4,M
427.212953568,4,1000,3,1,2,5,4,3,1,0,0,250.0,train,4,M
538.636922836,0,1000,4,1,2,5,4,3,1,0,0,250.0,train,0,M
682.569980621,3,1000,2,0,2,5,4,3,1,0,0,250.0,train,2,M
666.438817978,0,1000,4,1,2,5,4,3,1,0,0,250.0,train,0,M
666.546821594,4,1000,3,1,2,5,4,3,1,0,0,250.0,train,4,M
938.542127609,3,1000,2,1,2,5,4,3,1,0,0,250.0,train,3,M
586.621999741,5,1000,0,1,2,5,4,3,1,0,0,250.0,train,5,M
474.586009979,5,1000,0,1,2,5,4,3,1,0,0,250.0,train,5,M
618.597984314,1,1000,5,1,2,5,4,3,1,0,0,250.0,train,1,M
538.510799408,5,1000,0,1,2,5,4,3,1,0,0,250.0,train,5,M
779.095172882,1,1000,5,1,2,5,4,3,1,0,0,250.0,train,1,M
474.505186081,3,1000,2,0,2,5,4,3,1,0,0,250.0,train,4,M
617.925167084,1,1000,5,1,2,5,4,3,1,0,0,250.0,train,1,M
874.38416481,3,1000,2,0,2,5,4,3,1,0,0,250.0,train,4,M
554.303884506,3,1000,2,1,2,5,4,3,1,0,0,250.0,train,3,M
555.845975876,5,1000,0,1,2,5,4,3,1,0,0,250.0,train,5,M
379.82416153,4,1000,3,1,2,5,4,3,1,0,0,250.0,train,4,M
506.443977356,3,1000,2,1,2,5,4,3,1,0,0,250.0,train,3,M
570.441007614,4,1000,3,0,2,5,4,3,1,0,0,250.0,train,5,M
970.439910889,2,1000,1,1,2,5,4,3,1,0,0,250.0,train,2,M
586.403846741,2,1000,1,1,2,5,4,3,1,0,0,250.0,train,2,M
443.845033646,2,1000,1,1,2,5,4,3,1,0,0,250.0,train,2,M
682.389974594,4,1000,3,1,2,5,4,3,1,0,0,250.0,train,4,M
363.59500885,4,1000,3,1,2,5,4,3,1,0,0,250.0,train,4,M
459.942817688,5,1000,0,1,2,5,4,3,1,0,0,250.0,train,5,M
796.046972275,3,1000,2,1,2,5,4,3,1,0,0,250.0,train,3,M
667.93179512,1,1000,5,1,2,5,4,3,1,0,0,250.0,train,1,M
714.510917664,1,1000,5,1,2,5,4,3,1,0,0,250.0,train,1,M
475.080013275,0,1000,4,1,2,5,4,3,1,0,0,250.0,train,0,M
554.510116577,2,1000,1,1,2,5,4,3,1,0,0,250.0,train,2,M
427.062034607,1,1000,5,1,2,5,4,3,1,0,0,250.0,train,1,M
634.573936462,5,1000,0,1,2,5,4,3,1,0,0,250.0,train,5,M
426.985025406,5,1000,0,1,2,5,4,3,1,0,0,250.0,train,5,M
890.582084656,3,1000,2,0,2,5,4,3,1,0,0,250.0,train,2,M
570.426940918,5,1000,0,1,2,5,4,3,1,0,0,250.0,train,5,M
458.550930023,1,1000,5,1,2,5,4,3,1,0,0,250.0,train,1,M
698.605060577,1,1000,5,1,2,5,4,3,1,0,0,250.0,train,1,M
474.418878555,1,1000,5,1,2,5,4,3,1,0,0,250.0,train,1,M
730.520009995,3,1000,2,1,2,5,4,3,1,0,0,250.0,train,3,M
522.46594429,0,1000,4,1,2,5,4,3,1,0,0,250.0,train,0,M
554.794073105,1,1000,5,1,2,5,4,3,1,0,0,250.0,train,1,M
412.039995193,2,1000,1,1,2,5,4,3,1,0,0,250.0,train,2,M
330.470085144,1,1000,5,1,2,5,4,3,1,0,0,250.0,train,1,M
411.983013153,1,1000,5,1,2,5,4,3,1,0,0,250.0,train,1,M
522.529125214,5,1000,0,0,2,5,4,3,1,0,0,250.0,train,4,M
522.500991821,2,1000,1,1,2,5,4,3,1,0,0,250.0,train,2,M
539.502859116,0,1000,4,1,2,5,4,3,1,0,0,250.0,train,0,M
714.6089077,4,1000,3,1,2,5,4,3,1,0,0,250.0,train,4,M
474.415063858,0,1000,4,1,2,5,4,3,1,0,0,250.0,train,0,M
554.442167282,1,1000,5,1,2,5,4,3,1,0,0,250.0,train,1,M
474.395990372,4,1000,3,0,2,5,4,3,1,0,0,250.0,train,5,M
1034.46912766,2,1000,1,0,2,5,4,3,1,0,0,250.0,train,1,M
715.862989426,5,1000,0,1,2,5,4,3,1,0,0,250.0,train,5,M
682.281017303,1,1000,5,1,2,5,4,3,1,0,0,250.0,train,1,M
554.600000381,0,1000,4,1,2,5,4,3,1,0,0,250.0,train,0,M
714.295148849,1,1000,5,1,2,5,4,3,1,0,0,250.0,train,1,M
522.585868835,0,1000,4,1,2,5,4,3,1,0,0,250.0,train,0,M
474.505901337,1,1000,5,1,2,5,4,3,1,0,0,250.0,train,1,M
394.984006882,1,1000,5,1,2,5,4,3,1,0,0,250.0,train,1,M
603.932857513,2,1000,1,1,2,5,4,3,1,0,0,250.0,train,2,M
730.365991592,3,1000,2,1,2,5,4,3,1,0,0,250.0,train,3,M
522.564172745,2,1000,1,0,2,5,4,3,1,0,0,250.0,train,1,M
666.580915451,4,1000,3,1,2,5,4,3,1,0,0,250.0,train,4,M
395.087957382,5,1000,0,1,2,5,4,3,1,0,0,250.0,train,5,M
522.624015808,4,1000,3,1,2,5,4,3,1,0,0,250.0,train,4,M
554.55994606,0,1000,4,1,2,5,4,3,1,0,0,250.0,train,0,M
490.563154221,2,1000,1,1,2,5,4,3,1,0,0,250.0,train,2,M
538.598060608,0,1000,4,1,2,5,4,3,1,0,0,250.0,train,0,M
682.457923889,5,1000,0,1,2,5,4,3,1,0,0,250.0,train,5,M
554.54492569,2,1000,1,1,2,5,4,3,1,0,0,250.0,train,2,M
490.462064743,1,1000,5,1,2,5,4,3,1,0,0,250.0,train,1,M
458.434820175,0,1000,4,1,2,5,4,3,1,0,0,250.0,train,0,M
539.94512558,5,1000,0,1,2,5,4,3,1,0,0,250.0,train,5,M
826.440095901,2,1000,1,1,2,5,4,3,1,0,0,250.0,train,2,M
763.975143433,3,1000,2,1,2,5,4,3,1,0,0,250.0,train,3,M
555.653095245,1,1000,5,1,2,5,4,3,1,0,0,250.0,train,1,M
459.056854248,0,1000,4,1,2,5,4,3,1,0,0,250.0,train,0,M
524.055957794,5,1000,0,1,2,5,4,3,1,0,0,250.0,train,5,M
555.033922195,1,1000,5,1,2,5,4,3,1,0,0,250.0,train,1,M
634.002923965,2,1000,1,1,2,5,4,3,1,0,0,250.0,train,2,M
538.475036621,1,1000,5,1,2,5,4,3,1,0,0,250.0,train,1,M
618.517160416,3,1000,2,1,2,5,4,3,1,0,0,250.0,train,3,M
554.399967194,5,1000,0,1,2,5,4,3,1,0,0,250.0,train,5,M
1050.57096481,3,1000,2,1,2,5,4,3,1,0,0,250.0,train,3,M
443.953990936,1,1000,5,1,2,5,4,3,1,0,0,250.0,train,1,M
747.87902832,4,1000,3,1,2,5,4,3,1,0,0,250.0,train,4,M
394.942045212,1,1000,5,1,2,5,4,3,1,0,0,250.0,train,1,M
426.399946213,2,1000,1,1,2,5,4,3,1,0,0,250.0,train,2,M
474.536180496,4,1000,3,1,2,5,4,3,1,0,0,250.0,train,4,M
506.552934647,2,1000,1,0,2,5,4,3,1,0,0,250.0,train,1,M
603.978157043,5,1000,0,1,2,5,4,3,1,0,0,250.0,train,5,M
474.552869797,0,1000,4,1,2,5,4,3,1,0,0,250.0,train,0,M
554.596185684,1,1000,5,1,2,5,4,3,1,0,0,250.0,train,1,M
554.363965988,1,1000,5,1,2,5,4,3,1,0,0,250.0,train,1,M
394.577980042,2,1000,1,1,2,5,4,3,1,0,0,250.0,train,2,M
411.101102829,3,1000,2,1,2,5,4,3,1,0,0,250.0,train,3,M
666.6431427,1,1000,5,1,2,5,4,3,1,0,0,250.0,train,1,M
538.610935211,4,1000,3,0,2,5,4,3,1,0,0,250.0,train,5,M
539.154052734,1,1000,5,1,2,5,4,3,1,0,0,250.0,train,1,M
698.58789444,3,1000,2,1,2,5,4,3,1,0,0,250.0,train,3,M
491.415023804,5,1000,0,1,2,5,4,3,1,0,0,250.0,train,5,M
442.528009415,5,1000,0,1,2,5,4,3,1,0,0,250.0,train,5,M
522.487163544,0,1000,4,1,2,5,4,3,1,0,0,250.0,train,0,M
619.174957275,3,1000,2,1,2,5,4,3,1,0,0,250.0,train,3,M
410.269021988,3,1000,2,1,2,5,4,3,1,0,0,250.0,train,3,M
555.11713028,0,1000,4,1,2,5,4,3,1,0,0,250.0,train,0,M
684.02504921,4,1000,3,1,2,5,4,3,1,0,0,250.0,train,4,M
506.371974945,2,1000,1,1,2,5,4,3,1,0,0,250.0,train,2,M
570.546150208,3,1000,2,1,2,5,4,3,1,0,0,250.0,train,3,M
762.468099594,2,1000,1,1,2,5,4,3,1,0,0,250.0,train,2,M
618.458986282,4,1000,3,0,2,5,4,3,1,0,0,250.0,train,5,M
378.380060196,4,1000,3,1,2,5,4,3,1,0,0,250.0,train,4,M
506.399869919,3,1000,2,1,2,5,4,3,1,0,0,250.0,train,3,M
538.499832153,0,1000,4,1,2,5,4,3,1,0,0,250.0,train,0,M
459.910869598,0,1000,4,1,2,5,4,3,1,0,0,250.0,train,0,M
698.544025421,4,1000,3,1,2,5,4,3,1,0,0,250.0,train,4,M
379.855155945,0,1000,4,1,2,5,4,3,1,0,0,250.0,train,0,M
586.469888687,4,1000,3,1,2,5,4,3,1,0,0,250.0,train,4,M
634.603977203,2,1000,1,1,2,5,4,3,1,0,0,250.0,train,2,M
602.609872818,4,1000,3,1,2,5,4,3,1,0,0,250.0,train,4,M
490.578889847,5,1000,0,1,2,5,4,3,1,0,0,250.0,train,5,M
538.503885269,1,1000,5,1,2,5,4,3,1,0,0,250.0,train,1,M
506.479978561,3,1000,2,0,2,5,4,3,1,0,0,250.0,train,2,M
826.570987701,2,1000,1,1,2,5,4,3,1,0,0,250.0,train,2,M
634.60278511,1,1000,5,1,2,5,4,3,1,0,0,250.0,train,1,M
570.586919785,3,1000,2,1,2,5,4,3,1,0,0,250.0,train,3,M
458.520889282,1,1000,5,1,2,5,4,3,1,0,0,250.0,train,1,M
523.107051849,5,1000,0,1,2,5,4,3,1,0,0,250.0,train,5,M
522.6521492,1,1000,5,1,2,5,4,3,1,0,0,250.0,train,1,M
507.144927979,0,1000,4,1,2,5,4,3,1,0,0,250.0,train,0,M
762.423992157,3,1000,2,1,2,5,4,3,1,0,0,250.0,train,3,M
522.423028946,1,1000,5,1,2,5,4,3,1,0,0,250.0,train,1,M
508.028030396,2,1000,1,1,2,5,4,3,1,0,0,250.0,train,2,M
363.978862762,2,1000,1,1,2,5,4,3,1,0,0,250.0,train,2,M
410.547018051,2,1000,1,1,2,5,4,3,1,0,0,250.0,train,2,M
394.503831863,2,1000,1,1,2,5,4,3,1,0,0,250.0,train,2,M
475.99196434,1,1000,5,1,2,5,4,3,1,0,0,250.0,train,1,M
491.021156311,0,1000,4,1,2,5,4,3,1,0,0,250.0,train,0,M
460.062026978,0,1000,4,1,2,5,4,3,1,0,0,250.0,train,0,M
346.972942352,1,1000,5,1,2,5,4,3,1,0,0,250.0,train,1,M
586.452007294,3,1000,2,1,2,5,4,3,1,0,0,250.0,train,3,M
506.558895111,4,1000,3,0,2,5,4,3,1,0,0,250.0,train,2,M
714.575052261,2,1000,1,0,2,5,4,3,1,0,0,250.0,train,3,M
586.554050446,0,1000,4,1,2,5,4,3,1,0,0,250.0,train,0,M
602.36787796,2,1000,1,1,2,5,4,3,1,0,0,250.0,train,2,M
570.963859558,2,1000,1,1,2,5,4,3,1,0,0,250.0,train,2,M
426.558017731,3,1000,2,1,2,5,4,3,1,0,0,250.0,train,3,M
442.543029785,0,1000,4,1,2,5,4,3,1,0,0,250.0,train,0,M
634.551048279,4,1000,3,0,2,5,4,3,1,0,0,250.0,train,5,M
634.616851807,1,1000,5,1,2,5,4,3,1,0,0,250.0,train,1,M
586.540937424,2,1000,1,1,2,5,4,3,1,0,0,250.0,train,2,M
587.863922119,4,1000,3,1,2,5,4,3,1,0,0,250.0,train,4,M
490.387201309,0,1000,4,1,2,5,4,3,1,0,0,250.0,train,0,M
362.494945526,1,1000,5,1,2,5,4,3,1,0,0,250.0,train,1,M
538.573980331,5,1000,0,1,2,5,4,3,1,0,0,250.0,train,5,M
458.617925644,0,1000,4,1,2,5,4,3,1,0,0,250.0,train,0,M
443.918943405,0,1000,4,1,2,5,4,3,1,0,0,250.0,train,0,M
555.670022964,2,1000,1,1,2,5,4,3,1,0,0,250.0,train,2,M
346.382141113,1,1000,5,1,2,5,4,3,1,0,0,250.0,train,1,M
538.414955139,5,1000,0,1,2,5,4,3,1,0,0,250.0,train,5,M
298.402070999,4,1000,3,1,2,5,4,3,1,0,0,250.0,train,4,M
394.49596405,5,1000,0,1,2,5,4,3,1,0,0,250.0,train,5,M
538.385152817,1,1000,5,1,2,5,4,3,1,0,0,250.0,train,1,M
345.236063004,0,1000,4,1,2,5,4,3,1,0,0,250.0,train,0,M
330.423116684,0,1000,4,0,2,5,4,3,1,0,0,250.0,train,1,M
442.412853241,2,1000,1,1,2,5,4,3,1,0,0,250.0,train,2,M
458.418130875,0,1000,4,1,2,5,4,3,1,0,0,250.0,train,0,M
618.37887764,4,1000,3,1,2,5,4,3,1,0,0,250.0,train,4,M
796.036958694,3,1000,2,1,2,5,4,3,1,0,0,250.0,train,3,M
794.489860535,2,1000,1,1,2,5,4,3,1,0,0,250.0,train,2,M
506.400823593,0,1000,4,1,2,5,4,3,1,0,0,250.0,train,0,M
634.533882141,3,1000,2,1,2,5,4,3,1,0,0,250.0,train,3,M
778.547048569,2,1000,1,1,2,5,4,3,1,0,0,250.0,train,2,M
427.053928375,0,1000,4,1,2,5,4,3,1,0,0,250.0,train,0,M
826.60317421,3,1000,2,1,2,5,4,3,1,0,0,250.0,train,3,M
506.575107574,3,1000,2,1,2,5,4,3,1,0,0,250.0,train,3,M
426.626205444,5,1000,0,1,2,5,4,3,1,0,0,250.0,train,5,M
522.084951401,2,1000,1,1,2,5,4,3,1,0,0,250.0,train,2,M
522.655963898,5,1000,0,1,2,5,4,3,1,0,0,250.0,train,5,M
442.619085312,0,1000,4,1,2,5,4,3,1,0,0,250.0,train,0,M
442.610025406,0,1000,4,1,2,5,4,3,1,0,0,250.0,train,0,M
570.564031601,5,1000,0,1,2,5,4,3,1,0,0,250.0,train,5,M
474.451065063,4,1000,3,1,2,5,4,3,1,0,0,250.0,train,4,M
443.912029266,0,1000,4,1,2,5,4,3,1,0,0,250.0,train,0,M
490.242004395,5,1000,0,1,2,5,4,3,1,0,0,250.0,train,5,M
362.994909286,4,1000,3,1,2,5,4,3,1,0,0,250.0,train,4,M
506.412982941,5,1000,0,1,2,5,4,3,1,0,0,250.0,train,5,M
442.746162415,0,1000,4,1,2,5,4,3,1,0,0,250.0,train,0,M
410.42804718,5,1000,0,1,2,5,4,3,1,0,0,250.0,train,5,M
666.95189476,2,1000,1,1,2,5,4,3,1,0,0,250.0,train,2,M
522.474050522,2,1000,1,1,2,5,4,3,1,0,0,250.0,train,2,M
522.424221039,2,1000,1,1,2,5,4,3,1,0,0,250.0,train,2,M
522.511959076,1,1000,5,1,2,5,4,3,1,0,0,250.0,train,1,M
362.473011017,1,1000,5,1,2,5,4,3,1,0,0,250.0,train,1,M
538.550853729,3,1000,2,1,2,5,4,3,1,0,0,250.0,train,3,M
570.456027985,4,1000,3,1,2,5,4,3,1,0,0,250.0,train,4,M
619.883060455,2,1000,1,1,2,5,4,3,1,0,0,250.0,train,2,M
539.957046509,0,1000,4,1,2,5,4,3,1,0,0,250.0,train,0,M
362.416028976,1,1000,5,1,2,5,4,3,1,0,0,250.0,train,1,M
699.988126755,4,1000,3,1,2,5,4,3,1,0,0,250.0,train,4,M
539.839029312,1,1000,5,1,2,5,4,3,1,0,0,250.0,train,1,M
362.523078918,1,1000,5,1,2,5,4,3,1,0,0,250.0,train,1,M
475.822925568,3,1000,2,0,2,5,4,3,1,0,0,250.0,train,2,M
571.902990341,3,1000,2,1,2,5,4,3,1,0,0,250.0,train,3,M
491.816043854,4,1000,3,1,2,5,4,3,1,0,0,250.0,train,4,M
490.613937378,2,1000,1,0,2,5,4,3,1,0,0,250.0,train,1,M
650.583028793,5,1000,0,1,2,5,4,3,1,0,0,250.0,train,5,M
474.570035934,1,1000,5,1,2,5,4,3,1,0,0,250.0,train,1,M
522.553920746,4,1000,3,1,2,5,4,3,1,0,0,250.0,train,4,M
378.576040268,4,1000,3,1,2,5,4,3,1,0,0,250.0,train,4,M
585.216999054,1,1000,5,1,2,5,4,3,1,0,0,250.0,train,1,M
378.601074219,2,1000,1,1,2,5,4,3,1,0,0,250.0,train,2,M
602.666854858,1,1000,5,1,2,5,4,3,1,0,0,250.0,train,1,M
650.511980057,1,1000,5,1,2,5,4,3,1,0,0,250.0,train,1,M
458.520889282,1,1000,5,1,2,5,4,3,1,0,0,250.0,train,1,M
699.87988472,3,1000,2,0,2,5,4,3,1,0,0,250.0,train,4,M
2057.87396431,4,1000,3,1,2,5,4,3,1,0,0,250.0,test,4,M
809.634923935,1,1000,5,1,2,5,4,3,1,0,0,250.0,test,1,M
1531.60405159,5,1000,0,1,2,5,4,3,1,0,0,250.0,test,5,M
1418.33090782,0,1000,4,1,2,5,4,3,1,0,0,250.0,test,0,M
570.237159729,1,1000,5,1,2,5,4,3,1,0,0,250.0,test,1,M
682.286977768,1,1000,5,1,2,5,4,3,1,0,0,250.0,test,1,M
730.396032333,1,1000,5,1,2,5,4,3,1,0,0,250.0,test,1,M
570.348024368,1,1000,5,1,2,5,4,3,1,0,0,250.0,test,1,M
361.109972,0,1000,4,1,2,5,4,3,1,0,0,250.0,test,0,M
1019.71697807,3,1000,2,1,2,5,4,3,1,0,0,250.0,test,3,M
506.386995316,2,1000,1,1,2,5,4,3,1,0,0,250.0,test,2,M
715.787172318,0,1000,4,1,2,5,4,3,1,0,0,250.0,test,0,M
970.352888107,2,1000,1,1,2,5,4,3,1,0,0,250.0,test,2,M
826.359033585,5,1000,0,0,2,5,4,3,1,0,0,250.0,test,0,M
394.39702034,0,1000,4,1,2,5,4,3,1,0,0,250.0,test,0,M
1514.36400414,4,1000,3,1,2,5,4,3,1,0,0,250.0,test,4,M
730.363845825,4,1000,3,1,2,5,4,3,1,0,0,250.0,test,4,M
698.36807251,5,1000,0,1,2,5,4,3,1,0,0,250.0,test,5,M
570.811033249,4,1000,3,1,2,5,4,3,1,0,0,250.0,test,4,M
810.451030731,4,1000,3,0,2,5,4,3,1,0,0,250.0,test,5,M
378.327131271,4,1000,3,1,2,5,4,3,1,0,0,250.0,test,4,M
1067.00205803,3,1000,2,1,2,5,4,3,1,0,0,250.0,test,3,M
650.26307106,5,1000,0,1,2,5,4,3,1,0,0,250.0,test,5,M
1194.31400299,1,1000,5,1,2,5,4,3,1,0,0,250.0,test,1,M
443.71008873,1,1000,5,1,2,5,4,3,1,0,0,250.0,test,1,M
666.334152222,2,1000,1,1,2,5,4,3,1,0,0,250.0,test,2,M
666.330099106,0,1000,4,1,2,5,4,3,1,0,0,250.0,test,0,M
602.308034897,1,1000,5,1,2,5,4,3,1,0,0,250.0,test,1,M
761.142969131,5,1000,0,1,2,5,4,3,1,0,0,250.0,test,5,M
603.642225266,5,1000,0,1,2,5,4,3,1,0,0,250.0,test,5,M
570.341110229,0,1000,4,1,2,5,4,3,1,0,0,250.0,test,0,M
459.608078003,0,1000,4,1,2,5,4,3,1,0,0,250.0,test,0,M
666.944026947,5,1000,0,1,2,5,4,3,1,0,0,250.0,test,5,M
618.288993835,2,1000,1,1,2,5,4,3,1,0,0,250.0,test,2,M
570.201158524,4,1000,3,1,2,5,4,3,1,0,0,250.0,test,4,M
874.387025833,5,1000,0,1,2,5,4,3,1,0,0,250.0,test,5,M
507.76386261,4,1000,3,0,2,5,4,3,1,0,0,250.0,test,5,M
1051.83291435,1,1000,5,1,2,5,4,3,1,0,0,250.0,test,1,M
857.096910477,3,1000,2,1,2,5,4,3,1,0,0,250.0,test,3,M
587.692022324,2,1000,1,1,2,5,4,3,1,0,0,250.0,test,2,M
587.829828262,3,1000,2,1,2,5,4,3,1,0,0,250.0,test,3,M
635.793924332,5,1000,0,1,2,5,4,3,1,0,0,250.0,test,5,M
554.742097855,2,1000,1,1,2,5,4,3,1,0,0,250.0,test,2,M
570.344924927,2,1000,1,0,2,5,4,3,1,0,0,250.0,test,3,M
602.374076843,5,1000,0,1,2,5,4,3,1,0,0,250.0,test,5,M
379.698038101,5,1000,0,1,2,5,4,3,1,0,0,250.0,test,5,M
683.754920959,3,1000,2,1,2,5,4,3,1,0,0,250.0,test,3,M
906.404018402,1,1000,5,1,2,5,4,3,1,0,0,250.0,test,1,M
618.397951126,3,1000,2,1,2,5,4,3,1,0,0,250.0,test,3,M
682.271003723,4,1000,3,1,2,5,4,3,1,0,0,250.0,test,4,M
682.21282959,0,1000,4,1,2,5,4,3,1,0,0,250.0,test,0,M
602.364063263,3,1000,2,1,2,5,4,3,1,0,0,250.0,test,3,M
587.584018707,1,1000,5,0,2,5,4,3,1,0,0,250.0,test,4,M
571.521997452,3,1000,2,1,2,5,4,3,1,0,0,250.0,test,3,M
618.24297905,1,1000,5,1,2,5,4,3,1,0,0,250.0,test,1,M
667.699098587,2,1000,1,1,2,5,4,3,1,0,0,250.0,test,2,M
314.26692009,3,1000,2,1,2,5,4,3,1,0,0,250.0,test,3,M
602.339029312,3,1000,2,1,2,5,4,3,1,0,0,250.0,test,3,M
442.328929901,0,1000,4,1,2,5,4,3,1,0,0,250.0,test,0,M
442.408084869,0,1000,4,1,2,5,4,3,1,0,0,250.0,test,0,M
474.331855774,0,1000,4,1,2,5,4,3,1,0,0,250.0,test,0,M
379.808187485,5,1000,0,0,2,5,4,3,1,0,0,250.0,test,1,M
346.373796463,5,1000,0,1,2,5,4,3,1,0,0,250.0,test,5,M
683.758974075,2,1000,1,0,2,5,4,3,1,0,0,250.0,test,3,M
602.391004562,3,1000,2,1,2,5,4,3,1,0,0,250.0,test,3,M
2394.38605309,5,1000,0,1,2,5,4,3,1,0,0,250.0,test,5,M
458.276033401,5,1000,0,1,2,5,4,3,1,0,0,250.0,test,5,M
571.73705101,0,1000,4,1,2,5,4,3,1,0,0,250.0,test,0,M
602.377176285,3,1000,2,1,2,5,4,3,1,0,0,250.0,test,3,M
666.41497612,2,1000,1,1,2,5,4,3,1,0,0,250.0,test,2,M
474.323987961,4,1000,3,1,2,5,4,3,1,0,0,250.0,test,4,M
522.385835648,0,1000,4,1,2,5,4,3,1,0,0,250.0,test,0,M
570.363044739,5,1000,0,0,2,5,4,3,1,0,0,250.0,test,1,M
746.357917786,1,1000,5,1,2,5,4,3,1,0,0,250.0,test,1,M
394.316196442,2,1000,1,1,2,5,4,3,1,0,0,250.0,test,2,M
571.665048599,0,1000,4,1,2,5,4,3,1,0,0,250.0,test,0,M
810.36400795,4,1000,3,0,2,5,4,3,1,0,0,250.0,test,1,M
1018.42594147,5,1000,0,1,2,5,4,3,1,0,0,250.0,test,5,M
714.813947678,3,1000,2,1,2,5,4,3,1,0,0,250.0,test,3,M
522.892951965,5,1000,0,1,2,5,4,3,1,0,0,250.0,test,5,M
1067.74115562,1,1000,5,1,2,5,4,3,1,0,0,250.0,test,1,M
347.806930542,4,1000,3,1,2,5,4,3,1,0,0,250.0,test,4,M
603.767156601,3,1000,2,1,2,5,4,3,1,0,0,250.0,test,3,M
475.59094429,2,1000,1,1,2,5,4,3,1,0,0,250.0,test,2,M
395.53809166,2,1000,1,1,2,5,4,3,1,0,0,250.0,test,2,M
554.285049438,4,1000,3,1,2,5,4,3,1,0,0,250.0,test,4,M
362.30301857,4,1000,3,1,2,5,4,3,1,0,0,250.0,test,4,M
1674.41010475,3,1000,2,0,2,5,4,3,1,0,0,250.0,test,2,M
826.364994049,5,1000,0,1,2,5,4,3,1,0,0,250.0,test,5,M
522.373914719,0,1000,4,1,2,5,4,3,1,0,0,250.0,test,0,M
746.239185333,5,1000,0,1,2,5,4,3,1,0,0,250.0,test,5,M
506.291866302,5,1000,0,1,2,5,4,3,1,0,0,250.0,test,5,M
635.720014572,4,1000,3,1,2,5,4,3,1,0,0,250.0,test,4,M
987.717151642,0,1000,4,1,2,5,4,3,1,0,0,250.0,test,0,M
619.796037674,2,1000,1,1,2,5,4,3,1,0,0,250.0,test,2,M
1211.71998978,3,1000,2,1,2,5,4,3,1,0,0,250.0,test,3,M
458.327054977,3,1000,2,1,2,5,4,3,1,0,0,250.0,test,3,M
666.439056396,5,1000,0,1,2,5,4,3,1,0,0,250.0,test,5,M
922.322034836,1,1000,5,1,2,5,4,3,1,0,0,250.0,test,1,M
1114.37678337,4,1000,3,0,2,5,4,3,1,0,0,250.0,test,5,M
713.078022003,0,1000,4,1,2,5,4,3,1,0,0,250.0,test,0,M
746.370077133,5,1000,0,0,2,5,4,3,1,0,0,250.0,test,4,M
586.395978928,4,1000,3,1,2,5,4,3,1,0,0,250.0,test,4,M
522.28307724,5,1000,0,1,2,5,4,3,1,0,0,250.0,test,5,M
586.406946182,0,1000,4,1,2,5,4,3,1,0,0,250.0,test,0,M
1146.40212059,3,1000,2,1,2,5,4,3,1,0,0,250.0,test,3,M
602.329015732,0,1000,4,1,2,5,4,3,1,0,0,250.0,test,0,M
826.803922653,2,1000,1,1,2,5,4,3,1,0,0,250.0,test,2,M
1003.74984741,1,1000,5,1,2,5,4,3,1,0,0,250.0,test,1,M
650.382041931,5,1000,0,0,2,5,4,3,1,0,0,250.0,test,0,M
875.762939453,1,1000,5,1,2,5,4,3,1,0,0,250.0,test,1,M
698.244094849,4,1000,3,1,2,5,4,3,1,0,0,250.0,test,4,M
346.413135529,5,1000,0,1,2,5,4,3,1,0,0,250.0,test,5,M
970.410823822,4,1000,3,1,2,5,4,3,1,0,0,250.0,test,4,M
490.82493782,0,1000,4,1,2,5,4,3,1,0,0,250.0,test,0,M
682.311058044,4,1000,3,1,2,5,4,3,1,0,0,250.0,test,4,M
378.234863281,4,1000,3,1,2,5,4,3,1,0,0,250.0,test,4,M
522.303104401,0,1000,4,1,2,5,4,3,1,0,0,250.0,test,0,M
906.378030777,5,1000,0,1,2,5,4,3,1,0,0,250.0,test,5,M
522.316932678,5,1000,0,1,2,5,4,3,1,0,0,250.0,test,5,M
698.43506813,2,1000,1,1,2,5,4,3,1,0,0,250.0,test,2,M
538.366794586,2,1000,1,1,2,5,4,3,1,0,0,250.0,test,2,M
346.433162689,2,1000,1,1,2,5,4,3,1,0,0,250.0,test,2,M
938.398122787,1,1000,5,1,2,5,4,3,1,0,0,250.0,test,1,M
634.353876114,1,1000,5,1,2,5,4,3,1,0,0,250.0,test,1,M
554.491996765,0,1000,4,1,2,5,4,3,1,0,0,250.0,test,0,M
554.397821426,2,1000,1,1,2,5,4,3,1,0,0,250.0,test,2,M
763.733863831,5,1000,0,0,2,5,4,3,1,0,0,250.0,test,0,M
809.782981873,4,1000,3,1,2,5,4,3,1,0,0,250.0,test,4,M
570.335865021,0,1000,4,1,2,5,4,3,1,0,0,250.0,test,0,M
506.390094757,5,1000,0,1,2,5,4,3,1,0,0,250.0,test,5,M
522.264957428,0,1000,4,1,2,5,4,3,1,0,0,250.0,test,0,M
346.241950989,2,1000,1,1,2,5,4,3,1,0,0,250.0,test,2,M
538.141012192,1,1000,5,1,2,5,4,3,1,0,0,250.0,test,1,M
538.829088211,2,1000,1,1,2,5,4,3,1,0,0,250.0,test,2,M
522.356033325,2,1000,1,1,2,5,4,3,1,0,0,250.0,test,2,M
586.373090744,0,1000,4,1,2,5,4,3,1,0,0,250.0,test,0,M
473.108053207,3,1000,2,1,2,5,4,3,1,0,0,250.0,test,3,M
858.850002289,4,1000,3,0,2,5,4,3,1,0,0,250.0,test,1,M
538.423061371,0,1000,4,1,2,5,4,3,1,0,0,250.0,test,0,M
602.337121964,3,1000,2,1,2,5,4,3,1,0,0,250.0,test,3,M
410.358190536,2,1000,1,1,2,5,4,3,1,0,0,250.0,test,2,M
555.757045746,2,1000,1,1,2,5,4,3,1,0,0,250.0,test,2,M
843.840122223,1,1000,5,0,2,5,4,3,1,0,0,250.0,test,0,M
650.400161743,4,1000,3,1,2,5,4,3,1,0,0,250.0,test,4,M
603.744029999,2,1000,1,1,2,5,4,3,1,0,0,250.0,test,2,M
555.717945099,2,1000,1,1,2,5,4,3,1,0,0,250.0,test,2,M
570.327043533,0,1000,4,1,2,5,4,3,1,0,0,250.0,test,0,M
666.385889053,1,1000,5,1,2,5,4,3,1,0,0,250.0,test,1,M
649.015903473,3,1000,2,1,2,5,4,3,1,0,0,250.0,test,3,M
634.408950806,3,1000,2,0,2,5,4,3,1,0,0,250.0,test,4,M
682.368040085,4,1000,3,0,2,5,4,3,1,0,0,250.0,test,1,M
778.411149979,4,1000,3,1,2,5,4,3,1,0,0,250.0,test,4,M
698.403120041,3,1000,2,1,2,5,4,3,1,0,0,250.0,test,3,M
714.219093323,1,1000,5,1,2,5,4,3,1,0,0,250.0,test,1,M
666.3210392,5,1000,0,0,2,5,4,3,1,0,0,250.0,test,0,M
523.608207703,3,1000,2,1,2,5,4,3,1,0,0,250.0,test,3,M
586.317777634,3,1000,2,1,2,5,4,3,1,0,0,250.0,test,3,M
427.777051926,3,1000,2,1,2,5,4,3,1,0,0,250.0,test,3,M
347.748994827,2,1000,1,1,2,5,4,3,1,0,0,250.0,test,2,M
555.663824081,3,1000,2,1,2,5,4,3,1,0,0,250.0,test,3,M
522.438049316,3,1000,2,1,2,5,4,3,1,0,0,250.0,test,3,M
506.310939789,3,1000,2,1,2,5,4,3,1,0,0,250.0,test,3,M
699.353933334,4,1000,3,1,2,5,4,3,1,0,0,250.0,test,4,M
826.230049133,4,1000,3,1,2,5,4,3,1,0,0,250.0,test,4,M
570.854902267,3,1000,2,1,2,5,4,3,1,0,0,250.0,test,3,M
843.538999557,5,1000,0,1,2,5,4,3,1,0,0,250.0,test,5,M
1274.43099022,2,1000,1,1,2,5,4,3,1,0,0,250.0,test,2,M
698.359012604,1,1000,5,1,2,5,4,3,1,0,0,250.0,test,1,M
794.402122498,3,1000,2,1,2,5,4,3,1,0,0,250.0,test,3,M
762.35294342,1,1000,5,1,2,5,4,3,1,0,0,250.0,test,1,M
490.427017212,4,1000,3,1,2,5,4,3,1,0,0,250.0,test,4,M
378.351926804,4,1000,3,1,2,5,4,3,1,0,0,250.0,test,4,M
522.353172302,1,1000,5,1,2,5,4,3,1,0,0,250.0,test,1,M
394.400835037,1,1000,5,1,2,5,4,3,1,0,0,250.0,test,1,M
506.431102753,1,1000,5,1,2,5,4,3,1,0,0,250.0,test,1,M
522.430896759,2,1000,1,0,2,5,4,3,1,0,0,250.0,test,3,M
987.78796196,5,1000,0,1,2,5,4,3,1,0,0,250.0,test,5,M
554.365873337,0,1000,4,1,2,5,4,3,1,0,0,250.0,test,0,M
778.300046921,5,1000,0,1,2,5,4,3,1,0,0,250.0,test,5,M
458.344936371,3,1000,2,1,2,5,4,3,1,0,0,250.0,test,3,M
571.7420578,2,1000,1,1,2,5,4,3,1,0,0,250.0,test,2,M
763.623952866,5,1000,0,1,2,5,4,3,1,0,0,250.0,test,5,M
475.694179535,5,1000,0,1,2,5,4,3,1,0,0,250.0,test,5,M
667.802810669,1,1000,5,1,2,5,4,3,1,0,0,250.0,test,1,M
762.301921844,1,1000,5,1,2,5,4,3,1,0,0,250.0,test,1,M
490.347862244,1,1000,5,1,2,5,4,3,1,0,0,250.0,test,1,M
443.535089493,5,1000,0,0,2,5,4,3,1,0,0,250.0,test,1,M
602.327108383,2,1000,1,1,2,5,4,3,1,0,0,250.0,test,2,M
618.271112442,1,1000,5,1,2,5,4,3,1,0,0,250.0,test,1,M
538.349866867,0,1000,4,1,2,5,4,3,1,0,0,250.0,test,0,M
777.016162872,5,1000,0,1,2,5,4,3,1,0,0,250.0,test,5,M
538.288116455,0,1000,4,1,2,5,4,3,1,0,0,250.0,test,0,M
570.390939713,2,1000,1,1,2,5,4,3,1,0,0,250.0,test,2,M
1067.68894196,5,1000,0,1,2,5,4,3,1,0,0,250.0,test,5,M
586.932897568,1,1000,5,1,2,5,4,3,1,0,0,250.0,test,1,M
571.847915649,0,1000,4,1,2,5,4,3,1,0,0,250.0,test,0,M
506.366968155,0,1000,4,1,2,5,4,3,1,0,0,250.0,test,0,M
651.821136475,2,1000,1,1,2,5,4,3,1,0,0,250.0,test,2,M
699.741125107,3,1000,2,1,2,5,4,3,1,0,0,250.0,test,3,M
554.260015488,1,1000,5,1,2,5,4,3,1,0,0,250.0,test,1,M
426.36013031,1,1000,5,1,2,5,4,3,1,0,0,250.0,test,1,M
410.382986069,1,1000,5,1,2,5,4,3,1,0,0,250.0,test,1,M
346.312999725,1,1000,5,1,2,5,4,3,1,0,0,250.0,test,1,M
410.345077515,5,1000,0,0,2,5,4,3,1,0,0,250.0,test,1,M
1082.3469162,4,1000,3,1,2,5,4,3,1,0,0,250.0,test,4,M
522.387981415,1,1000,5,1,2,5,4,3,1,0,0,250.0,test,1,M
650.344848633,1,1000,5,1,2,5,4,3,1,0,0,250.0,test,1,M
346.328020096,3,1000,2,1,2,5,4,3,1,0,0,250.0,test,3,M
457.11684227,2,1000,1,1,2,5,4,3,1,0,0,250.0,test,2,M
411.756038666,5,1000,0,0,2,5,4,3,1,0,0,250.0,test,0,M
474.318981171,0,1000,4,1,2,5,4,3,1,0,0,250.0,test,0,M
586.379051208,2,1000,1,1,2,5,4,3,1,0,0,250.0,test,2,M
842.36907959,5,1000,0,1,2,5,4,3,1,0,0,250.0,test,5,M
458.389043808,5,1000,0,1,2,5,4,3,1,0,0,250.0,test,5,M
586.231946945,2,1000,1,1,2,5,4,3,1,0,0,250.0,test,2,M
634.194850922,4,1000,3,1,2,5,4,3,1,0,0,250.0,test,4,M
747.787952423,5,1000,0,1,2,5,4,3,1,0,0,250.0,test,5,M
539.824962616,0,1000,4,1,2,5,4,3,1,0,0,250.0,test,0,M
586.266040802,3,1000,2,1,2,5,4,3,1,0,0,250.0,test,3,M
378.40294838,2,1000,1,1,2,5,4,3,1,0,0,250.0,test,2,M
587.553977966,2,1000,1,1,2,5,4,3,1,0,0,250.0,test,2,M
923.763990402,0,1000,4,1,2,5,4,3,1,0,0,250.0,test,0,M
715.652942657,3,1000,2,1,2,5,4,3,1,0,0,250.0,test,3,M
906.399965286,4,1000,3,1,2,5,4,3,1,0,0,250.0,test,4,M
554.082870483,1,1000,5,1,2,5,4,3,1,0,0,250.0,test,1,M
586.231946945,5,1000,0,0,2,5,4,3,1,0,0,250.0,test,0,M
362.215042114,5,1000,0,1,2,5,4,3,1,0,0,250.0,test,5,M
715.754985809,5,1000,0,1,2,5,4,3,1,0,0,250.0,test,5,M
507.865190506,0,1000,4,1,2,5,4,3,1,0,0,250.0,test,0,M
747.820138931,5,1000,0,1,2,5,4,3,1,0,0,250.0,test,5,M
681.095123291,4,1000,3,1,2,5,4,3,1,0,0,250.0,test,4,M
730.353116989,5,1000,0,0,2,5,4,3,1,0,0,250.0,test,0,M
1050.37307739,3,1000,2,1,2,5,4,3,1,0,0,250.0,test,3,M
331.699132919,2,1000,1,1,2,5,4,3,1,0,0,250.0,test,2,M
730.870962143,5,1000,0,1,2,5,4,3,1,0,0,250.0,test,5,M
346.306085587,4,1000,3,1,2,5,4,3,1,0,0,250.0,test,4,M
650.874853134,5,1000,0,1,2,5,4,3,1,0,0,250.0,test,5,M
474.304914474,1,1000,5,1,2,5,4,3,1,0,0,250.0,test,1,M
554.375171661,1,1000,5,1,2,5,4,3,1,0,0,250.0,test,1,M
538.26880455,5,1000,0,1,2,5,4,3,1,0,0,250.0,test,5,M
570.453882217,5,1000,0,1,2,5,4,3,1,0,0,250.0,test,5,M
650.384902954,2,1000,1,1,2,5,4,3,1,0,0,250.0,test,2,M
410.255908966,3,1000,2,1,2,5,4,3,1,0,0,250.0,test,3,M
618.249177933,0,1000,4,1,2,5,4,3,1,0,0,250.0,test,0,M
890.331983566,1,1000,5,1,2,5,4,3,1,0,0,250.0,test,1,M
635.710954666,2,1000,1,1,2,5,4,3,1,0,0,250.0,test,2,M
649.119138718,5,1000,0,1,2,5,4,3,1,0,0,250.0,test,5,M
491.760969162,3,1000,2,1,2,5,4,3,1,0,0,250.0,test,3,M
539.744138718,4,1000,3,1,2,5,4,3,1,0,0,250.0,test,4,M
