sid,block,trial,associaiton_1,association_2,association_3,association_4,training_condition,order_condition,symbol,cue,cue_correct,response,rt,correct,phase
9,1,1,4,2,3,1,600,1,4,1,1,4,1199,1,Training
9,1,2,4,2,3,1,600,1,4,1,1,4,748,1,Training
9,1,3,4,2,3,1,600,1,1,4,1,1,549,1,Training
9,1,4,4,2,3,1,600,1,1,2,0,1,493,1,Training
9,1,5,4,2,3,1,600,1,2,2,1,2,373,1,Training
9,1,6,4,2,3,1,600,1,3,3,1,3,350,1,Training
9,1,7,4,2,3,1,600,1,2,2,1,1,519,0,Training
9,1,8,4,2,3,1,600,1,1,4,1,1,400,1,Training
9,1,9,4,2,3,1,600,1,1,4,1,1,584,1,Training
9,1,10,4,2,3,1,600,1,3,3,1,3,417,1,Training
9,1,11,4,2,3,1,600,1,2,2,1,4,378,0,Training
9,1,12,4,2,3,1,600,1,1,4,1,1,561,1,Training
9,1,13,4,2,3,1,600,1,4,1,1,4,570,1,Training
9,1,14,4,2,3,1,600,1,4,1,1,4,530,1,Training
9,1,15,4,2,3,1,600,1,3,3,1,3,347,1,Training
9,1,16,4,2,3,1,600,1,3,3,1,3,516,1,Training
9,1,17,4,2,3,1,600,1,4,4,0,4,412,1,Training
9,1,18,4,2,3,1,600,1,1,4,1,1,389,1,Training
9,1,19,4,2,3,1,600,1,1,4,1,1,478,1,Training
9,1,20,4,2,3,1,600,1,1,4,1,1,535,1,Training
9,2,1,4,2,3,1,600,1,1,4,1,1,511,1,Training
9,2,2,4,2,3,1,600,1,3,3,1,3,424,1,Training
9,2,3,4,2,3,1,600,1,2,2,1,1,448,0,Training
9,2,4,4,2,3,1,600,1,1,4,1,1,393,1,Training
9,2,5,4,2,3,1,600,1,2,2,1,2,578,1,Training
9,2,6,4,2,3,1,600,1,4,1,1,4,458,1,Training
9,2,7,4,2,3,1,600,1,4,1,1,4,451,1,Training
9,2,8,4,2,3,1,600,1,4,1,1,4,428,1,Training
9,2,9,4,2,3,1,600,1,3,1,0,3,340,1,Training
9,2,10,4,2,3,1,600,1,2,2,1,2,525,1,Training
9,2,11,4,2,3,1,600,1,1,4,1,1,358,1,Training
9,2,12,4,2,3,1,600,1,2,3,0,2,446,1,Training
9,2,13,4,2,3,1,600,1,3,3,1,3,438,1,Training
9,2,14,4,2,3,1,600,1,3,3,1,3,415,1,Training
9,2,15,4,2,3,1,600,1,1,4,1,1,455,1,Training
9,2,16,4,2,3,1,600,1,2,2,1,2,480,1,Training
9,2,17,4,2,3,1,600,1,3,3,1,3,360,1,Training
9,2,18,4,2,3,1,600,1,2,1,0,2,449,1,Training
9,2,19,4,2,3,1,600,1,2,4,0,2,586,1,Training
9,2,20,4,2,3,1,600,1,3,3,1,3,434,1,Training
9,3,1,4,2,3,1,600,1,2,2,1,2,432,1,Training
9,3,2,4,2,3,1,600,1,2,2,1,2,329,1,Training
9,3,3,4,2,3,1,600,1,2,2,1,2,337,1,Training
9,3,4,4,2,3,1,600,1,3,3,1,3,362,1,Training
9,3,5,4,2,3,1,600,1,1,4,1,2,451,0,Training
9,3,6,4,2,3,1,600,1,1,4,1,1,412,1,Training
9,3,7,4,2,3,1,600,1,2,2,1,2,468,1,Training
9,3,8,4,2,3,1,600,1,1,4,1,1,380,1,Training
9,3,9,4,2,3,1,600,1,2,1,0,2,501,1,Training
9,3,10,4,2,3,1,600,1,1,4,1,1,349,1,Training
9,3,11,4,2,3,1,600,1,3,4,0,3,310,1,Training
9,3,12,4,2,3,1,600,1,1,4,1,1,479,1,Training
9,3,13,4,2,3,1,600,1,2,2,1,2,456,1,Training
9,3,14,4,2,3,1,600,1,4,1,1,4,464,1,Training
9,3,15,4,2,3,1,600,1,3,3,1,3,312,1,Training
9,3,16,4,2,3,1,600,1,3,3,1,3,385,1,Training
9,3,17,4,2,3,1,600,1,1,4,1,1,394,1,Training
9,3,18,4,2,3,1,600,1,3,3,1,3,435,1,Training
9,3,19,4,2,3,1,600,1,3,3,1,3,396,1,Training
9,3,20,4,2,3,1,600,1,1,4,1,1,452,1,Training
9,4,1,4,2,3,1,600,1,2,2,1,2,640,1,Training
9,4,2,4,2,3,1,600,1,4,1,1,1,413,0,Training
9,4,3,4,2,3,1,600,1,1,4,1,1,497,1,Training
9,4,4,4,2,3,1,600,1,4,1,1,4,554,1,Training
9,4,5,4,2,3,1,600,1,2,2,1,1,403,0,Training
9,4,6,4,2,3,1,600,1,3,3,1,3,396,1,Training
9,4,7,4,2,3,1,600,1,2,2,1,1,389,0,Training
9,4,8,4,2,3,1,600,1,2,2,1,2,381,1,Training
9,4,9,4,2,3,1,600,1,2,2,1,2,326,1,Training
9,4,10,4,2,3,1,600,1,1,4,1,1,399,1,Training
9,4,11,4,2,3,1,600,1,2,2,1,2,440,1,Training
9,4,12,4,2,3,1,600,1,3,3,1,3,353,1,Training
9,4,13,4,2,3,1,600,1,4,1,1,4,393,1,Training
9,4,14,4,2,3,1,600,1,2,2,1,1,514,0,Training
9,4,15,4,2,3,1,600,1,1,4,1,1,763,1,Training
9,4,16,4,2,3,1,600,1,2,2,1,2,340,1,Training
9,4,17,4,2,3,1,600,1,1,4,1,3,412,0,Training
9,4,18,4,2,3,1,600,1,4,1,1,4,549,1,Training
9,4,19,4,2,3,1,600,1,3,3,1,3,462,1,Training
9,4,20,4,2,3,1,600,1,1,4,1,1,423,1,Training
9,5,1,4,2,3,1,600,1,2,2,1,2,736,1,Training
9,5,2,4,2,3,1,600,1,3,1,0,3,425,1,Training
9,5,3,4,2,3,1,600,1,4,1,1,4,449,1,Training
9,5,4,4,2,3,1,600,1,1,1,0,1,458,1,Training
9,5,5,4,2,3,1,600,1,3,3,1,3,402,1,Training
9,5,6,4,2,3,1,600,1,4,1,1,4,491,1,Training
9,5,7,4,2,3,1,600,1,4,1,1,4,532,1,Training
9,5,8,4,2,3,1,600,1,4,1,1,4,397,1,Training
9,5,9,4,2,3,1,600,1,2,2,1,2,469,1,Training
9,5,10,4,2,3,1,600,1,1,1,0,1,510,1,Training
9,5,11,4,2,3,1,600,1,2,2,1,2,535,1,Training
9,5,12,4,2,3,1,600,1,1,2,0,3,399,0,Training
9,5,13,4,2,3,1,600,1,3,1,0,3,393,1,Training
9,5,14,4,2,3,1,600,1,3,3,1,3,369,1,Training
9,5,15,4,2,3,1,600,1,1,4,1,1,441,1,Training
9,5,16,4,2,3,1,600,1,2,2,1,2,514,1,Training
9,5,17,4,2,3,1,600,1,4,1,1,4,458,1,Training
9,5,18,4,2,3,1,600,1,1,4,1,1,627,1,Training
9,5,19,4,2,3,1,600,1,1,4,1,1,508,1,Training
9,5,20,4,2,3,1,600,1,1,4,1,1,341,1,Training
9,6,1,4,2,3,1,600,1,1,3,0,1,448,1,Training
9,6,2,4,2,3,1,600,1,4,4,0,4,473,1,Training
9,6,3,4,2,3,1,600,1,4,1,1,4,370,1,Training
9,6,4,4,2,3,1,600,1,4,1,1,4,379,1,Training
9,6,5,4,2,3,1,600,1,3,3,1,3,308,1,Training
9,6,6,4,2,3,1,600,1,2,2,1,2,397,1,Training
9,6,7,4,2,3,1,600,1,3,3,1,3,309,1,Training
9,6,8,4,2,3,1,600,1,4,1,1,4,494,1,Training
9,6,9,4,2,3,1,600,1,4,1,1,4,471,1,Training
9,6,10,4,2,3,1,600,1,3,3,1,3,288,1,Training
9,6,11,4,2,3,1,600,1,1,4,1,1,425,1,Training
9,6,12,4,2,3,1,600,1,1,4,1,1,354,1,Training
9,6,13,4,2,3,1,600,1,3,1,0,3,363,1,Training
9,6,14,4,2,3,1,600,1,4,1,1,4,340,1,Training
9,6,15,4,2,3,1,600,1,2,3,0,4,333,0,Training
9,6,16,4,2,3,1,600,1,2,1,0,2,277,1,Training
9,6,17,4,2,3,1,600,1,2,2,1,2,302,1,Training
9,6,18,4,2,3,1,600,1,2,2,1,2,263,1,Training
9,6,19,4,2,3,1,600,1,2,2,1,2,416,1,Training
9,6,20,4,2,3,1,600,1,1,1,0,1,377,1,Training
9,7,1,4,2,3,1,600,1,4,1,1,4,465,1,Training
9,7,2,4,2,3,1,600,1,1,4,1,4,330,0,Training
9,7,3,4,2,3,1,600,1,1,4,1,1,403,1,Training
9,7,4,4,2,3,1,600,1,1,4,1,1,331,1,Training
9,7,5,4,2,3,1,600,1,4,1,1,4,436,1,Training
9,7,6,4,2,3,1,600,1,1,4,1,1,285,1,Training
9,7,7,4,2,3,1,600,1,3,2,0,3,325,1,Training
9,7,8,4,2,3,1,600,1,2,2,1,2,526,1,Training
9,7,9,4,2,3,1,600,1,4,1,1,1,359,0,Training
9,7,10,4,2,3,1,600,1,3,3,1,3,400,1,Training
9,7,11,4,2,3,1,600,1,2,2,1,1,424,0,Training
9,7,12,4,2,3,1,600,1,4,1,1,4,625,1,Training
9,7,13,4,2,3,1,600,1,3,3,1,3,426,1,Training
9,7,14,4,2,3,1,600,1,2,2,1,2,531,1,Training
9,7,15,4,2,3,1,600,1,4,4,0,4,428,1,Training
9,7,16,4,2,3,1,600,1,4,1,1,2,452,0,Training
9,7,17,4,2,3,1,600,1,3,3,1,3,349,1,Training
9,7,18,4,2,3,1,600,1,4,1,1,4,438,1,Training
9,7,19,4,2,3,1,600,1,4,1,1,4,415,1,Training
9,7,20,4,2,3,1,600,1,2,2,1,2,455,1,Training
9,8,1,4,2,3,1,600,1,2,2,1,2,481,1,Training
9,8,2,4,2,3,1,600,1,3,3,1,3,426,1,Training
9,8,3,4,2,3,1,600,1,2,2,1,2,370,1,Training
9,8,4,4,2,3,1,600,1,3,3,1,3,459,1,Training
9,8,5,4,2,3,1,600,1,4,1,1,4,435,1,Training
9,8,6,4,2,3,1,600,1,2,2,1,2,540,1,Training
9,8,7,4,2,3,1,600,1,3,3,1,3,293,1,Training
9,8,8,4,2,3,1,600,1,4,1,1,4,478,1,Training
9,8,9,4,2,3,1,600,1,1,4,1,3,327,0,Training
9,8,10,4,2,3,1,600,1,2,2,1,2,384,1,Training
9,8,11,4,2,3,1,600,1,1,4,1,1,520,1,Training
9,8,12,4,2,3,1,600,1,1,1,0,1,288,1,Training
9,8,13,4,2,3,1,600,1,1,4,1,3,329,0,Training
9,8,14,4,2,3,1,600,1,4,1,1,4,449,1,Training
9,8,15,4,2,3,1,600,1,1,4,1,1,425,1,Training
9,8,16,4,2,3,1,600,1,2,2,1,2,562,1,Training
9,8,17,4,2,3,1,600,1,1,4,1,1,459,1,Training
9,8,18,4,2,3,1,600,1,1,2,0,1,292,1,Training
9,8,19,4,2,3,1,600,1,3,3,1,3,397,1,Training
9,8,20,4,2,3,1,600,1,1,4,1,3,310,0,Training
9,9,1,4,2,3,1,600,1,2,2,1,2,545,1,Training
9,9,2,4,2,3,1,600,1,4,1,1,4,412,1,Training
9,9,3,4,2,3,1,600,1,4,1,1,4,498,1,Training
9,9,4,4,2,3,1,600,1,2,2,1,2,427,1,Training
9,9,5,4,2,3,1,600,1,1,3,0,1,452,1,Training
9,9,6,4,2,3,1,600,1,3,3,1,3,332,1,Training
9,9,7,4,2,3,1,600,1,1,4,1,1,405,1,Training
9,9,8,4,2,3,1,600,1,4,2,0,4,382,1,Training
9,9,9,4,2,3,1,600,1,1,4,1,1,422,1,Training
9,9,10,4,2,3,1,600,1,3,3,1,3,447,1,Training
9,9,11,4,2,3,1,600,1,4,1,1,4,472,1,Training
9,9,12,4,2,3,1,600,1,1,4,1,1,385,1,Training
9,9,13,4,2,3,1,600,1,3,3,1,3,377,1,Training
9,9,14,4,2,3,1,600,1,3,3,1,3,465,1,Training
9,9,15,4,2,3,1,600,1,1,4,1,1,378,1,Training
9,9,16,4,2,3,1,600,1,4,1,1,4,419,1,Training
9,9,17,4,2,3,1,600,1,1,4,1,1,380,1,Training
9,9,18,4,2,3,1,600,1,1,4,1,1,340,1,Training
9,9,19,4,2,3,1,600,1,2,2,1,2,476,1,Training
9,9,20,4,2,3,1,600,1,3,3,1,3,437,1,Training
9,10,1,4,2,3,1,600,1,4,1,1,4,528,1,Training
9,10,2,4,2,3,1,600,1,2,2,1,1,412,0,Training
9,10,3,4,2,3,1,600,1,4,1,1,4,450,1,Training
9,10,4,4,2,3,1,600,1,4,2,0,1,363,0,Training
9,10,5,4,2,3,1,600,1,1,4,1,1,388,1,Training
9,10,6,4,2,3,1,600,1,3,3,1,3,364,1,Training
9,10,7,4,2,3,1,600,1,3,4,0,3,340,1,Training
9,10,8,4,2,3,1,600,1,2,2,1,2,429,1,Training
9,10,9,4,2,3,1,600,1,2,2,1,2,342,1,Training
9,10,10,4,2,3,1,600,1,4,1,1,4,334,1,Training
9,10,11,4,2,3,1,600,1,1,4,1,3,343,0,Training
9,10,12,4,2,3,1,600,1,3,3,1,3,320,1,Training
9,10,13,4,2,3,1,600,1,2,2,1,2,520,1,Training
9,10,14,4,2,3,1,600,1,1,4,1,1,417,1,Training
9,10,15,4,2,3,1,600,1,1,4,1,1,314,1,Training
9,10,16,4,2,3,1,600,1,4,1,1,4,434,1,Training
9,10,17,4,2,3,1,600,1,2,2,1,2,443,1,Training
9,10,18,4,2,3,1,600,1,3,3,1,3,435,1,Training
9,10,19,4,2,3,1,600,1,1,4,1,1,300,1,Training
9,10,20,4,2,3,1,600,1,1,4,1,3,356,0,Training
9,11,1,4,2,3,1,600,1,2,2,1,2,449,1,Training
9,11,2,4,2,3,1,600,1,3,3,1,3,297,1,Training
9,11,3,4,2,3,1,600,1,3,3,1,3,385,1,Training
9,11,4,4,2,3,1,600,1,4,1,1,4,362,1,Training
9,11,5,4,2,3,1,600,1,2,2,1,1,482,0,Training
9,11,6,4,2,3,1,600,1,4,1,1,4,747,1,Training
9,11,7,4,2,3,1,600,1,1,4,1,1,516,1,Training
9,11,8,4,2,3,1,600,1,4,1,1,1,429,0,Training
9,11,9,4,2,3,1,600,1,3,2,0,3,373,1,Training
9,11,10,4,2,3,1,600,1,2,2,1,2,510,1,Training
9,11,11,4,2,3,1,600,1,4,1,1,4,582,1,Training
9,11,12,4,2,3,1,600,1,1,4,1,1,495,1,Training
9,11,13,4,2,3,1,600,1,3,3,1,3,312,1,Training
9,11,14,4,2,3,1,600,1,2,1,0,2,497,1,Training
9,11,15,4,2,3,1,600,1,3,3,1,3,457,1,Training
9,11,16,4,2,3,1,600,1,1,4,1,1,578,1,Training
9,11,17,4,2,3,1,600,1,2,2,1,4,412,0,Training
9,11,18,4,2,3,1,600,1,4,1,1,4,579,1,Training
9,11,19,4,2,3,1,600,1,1,4,1,1,460,1,Training
9,11,20,4,2,3,1,600,1,3,3,1,3,405,1,Training
9,12,1,4,2,3,1,600,1,3,3,1,3,384,1,Training
9,12,2,4,2,3,1,600,1,2,2,1,2,489,1,Training
9,12,3,4,2,3,1,600,1,3,3,1,3,338,1,Training
9,12,4,4,2,3,1,600,1,1,4,1,1,427,1,Training
9,12,5,4,2,3,1,600,1,3,3,1,3,388,1,Training
9,12,6,4,2,3,1,600,1,4,1,1,4,460,1,Training
9,12,7,4,2,3,1,600,1,2,2,1,2,438,1,Training
9,12,8,4,2,3,1,600,1,4,1,1,4,766,1,Training
9,12,9,4,2,3,1,600,1,2,2,1,1,438,0,Training
9,12,10,4,2,3,1,600,1,4,4,0,4,575,1,Training
9,12,11,4,2,3,1,600,1,4,1,1,4,535,1,Training
9,12,12,4,2,3,1,600,1,2,2,1,2,352,1,Training
9,12,13,4,2,3,1,600,1,3,3,1,3,393,1,Training
9,12,14,4,2,3,1,600,1,4,1,1,4,513,1,Training
9,12,15,4,2,3,1,600,1,3,3,1,3,393,1,Training
9,12,16,4,2,3,1,600,1,2,2,1,2,386,1,Training
9,12,17,4,2,3,1,600,1,2,3,0,2,506,1,Training
9,12,18,4,2,3,1,600,1,1,4,1,1,547,1,Training
9,12,19,4,2,3,1,600,1,4,1,1,4,428,1,Training
9,12,20,4,2,3,1,600,1,3,3,1,3,388,1,Training
9,13,1,4,2,3,1,600,1,4,1,1,4,1201,1,Training
9,13,2,4,2,3,1,600,1,2,3,0,1,602,0,Training
9,13,3,4,2,3,1,600,1,2,2,1,2,467,1,Training
9,13,4,4,2,3,1,600,1,3,3,1,3,475,1,Training
9,13,5,4,2,3,1,600,1,1,4,1,1,500,1,Training
9,13,6,4,2,3,1,600,1,3,3,1,3,301,1,Training
9,13,7,4,2,3,1,600,1,2,2,1,2,502,1,Training
9,13,8,4,2,3,1,600,1,1,4,1,3,415,0,Training
9,13,9,4,2,3,1,600,1,3,3,1,3,359,1,Training
9,13,10,4,2,3,1,600,1,4,1,1,4,416,1,Training
9,13,11,4,2,3,1,600,1,3,3,1,3,441,1,Training
9,13,12,4,2,3,1,600,1,3,3,1,3,466,1,Training
9,13,13,4,2,3,1,600,1,3,3,1,3,378,1,Training
9,13,14,4,2,3,1,600,1,4,1,1,3,402,0,Training
9,13,15,4,2,3,1,600,1,2,2,1,2,491,1,Training
9,13,16,4,2,3,1,600,1,2,2,1,2,596,1,Training
9,13,17,4,2,3,1,600,1,1,2,0,3,413,0,Training
9,13,18,4,2,3,1,600,1,3,3,1,3,340,1,Training
9,13,19,4,2,3,1,600,1,4,1,1,4,461,1,Training
9,13,20,4,2,3,1,600,1,2,2,1,4,374,0,Training
9,14,1,4,2,3,1,600,1,3,3,1,3,416,1,Training
9,14,2,4,2,3,1,600,1,3,4,0,3,473,1,Training
9,14,3,4,2,3,1,600,1,3,3,1,3,402,1,Training
9,14,4,4,2,3,1,600,1,4,1,1,4,443,1,Training
9,14,5,4,2,3,1,600,1,1,1,0,1,452,1,Training
9,14,6,4,2,3,1,600,1,4,1,1,4,588,1,Training
9,14,7,4,2,3,1,600,1,3,3,1,3,437,1,Training
9,14,8,4,2,3,1,600,1,2,2,1,2,445,1,Training
9,14,9,4,2,3,1,600,1,3,1,0,2,422,0,Training
9,14,10,4,2,3,1,600,1,3,1,0,3,431,1,Training
9,14,11,4,2,3,1,600,1,1,4,1,1,504,1,Training
9,14,12,4,2,3,1,600,1,4,1,1,4,369,1,Training
9,14,13,4,2,3,1,600,1,4,1,1,4,361,1,Training
9,14,14,4,2,3,1,600,1,4,1,1,4,354,1,Training
9,14,15,4,2,3,1,600,1,1,4,1,3,442,0,Training
9,14,16,4,2,3,1,600,1,1,4,1,1,499,1,Training
9,14,17,4,2,3,1,600,1,1,4,1,1,380,1,Training
9,14,18,4,2,3,1,600,1,1,4,1,1,357,1,Training
9,14,19,4,2,3,1,600,1,2,2,1,2,413,1,Training
9,14,20,4,2,3,1,600,1,3,3,1,3,406,1,Training
9,15,1,4,2,3,1,600,1,1,4,1,2,657,0,Training
9,15,2,4,2,3,1,600,1,2,2,1,2,586,1,Training
9,15,3,4,2,3,1,600,1,1,4,1,3,339,0,Training
9,15,4,4,2,3,1,600,1,1,4,1,1,347,1,Training
9,15,5,4,2,3,1,600,1,2,2,1,2,356,1,Training
9,15,6,4,2,3,1,600,1,2,2,1,2,540,1,Training
9,15,7,4,2,3,1,600,1,2,2,1,2,437,1,Training
9,15,8,4,2,3,1,600,1,2,2,1,2,398,1,Training
9,15,9,4,2,3,1,600,1,2,2,1,2,359,1,Training
9,15,10,4,2,3,1,600,1,4,1,1,4,496,1,Training
9,15,11,4,2,3,1,600,1,4,1,1,4,297,1,Training
9,15,12,4,2,3,1,600,1,1,4,1,3,417,0,Training
9,15,13,4,2,3,1,600,1,2,3,0,2,537,1,Training
9,15,14,4,2,3,1,600,1,3,3,1,4,562,0,Training
9,15,15,4,2,3,1,600,1,4,1,1,4,539,1,Training
9,15,16,4,2,3,1,600,1,2,2,1,2,644,1,Training
9,15,17,4,2,3,1,600,1,1,4,1,1,349,1,Training
9,15,18,4,2,3,1,600,1,4,1,1,4,486,1,Training
9,15,19,4,2,3,1,600,1,3,3,1,3,415,1,Training
9,15,20,4,2,3,1,600,1,3,3,1,3,391,1,Training
9,16,1,4,2,3,1,600,1,3,3,1,3,369,1,Training
9,16,2,4,2,3,1,600,1,3,3,1,3,329,1,Training
9,16,3,4,2,3,1,600,1,2,2,1,2,450,1,Training
9,16,4,4,2,3,1,600,1,4,1,1,4,475,1,Training
9,16,5,4,2,3,1,600,1,2,2,1,2,532,1,Training
9,16,6,4,2,3,1,600,1,4,1,1,4,477,1,Training
9,16,7,4,2,3,1,600,1,3,3,1,3,437,1,Training
9,16,8,4,2,3,1,600,1,4,1,1,4,445,1,Training
9,16,9,4,2,3,1,600,1,1,4,1,1,646,1,Training
9,16,10,4,2,3,1,600,1,4,2,0,4,446,1,Training
9,16,11,4,2,3,1,600,1,2,2,1,2,439,1,Training
9,16,12,4,2,3,1,600,1,4,1,1,4,464,1,Training
9,16,13,4,2,3,1,600,1,4,1,1,4,377,1,Training
9,16,14,4,2,3,1,600,1,4,1,1,4,353,1,Training
9,16,15,4,2,3,1,600,1,4,1,1,4,346,1,Training
9,16,16,4,2,3,1,600,1,1,4,1,1,483,1,Training
9,16,17,4,2,3,1,600,1,1,4,1,1,380,1,Training
9,16,18,4,2,3,1,600,1,3,4,0,3,485,1,Training
9,16,19,4,2,3,1,600,1,3,3,1,3,349,1,Training
9,16,20,4,2,3,1,600,1,1,4,1,1,518,1,Training
9,17,1,4,2,3,1,600,1,3,3,1,3,745,1,Skill
9,17,2,4,2,3,1,600,1,2,3,0,3,-64,0,Skill
9,17,3,4,2,3,1,600,1,4,3,0,4,456,1,Skill
9,17,4,4,2,3,1,600,1,2,3,0,2,447,1,Skill
9,17,5,4,2,3,1,600,1,1,1,0,1,550,1,Skill
9,17,6,4,2,3,1,600,1,2,2,1,2,383,1,Skill
9,17,7,4,2,3,1,600,1,2,3,0,2,375,1,Skill
9,17,8,4,2,3,1,600,1,3,3,1,3,430,1,Skill
9,17,9,4,2,3,1,600,1,1,4,1,1,437,1,Skill
9,17,10,4,2,3,1,600,1,3,1,0,3,526,1,Skill
9,17,11,4,2,3,1,600,1,3,2,0,3,407,1,Skill
9,17,12,4,2,3,1,600,1,3,2,0,3,365,1,Skill
9,17,13,4,2,3,1,600,1,3,4,0,3,405,1,Skill
9,17,14,4,2,3,1,600,1,2,4,0,2,397,1,Skill
9,17,15,4,2,3,1,600,1,1,1,0,1,486,1,Skill
9,17,16,4,2,3,1,600,1,1,4,1,1,415,1,Skill
9,17,17,4,2,3,1,600,1,4,4,0,4,535,1,Skill
9,17,18,4,2,3,1,600,1,3,1,0,3,448,1,Skill
9,17,19,4,2,3,1,600,1,3,1,0,3,361,1,Skill
9,17,20,4,2,3,1,600,1,2,4,0,2,369,1,Skill
9,18,1,4,2,3,1,600,1,2,4,0,2,441,1,Skill
9,18,2,4,2,3,1,600,1,4,4,0,4,369,1,Skill
9,18,3,4,2,3,1,600,1,4,1,1,4,426,1,Skill
9,18,4,4,2,3,1,600,1,4,2,0,4,354,1,Skill
9,18,5,4,2,3,1,600,1,4,4,0,4,314,1,Skill
9,18,6,4,2,3,1,600,1,3,3,1,3,419,1,Skill
9,18,7,4,2,3,1,600,1,3,2,0,3,297,1,Skill
9,18,8,4,2,3,1,600,1,3,1,0,3,241,1,Skill
9,18,9,4,2,3,1,600,1,2,3,0,2,413,1,Skill
9,18,10,4,2,3,1,600,1,4,3,0,4,433,1,Skill
9,18,11,4,2,3,1,600,1,4,4,0,4,412,1,Skill
9,18,12,4,2,3,1,600,1,1,4,1,3,369,0,Skill
9,18,13,4,2,3,1,600,1,2,2,1,2,458,1,Skill
9,18,14,4,2,3,1,600,1,2,2,1,2,369,1,Skill
9,18,15,4,2,3,1,600,1,1,3,0,1,297,1,Skill
9,18,16,4,2,3,1,600,1,2,2,1,2,384,1,Skill
9,18,17,4,2,3,1,600,1,2,4,0,2,360,1,Skill
9,18,18,4,2,3,1,600,1,3,3,1,3,529,1,Skill
9,18,19,4,2,3,1,600,1,3,2,0,3,377,1,Skill
9,18,20,4,2,3,1,600,1,4,2,0,4,400,1,Skill
9,19,1,4,2,3,1,600,1,4,4,0,4,412,1,Skill
9,19,2,4,2,3,1,600,1,1,3,0,3,466,0,Skill
9,19,3,4,2,3,1,600,1,3,2,0,3,297,1,Skill
9,19,4,4,2,3,1,600,1,4,3,0,4,384,1,Skill
9,19,5,4,2,3,1,600,1,1,4,1,1,344,1,Skill
9,19,6,4,2,3,1,600,1,1,4,1,1,336,1,Skill
9,19,7,4,2,3,1,600,1,2,1,0,2,521,1,Skill
9,19,8,4,2,3,1,600,1,3,4,0,3,514,1,Skill
9,19,9,4,2,3,1,600,1,2,4,0,2,442,1,Skill
9,19,10,4,2,3,1,600,1,4,4,0,4,435,1,Skill
9,19,11,4,2,3,1,600,1,1,1,0,1,394,1,Skill
9,19,12,4,2,3,1,600,1,1,4,1,1,403,1,Skill
9,19,13,4,2,3,1,600,1,4,1,1,4,476,1,Skill
9,19,14,4,2,3,1,600,1,1,1,0,2,500,0,Skill
9,19,15,4,2,3,1,600,1,2,1,0,2,397,1,Skill
9,19,16,4,2,3,1,600,1,4,4,0,4,469,1,Skill
9,19,17,4,2,3,1,600,1,4,4,0,4,382,1,Skill
9,19,18,4,2,3,1,600,1,1,4,1,1,455,1,Skill
9,19,19,4,2,3,1,600,1,1,3,0,1,431,1,Skill
9,19,20,4,2,3,1,600,1,2,1,0,2,582,1,Skill
9,20,1,4,2,3,1,600,1,4,3,0,4,633,1,Skill
9,20,2,4,2,3,1,600,1,3,1,0,3,368,1,Skill
9,20,3,4,2,3,1,600,1,3,2,0,3,440,1,Skill
9,20,4,4,2,3,1,600,1,4,3,0,4,368,1,Skill
9,20,5,4,2,3,1,600,1,2,4,0,2,391,1,Skill
9,20,6,4,2,3,1,600,1,4,4,0,4,640,1,Skill
9,20,7,4,2,3,1,600,1,2,1,0,2,412,1,Skill
9,20,8,4,2,3,1,600,1,4,4,0,4,402,1,Skill
9,20,9,4,2,3,1,600,1,4,1,1,4,554,1,Skill
9,20,10,4,2,3,1,600,1,1,3,0,1,482,1,Skill
9,20,11,4,2,3,1,600,1,3,1,0,3,412,1,Skill
9,20,12,4,2,3,1,600,1,3,1,0,3,418,1,Skill
9,20,13,4,2,3,1,600,1,4,3,0,4,395,1,Skill
9,20,14,4,2,3,1,600,1,1,3,0,1,451,1,Skill
9,20,15,4,2,3,1,600,1,1,1,0,1,442,1,Skill
9,20,16,4,2,3,1,600,1,1,1,0,1,387,1,Skill
9,20,17,4,2,3,1,600,1,3,3,1,3,507,1,Skill
9,20,18,4,2,3,1,600,1,1,1,0,1,371,1,Skill
9,20,19,4,2,3,1,600,1,4,4,0,4,428,1,Skill
9,20,20,4,2,3,1,600,1,4,1,1,4,373,1,Skill
9,21,1,4,2,3,1,600,1,1,4,1,1,425,1,Skill
9,21,2,4,2,3,1,600,1,4,2,0,4,402,1,Skill
9,21,3,4,2,3,1,600,1,3,3,1,3,489,1,Skill
9,21,4,4,2,3,1,600,1,3,2,0,3,352,1,Skill
9,21,5,4,2,3,1,600,1,4,3,0,4,407,1,Skill
9,21,6,4,2,3,1,600,1,3,1,0,3,335,1,Skill
9,21,7,4,2,3,1,600,1,3,4,0,3,328,1,Skill
9,21,8,4,2,3,1,600,1,3,4,0,3,304,1,Skill
9,21,9,4,2,3,1,600,1,3,2,0,3,345,1,Skill
9,21,10,4,2,3,1,600,1,3,2,0,3,305,1,Skill
9,21,11,4,2,3,1,600,1,2,3,0,2,440,1,Skill
9,21,12,4,2,3,1,600,1,1,4,1,1,400,1,Skill
9,21,13,4,2,3,1,600,1,3,4,0,3,2681,1,Skill
9,21,14,4,2,3,1,600,1,4,3,0,4,421,1,Skill
9,21,15,4,2,3,1,600,1,3,3,1,3,460,1,Skill
9,21,16,4,2,3,1,600,1,3,2,0,3,420,1,Skill
9,21,17,4,2,3,1,600,1,3,2,0,3,363,1,Skill
9,21,18,4,2,3,1,600,1,2,3,0,2,483,1,Skill
9,21,19,4,2,3,1,600,1,4,2,0,4,522,1,Skill
9,21,20,4,2,3,1,600,1,2,4,0,2,513,1,Skill
8,1,1,2,3,4,1,600,1,1,2,1,1,832,1,Training
8,1,2,2,3,4,1,600,1,3,4,1,3,601,1,Training
8,1,3,2,3,4,1,600,1,1,2,1,1,562,1,Training
8,1,4,2,3,4,1,600,1,1,2,1,1,507,1,Training
8,1,5,2,3,4,1,600,1,4,1,1,4,579,1,Training
8,1,6,2,3,4,1,600,1,2,3,1,2,715,1,Training
8,1,7,2,3,4,1,600,1,3,4,1,3,517,1,Training
8,1,8,2,3,4,1,600,1,4,1,1,4,397,1,Training
8,1,9,2,3,4,1,600,1,2,3,1,2,694,1,Training
8,1,10,2,3,4,1,600,1,1,2,1,1,447,1,Training
8,1,11,2,3,4,1,600,1,3,4,1,3,472,1,Training
8,1,12,2,3,4,1,600,1,1,2,1,1,545,1,Training
8,1,13,2,3,4,1,600,1,4,1,1,4,521,1,Training
8,1,14,2,3,4,1,600,1,2,3,1,2,627,1,Training
8,1,15,2,3,4,1,600,1,3,4,1,3,540,1,Training
8,1,16,2,3,4,1,600,1,2,3,1,2,901,1,Training
8,1,17,2,3,4,1,600,1,3,4,1,3,634,1,Training
8,1,18,2,3,4,1,600,1,4,1,1,4,530,1,Training
8,1,19,2,3,4,1,600,1,4,1,1,4,651,1,Training
8,1,20,2,3,4,1,600,1,3,4,1,3,628,1,Training
8,2,1,2,3,4,1,600,1,2,3,1,2,513,1,Training
8,2,2,2,3,4,1,600,1,2,3,1,1,474,0,Training
8,2,3,2,3,4,1,600,1,4,1,1,4,579,1,Training
8,2,4,2,3,4,1,600,1,4,1,1,4,524,1,Training
8,2,5,2,3,4,1,600,1,2,3,1,2,501,1,Training
8,2,6,2,3,4,1,600,1,3,4,1,3,398,1,Training
8,2,7,2,3,4,1,600,1,1,2,1,1,454,1,Training
8,2,8,2,3,4,1,600,1,4,1,1,4,448,1,Training
8,2,9,2,3,4,1,600,1,1,2,1,1,473,1,Training
8,2,10,2,3,4,1,600,1,3,4,1,3,354,1,Training
8,2,11,2,3,4,1,600,1,3,4,1,3,458,1,Training
8,2,12,2,3,4,1,600,1,3,4,1,3,499,1,Training
8,2,13,2,3,4,1,600,1,4,1,1,1,732,0,Training
8,2,14,2,3,4,1,600,1,4,1,1,4,581,1,Training
8,2,15,2,3,4,1,600,1,2,2,0,2,685,1,Training
8,2,16,2,3,4,1,600,1,2,3,1,2,501,1,Training
8,2,17,2,3,4,1,600,1,1,2,1,1,495,1,Training
8,2,18,2,3,4,1,600,1,1,4,0,1,439,1,Training
8,2,19,2,3,4,1,600,1,4,1,1,4,528,1,Training
8,2,20,2,3,4,1,600,1,4,2,0,4,441,1,Training
8,3,1,2,3,4,1,600,1,1,2,1,1,545,1,Training
8,3,2,2,3,4,1,600,1,2,3,1,2,586,1,Training
8,3,3,2,3,4,1,600,1,4,1,1,4,499,1,Training
8,3,4,2,3,4,1,600,1,1,2,1,1,572,1,Training
8,3,5,2,3,4,1,600,1,4,1,1,4,565,1,Training
8,3,6,2,3,4,1,600,1,3,1,0,3,446,1,Training
8,3,7,2,3,4,1,600,1,4,1,1,4,614,1,Training
8,3,8,2,3,4,1,600,1,3,4,1,3,575,1,Training
8,3,9,2,3,4,1,600,1,4,1,1,4,488,1,Training
8,3,10,2,3,4,1,600,1,1,2,1,1,529,1,Training
8,3,11,2,3,4,1,600,1,1,2,1,2,378,0,Training
8,3,12,2,3,4,1,600,1,3,4,1,3,531,1,Training
8,3,13,2,3,4,1,600,1,4,1,1,4,444,1,Training
8,3,14,2,3,4,1,600,1,4,1,1,4,469,1,Training
8,3,15,2,3,4,1,600,1,4,1,1,4,430,1,Training
8,3,16,2,3,4,1,600,1,3,4,1,3,455,1,Training
8,3,17,2,3,4,1,600,1,3,4,1,3,512,1,Training
8,3,18,2,3,4,1,600,1,4,1,1,4,393,1,Training
8,3,19,2,3,4,1,600,1,4,1,1,4,466,1,Training
8,3,20,2,3,4,1,600,1,1,2,1,1,603,1,Training
8,4,1,2,3,4,1,600,1,3,4,1,3,577,1,Training
8,4,2,2,3,4,1,600,1,4,1,1,4,490,1,Training
8,4,3,2,3,4,1,600,1,4,1,1,4,483,1,Training
8,4,4,2,3,4,1,600,1,1,2,1,1,508,1,Training
8,4,5,2,3,4,1,600,1,2,3,1,2,550,1,Training
8,4,6,2,3,4,1,600,1,4,4,0,4,431,1,Training
8,4,7,2,3,4,1,600,1,3,2,0,3,520,1,Training
8,4,8,2,3,4,1,600,1,4,1,1,4,465,1,Training
8,4,9,2,3,4,1,600,1,4,3,0,4,377,1,Training
8,4,10,2,3,4,1,600,1,3,4,1,3,370,1,Training
8,4,11,2,3,4,1,600,1,4,1,1,2,379,0,Training
8,4,12,2,3,4,1,600,1,4,3,0,4,515,1,Training
8,4,13,2,3,4,1,600,1,2,3,1,2,540,1,Training
8,4,14,2,3,4,1,600,1,4,1,1,4,405,1,Training
8,4,15,2,3,4,1,600,1,1,2,1,1,460,1,Training
8,4,16,2,3,4,1,600,1,2,3,1,2,533,1,Training
8,4,17,2,3,4,1,600,1,4,3,0,4,415,1,Training
8,4,18,2,3,4,1,600,1,1,2,1,1,472,1,Training
8,4,19,2,3,4,1,600,1,4,1,1,4,433,1,Training
8,4,20,2,3,4,1,600,1,3,4,1,3,490,1,Training
8,5,1,2,3,4,1,600,1,4,1,1,4,497,1,Training
8,5,2,2,3,4,1,600,1,2,3,1,2,522,1,Training
8,5,3,2,3,4,1,600,1,2,3,1,2,563,1,Training
8,5,4,2,3,4,1,600,1,4,1,1,4,460,1,Training
8,5,5,2,3,4,1,600,1,3,4,1,3,469,1,Training
8,5,6,2,3,4,1,600,1,1,2,1,1,622,1,Training
8,5,7,2,3,4,1,600,1,1,2,1,1,455,1,Training
8,5,8,2,3,4,1,600,1,4,1,1,4,560,1,Training
8,5,9,2,3,4,1,600,1,1,2,1,1,440,1,Training
8,5,10,2,3,4,1,600,1,2,3,1,2,512,1,Training
8,5,11,2,3,4,1,600,1,3,4,1,3,473,1,Training
8,5,12,2,3,4,1,600,1,2,3,1,2,514,1,Training
8,5,13,2,3,4,1,600,1,1,2,1,1,507,1,Training
8,5,14,2,3,4,1,600,1,1,2,1,1,323,1,Training
8,5,15,2,3,4,1,600,1,1,2,1,1,397,1,Training
8,5,16,2,3,4,1,600,1,3,4,1,3,422,1,Training
8,5,17,2,3,4,1,600,1,4,1,1,4,462,1,Training
8,5,18,2,3,4,1,600,1,1,2,1,4,439,0,Training
8,5,19,2,3,4,1,600,1,3,4,1,3,464,1,Training
8,5,20,2,3,4,1,600,1,1,2,1,1,424,1,Training
8,6,1,2,3,4,1,600,1,3,4,1,3,481,1,Training
8,6,2,2,3,4,1,600,1,1,2,1,1,426,1,Training
8,6,3,2,3,4,1,600,1,3,4,1,3,387,1,Training
8,6,4,2,3,4,1,600,1,2,3,1,2,428,1,Training
8,6,5,2,3,4,1,600,1,2,3,1,2,373,1,Training
8,6,6,2,3,4,1,600,1,4,1,1,4,604,1,Training
8,6,7,2,3,4,1,600,1,4,1,1,4,502,1,Training
8,6,8,2,3,4,1,600,1,2,3,1,2,495,1,Training
8,6,9,2,3,4,1,600,1,1,2,1,1,440,1,Training
8,6,10,2,3,4,1,600,1,3,4,1,3,384,1,Training
8,6,11,2,3,4,1,600,1,2,4,0,2,441,1,Training
8,6,12,2,3,4,1,600,1,1,2,1,1,386,1,Training
8,6,13,2,3,4,1,600,1,3,4,1,3,474,1,Training
8,6,14,2,3,4,1,600,1,1,3,0,1,387,1,Training
8,6,15,2,3,4,1,600,1,1,2,1,2,460,0,Training
8,6,16,2,3,4,1,600,1,4,2,0,4,484,1,Training
8,6,17,2,3,4,1,600,1,4,1,1,1,572,0,Training
8,6,18,2,3,4,1,600,1,3,4,1,3,598,1,Training
8,6,19,2,3,4,1,600,1,1,2,1,1,432,1,Training
8,6,20,2,3,4,1,600,1,3,4,1,3,488,1,Training
8,7,1,2,3,4,1,600,1,1,2,1,1,497,1,Training
8,7,2,2,3,4,1,600,1,2,3,1,2,587,1,Training
8,7,3,2,3,4,1,600,1,1,1,0,1,340,1,Training
8,7,4,2,3,4,1,600,1,4,1,1,4,493,1,Training
8,7,5,2,3,4,1,600,1,2,3,1,2,470,1,Training
8,7,6,2,3,4,1,600,1,4,1,1,4,447,1,Training
8,7,7,2,3,4,1,600,1,3,4,1,3,472,1,Training
8,7,8,2,3,4,1,600,1,4,1,1,4,465,1,Training
8,7,9,2,3,4,1,600,1,2,3,1,2,522,1,Training
8,7,10,2,3,4,1,600,1,2,3,1,2,419,1,Training
8,7,11,2,3,4,1,600,1,1,2,1,1,427,1,Training
8,7,12,2,3,4,1,600,1,4,1,1,4,580,1,Training
8,7,13,2,3,4,1,600,1,3,4,1,3,524,1,Training
8,7,14,2,3,4,1,600,1,3,4,1,3,453,1,Training
8,7,15,2,3,4,1,600,1,3,4,1,3,431,1,Training
8,7,16,2,3,4,1,600,1,1,2,1,1,455,1,Training
8,7,17,2,3,4,1,600,1,1,2,1,1,400,1,Training
8,7,18,2,3,4,1,600,1,3,4,1,3,457,1,Training
8,7,19,2,3,4,1,600,1,1,2,1,1,401,1,Training
8,7,20,2,3,4,1,600,1,3,4,1,3,458,1,Training
8,8,1,2,3,4,1,600,1,3,4,1,3,434,1,Training
8,8,2,2,3,4,1,600,1,2,3,1,2,507,1,Training
8,8,3,2,3,4,1,600,1,1,2,1,1,484,1,Training
8,8,4,2,3,4,1,600,1,4,1,1,4,445,1,Training
8,8,5,2,3,4,1,600,1,4,1,1,4,470,1,Training
8,8,6,2,3,4,1,600,1,3,4,1,3,399,1,Training
8,8,7,2,3,4,1,600,1,1,2,1,1,407,1,Training
8,8,8,2,3,4,1,600,1,3,4,1,3,480,1,Training
8,8,9,2,3,4,1,600,1,4,1,1,4,472,1,Training
8,8,10,2,3,4,1,600,1,3,4,1,3,433,1,Training
8,8,11,2,3,4,1,600,1,3,4,1,3,490,1,Training
8,8,12,2,3,4,1,600,1,1,2,1,1,579,1,Training
8,8,13,2,3,4,1,600,1,4,1,1,4,347,1,Training
8,8,14,2,3,4,1,600,1,4,1,1,4,484,1,Training
8,8,15,2,3,4,1,600,1,1,2,1,1,477,1,Training
8,8,16,2,3,4,1,600,1,2,2,0,2,470,1,Training
8,8,17,2,3,4,1,600,1,2,3,1,3,367,0,Training
8,8,18,2,3,4,1,600,1,2,3,1,2,360,1,Training
8,8,19,2,3,4,1,600,1,3,4,1,3,465,1,Training
8,8,20,2,3,4,1,600,1,3,4,1,3,314,1,Training
8,9,1,2,3,4,1,600,1,3,4,1,3,465,1,Training
8,9,2,2,3,4,1,600,1,2,3,1,2,458,1,Training
8,9,3,2,3,4,1,600,1,3,4,1,3,355,1,Training
8,9,4,2,3,4,1,600,1,3,4,1,3,316,1,Training
8,9,5,2,3,4,1,600,1,1,2,1,4,405,0,Training
8,9,6,2,3,4,1,600,1,3,4,1,1,365,0,Training
8,9,7,2,3,4,1,600,1,2,3,1,2,455,1,Training
8,9,8,2,3,4,1,600,1,2,3,1,2,368,1,Training
8,9,9,2,3,4,1,600,1,4,1,1,4,441,1,Training
8,9,10,2,3,4,1,600,1,3,4,1,3,433,1,Training
8,9,11,2,3,4,1,600,1,2,3,1,1,394,0,Training
8,9,12,2,3,4,1,600,1,2,1,0,2,467,1,Training
8,9,13,2,3,4,1,600,1,4,1,1,4,540,1,Training
8,9,14,2,3,4,1,600,1,2,3,1,2,453,1,Training
8,9,15,2,3,4,1,600,1,4,2,0,4,414,1,Training
8,9,16,2,3,4,1,600,1,4,1,1,4,471,1,Training
8,9,17,2,3,4,1,600,1,2,3,1,2,496,1,Training
8,9,18,2,3,4,1,600,1,2,3,1,1,441,0,Training
8,9,19,2,3,4,1,600,1,3,4,1,3,418,1,Training
8,9,20,2,3,4,1,600,1,3,4,1,2,458,0,Training
8,10,1,2,3,4,1,600,1,1,2,1,1,833,1,Training
8,10,2,2,3,4,1,600,1,1,1,0,1,394,1,Training
8,10,3,2,3,4,1,600,1,4,1,1,4,483,1,Training
8,10,4,2,3,4,1,600,1,4,1,1,4,460,1,Training
8,10,5,2,3,4,1,600,1,4,1,1,4,565,1,Training
8,10,6,2,3,4,1,600,1,1,2,1,1,478,1,Training
8,10,7,2,3,4,1,600,1,1,2,1,3,471,0,Training
8,10,8,2,3,4,1,600,1,4,1,1,4,544,1,Training
8,10,9,2,3,4,1,600,1,4,1,1,4,473,1,Training
8,10,10,2,3,4,1,600,1,3,1,0,3,514,1,Training
8,10,11,2,3,4,1,600,1,4,1,1,4,507,1,Training
8,10,12,2,3,4,1,600,1,1,2,1,1,420,1,Training
8,10,13,2,3,4,1,600,1,4,1,1,4,509,1,Training
8,10,14,2,3,4,1,600,1,3,4,1,3,342,1,Training
8,10,15,2,3,4,1,600,1,3,4,1,3,431,1,Training
8,10,16,2,3,4,1,600,1,3,4,1,3,412,1,Training
8,10,17,2,3,4,1,600,1,4,1,1,4,417,1,Training
8,10,18,2,3,4,1,600,1,1,2,1,1,425,1,Training
8,10,19,2,3,4,1,600,1,1,4,0,1,354,1,Training
8,10,20,2,3,4,1,600,1,4,1,1,4,426,1,Training
8,11,1,2,3,4,1,600,1,4,1,1,1,562,0,Training
8,11,2,2,3,4,1,600,1,3,4,1,3,555,1,Training
8,11,3,2,3,4,1,600,1,2,3,1,2,549,1,Training
8,11,4,2,3,4,1,600,1,3,3,0,3,462,1,Training
8,11,5,2,3,4,1,600,1,2,3,1,2,471,1,Training
8,11,6,2,3,4,1,600,1,3,4,1,3,304,1,Training
8,11,7,2,3,4,1,600,1,1,4,0,1,281,1,Training
8,11,8,2,3,4,1,600,1,4,1,1,4,433,1,Training
8,11,9,2,3,4,1,600,1,3,1,0,4,426,0,Training
8,11,10,2,3,4,1,600,1,1,2,1,1,434,1,Training
8,11,11,2,3,4,1,600,1,2,3,1,3,379,0,Training
8,11,12,2,3,4,1,600,1,4,1,1,4,532,1,Training
8,11,13,2,3,4,1,600,1,1,2,1,1,462,1,Training
8,11,14,2,3,4,1,600,1,3,4,1,3,423,1,Training
8,11,15,2,3,4,1,600,1,3,4,1,3,351,1,Training
8,11,16,2,3,4,1,600,1,1,2,1,1,408,1,Training
8,11,17,2,3,4,1,600,1,4,1,1,4,448,1,Training
8,11,18,2,3,4,1,600,1,4,1,1,4,521,1,Training
8,11,19,2,3,4,1,600,1,3,4,1,3,515,1,Training
8,11,20,2,3,4,1,600,1,3,4,1,3,316,1,Training
8,12,1,2,3,4,1,600,1,4,1,1,4,481,1,Training
8,12,2,2,3,4,1,600,1,3,4,1,3,443,1,Training
8,12,3,2,3,4,1,600,1,3,1,0,3,356,1,Training
8,12,4,2,3,4,1,600,1,4,1,1,4,317,1,Training
8,12,5,2,3,4,1,600,1,2,3,1,2,534,1,Training
8,12,6,2,3,4,1,600,1,4,1,1,4,558,1,Training
8,12,7,2,3,4,1,600,1,4,1,1,4,359,1,Training
8,12,8,2,3,4,1,600,1,3,4,1,3,432,1,Training
8,12,9,2,3,4,1,600,1,1,2,1,1,297,1,Training
8,12,10,2,3,4,1,600,1,1,2,1,1,418,1,Training
8,12,11,2,3,4,1,600,1,2,3,1,2,426,1,Training
8,12,12,2,3,4,1,600,1,1,2,1,1,403,1,Training
8,12,13,2,3,4,1,600,1,2,3,1,2,460,1,Training
8,12,14,2,3,4,1,600,1,4,1,1,4,453,1,Training
8,12,15,2,3,4,1,600,1,2,3,1,4,365,0,Training
8,12,16,2,3,4,1,600,1,2,3,1,2,374,1,Training
8,12,17,2,3,4,1,600,1,2,3,1,2,319,1,Training
8,12,18,2,3,4,1,600,1,3,4,1,3,456,1,Training
8,12,19,2,3,4,1,600,1,3,4,1,3,401,1,Training
8,12,20,2,3,4,1,600,1,2,3,1,3,412,0,Training
8,13,1,2,3,4,1,600,1,1,2,1,1,385,1,Training
8,13,2,2,3,4,1,600,1,2,3,1,2,473,1,Training
8,13,3,2,3,4,1,600,1,2,3,1,2,370,1,Training
8,13,4,2,3,4,1,600,1,4,1,1,4,491,1,Training
8,13,5,2,3,4,1,600,1,4,1,1,4,372,1,Training
8,13,6,2,3,4,1,600,1,1,2,1,1,493,1,Training
8,13,7,2,3,4,1,600,1,4,1,1,4,453,1,Training
8,13,8,2,3,4,1,600,1,2,3,1,2,414,1,Training
8,13,9,2,3,4,1,600,1,2,3,1,2,472,1,Training
8,13,10,2,3,4,1,600,1,4,1,1,4,433,1,Training
8,13,11,2,3,4,1,600,1,4,1,1,4,395,1,Training
8,13,12,2,3,4,1,600,1,1,2,1,1,403,1,Training
8,13,13,2,3,4,1,600,1,4,1,1,4,348,1,Training
8,13,14,2,3,4,1,600,1,3,4,1,3,308,1,Training
8,13,15,2,3,4,1,600,1,3,4,1,3,349,1,Training
8,13,16,2,3,4,1,600,1,2,3,1,2,534,1,Training
8,13,17,2,3,4,1,600,1,3,4,1,3,558,1,Training
8,13,18,2,3,4,1,600,1,2,3,1,2,440,1,Training
8,13,19,2,3,4,1,600,1,4,1,1,4,368,1,Training
8,13,20,2,3,4,1,600,1,4,1,1,4,521,1,Training
8,14,1,2,3,4,1,600,1,2,3,1,2,785,1,Training
8,14,2,2,3,4,1,600,1,4,1,1,4,474,1,Training
8,14,3,2,3,4,1,600,1,4,1,1,4,403,1,Training
8,14,4,2,3,4,1,600,1,1,2,1,1,443,1,Training
8,14,5,2,3,4,1,600,1,2,3,1,2,484,1,Training
8,14,6,2,3,4,1,600,1,1,2,1,1,509,1,Training
8,14,7,2,3,4,1,600,1,3,4,1,3,502,1,Training
8,14,8,2,3,4,1,600,1,4,1,1,4,431,1,Training
8,14,9,2,3,4,1,600,1,2,3,1,2,487,1,Training
8,14,10,2,3,4,1,600,1,2,3,1,2,497,1,Training
8,14,11,2,3,4,1,600,1,2,3,1,2,458,1,Training
8,14,12,2,3,4,1,600,1,3,4,1,4,451,0,Training
8,14,13,2,3,4,1,600,1,2,3,1,2,476,1,Training
8,14,14,2,3,4,1,600,1,4,1,1,4,468,1,Training
8,14,15,2,3,4,1,600,1,4,1,1,4,413,1,Training
8,14,16,2,3,4,1,600,1,4,1,1,4,326,1,Training
8,14,17,2,3,4,1,600,1,1,2,1,1,463,1,Training
8,14,18,2,3,4,1,600,1,1,2,1,1,312,1,Training
8,14,19,2,3,4,1,600,1,1,2,1,1,290,1,Training
8,14,20,2,3,4,1,600,1,1,2,1,1,555,1,Training
8,15,1,2,3,4,1,600,1,3,4,1,3,512,1,Training
8,15,2,2,3,4,1,600,1,1,2,1,1,442,1,Training
8,15,3,2,3,4,1,600,1,3,4,1,3,419,1,Training
8,15,4,2,3,4,1,600,1,2,3,1,1,397,0,Training
8,15,5,2,3,4,1,600,1,1,2,1,1,294,1,Training
8,15,6,2,3,4,1,600,1,2,3,1,2,431,1,Training
8,15,7,2,3,4,1,600,1,2,1,0,3,344,0,Training
8,15,8,2,3,4,1,600,1,3,4,1,3,481,1,Training
8,15,9,2,3,4,1,600,1,2,1,0,3,458,0,Training
8,15,10,2,3,4,1,600,1,1,2,1,2,419,0,Training
8,15,11,2,3,4,1,600,1,4,1,1,4,459,1,Training
8,15,12,2,3,4,1,600,1,3,4,1,3,436,1,Training
8,15,13,2,3,4,1,600,1,1,2,1,2,461,0,Training
8,15,14,2,3,4,1,600,1,1,2,1,1,374,1,Training
8,15,15,2,3,4,1,600,1,2,3,1,2,494,1,Training
8,15,16,2,3,4,1,600,1,3,4,1,3,376,1,Training
8,15,17,2,3,4,1,600,1,1,2,1,1,368,1,Training
8,15,18,2,3,4,1,600,1,2,3,1,3,425,0,Training
8,15,19,2,3,4,1,600,1,2,3,1,2,466,1,Training
8,15,20,2,3,4,1,600,1,4,1,1,4,475,1,Training
8,16,1,2,3,4,1,600,1,1,2,1,1,434,1,Training
8,16,2,2,3,4,1,600,1,4,1,1,4,475,1,Training
8,16,3,2,3,4,1,600,1,2,3,1,2,516,1,Training
8,16,4,2,3,4,1,600,1,3,4,1,3,381,1,Training
8,16,5,2,3,4,1,600,1,3,4,1,3,294,1,Training
8,16,6,2,3,4,1,600,1,4,1,1,4,479,1,Training
8,16,7,2,3,4,1,600,1,4,1,1,4,504,1,Training
8,16,8,2,3,4,1,600,1,2,3,1,2,576,1,Training
8,16,9,2,3,4,1,600,1,1,2,1,1,426,1,Training
8,16,10,2,3,4,1,600,1,3,4,1,3,435,1,Training
8,16,11,2,3,4,1,600,1,1,2,1,1,413,1,Training
8,16,12,2,3,4,1,600,1,4,3,0,4,466,1,Training
8,16,13,2,3,4,1,600,1,4,1,1,4,427,1,Training
8,16,14,2,3,4,1,600,1,4,1,1,4,340,1,Training
8,16,15,2,3,4,1,600,1,1,2,1,1,349,1,Training
8,16,16,2,3,4,1,600,1,4,1,1,3,374,0,Training
8,16,17,2,3,4,1,600,1,3,3,0,3,494,1,Training
8,16,18,2,3,4,1,600,1,4,1,1,4,407,1,Training
8,16,19,2,3,4,1,600,1,3,4,1,3,383,1,Training
8,16,20,2,3,4,1,600,1,3,4,1,3,456,1,Training
8,17,1,2,3,4,1,600,1,3,1,0,3,760,1,Skill
8,17,2,2,3,4,1,600,1,4,2,0,4,562,1,Skill
8,17,3,2,3,4,1,600,1,2,3,1,2,345,1,Skill
8,17,4,2,3,4,1,600,1,4,1,1,4,273,1,Skill
8,17,5,2,3,4,1,600,1,1,2,1,1,-54,1,Skill
8,17,6,2,3,4,1,600,1,4,2,0,1,-15,0,Skill
8,17,7,2,3,4,1,600,1,3,2,0,3,425,1,Skill
8,17,8,2,3,4,1,600,1,2,3,1,2,240,1,Skill
8,17,9,2,3,4,1,600,1,2,4,0,1,504,0,Skill
8,17,10,2,3,4,1,600,1,3,2,0,3,545,1,Skill
8,17,11,2,3,4,1,600,1,2,3,1,2,265,1,Skill
8,17,12,2,3,4,1,600,1,1,2,1,2,432,0,Skill
8,17,13,2,3,4,1,600,1,3,2,0,3,424,1,Skill
8,17,14,2,3,4,1,600,1,3,1,0,4,206,0,Skill
8,17,15,2,3,4,1,600,1,4,3,0,2,296,0,Skill
8,17,16,2,3,4,1,600,1,4,4,0,3,527,0,Skill
8,17,17,2,3,4,1,600,1,4,4,0,4,520,1,Skill
8,17,18,2,3,4,1,600,1,4,3,0,4,450,1,Skill
8,17,19,2,3,4,1,600,1,3,1,0,3,425,1,Skill
8,17,20,2,3,4,1,600,1,1,1,0,1,530,1,Skill
8,18,1,2,3,4,1,600,1,4,1,1,4,618,1,Skill
8,18,2,2,3,4,1,600,1,4,3,0,4,467,1,Skill
8,18,3,2,3,4,1,600,1,4,1,1,4,346,1,Skill
8,18,4,2,3,4,1,600,1,1,4,0,1,467,1,Skill
8,18,5,2,3,4,1,600,1,4,4,0,1,412,0,Skill
8,18,6,2,3,4,1,600,1,1,1,0,1,517,1,Skill
8,18,7,2,3,4,1,600,1,1,3,0,1,398,1,Skill
8,18,8,2,3,4,1,600,1,1,4,0,1,372,1,Skill
8,18,9,2,3,4,1,600,1,1,1,0,1,413,1,Skill
8,18,10,2,3,4,1,600,1,1,4,0,1,278,1,Skill
8,18,11,2,3,4,1,600,1,2,1,0,2,527,1,Skill
8,18,12,2,3,4,1,600,1,2,1,0,2,392,1,Skill
8,18,13,2,3,4,1,600,1,2,3,1,2,336,1,Skill
8,18,14,2,3,4,1,600,1,3,2,0,3,408,1,Skill
8,18,15,2,3,4,1,600,1,4,1,1,4,479,1,Skill
8,18,16,2,3,4,1,600,1,3,2,0,1,408,0,Skill
8,18,17,2,3,4,1,600,1,4,4,0,4,543,1,Skill
8,18,18,2,3,4,1,600,1,4,4,0,4,360,1,Skill
8,18,19,2,3,4,1,600,1,4,2,0,4,418,1,Skill
8,18,20,2,3,4,1,600,1,4,1,1,4,312,1,Skill
8,19,1,2,3,4,1,600,1,4,3,0,4,506,1,Skill
8,19,2,2,3,4,1,600,1,3,1,0,3,514,1,Skill
8,19,3,2,3,4,1,600,1,1,3,0,1,587,1,Skill
8,19,4,2,3,4,1,600,1,1,3,0,1,338,1,Skill
8,19,5,2,3,4,1,600,1,2,2,0,2,506,1,Skill
8,19,6,2,3,4,1,600,1,2,3,1,2,354,1,Skill
8,19,7,2,3,4,1,600,1,3,4,1,3,426,1,Skill
8,19,8,2,3,4,1,600,1,1,1,0,1,467,1,Skill
8,19,9,2,3,4,1,600,1,3,4,1,3,412,1,Skill
8,19,10,2,3,4,1,600,1,2,2,0,2,499,1,Skill
8,19,11,2,3,4,1,600,1,3,4,1,3,412,1,Skill
8,19,12,2,3,4,1,600,1,3,4,1,3,531,1,Skill
8,19,13,2,3,4,1,600,1,3,2,0,3,443,1,Skill
8,19,14,2,3,4,1,600,1,1,2,1,3,259,0,Skill
8,19,15,2,3,4,1,600,1,2,1,0,2,523,1,Skill
8,19,16,2,3,4,1,600,1,2,2,0,1,275,0,Skill
8,19,17,2,3,4,1,600,1,3,3,0,3,459,1,Skill
8,19,18,2,3,4,1,600,1,1,2,1,1,386,1,Skill
8,19,19,2,3,4,1,600,1,1,4,0,1,490,1,Skill
8,19,20,2,3,4,1,600,1,3,3,0,3,515,1,Skill
8,20,1,2,3,4,1,600,1,4,3,0,4,554,1,Skill
8,20,2,2,3,4,1,600,1,1,2,1,1,481,1,Skill
8,20,3,2,3,4,1,600,1,1,3,0,1,413,1,Skill
8,20,4,2,3,4,1,600,1,1,4,0,1,432,1,Skill
8,20,5,2,3,4,1,600,1,3,1,0,3,473,1,Skill
8,20,6,2,3,4,1,600,1,2,2,0,2,434,1,Skill
8,20,7,2,3,4,1,600,1,3,2,0,3,441,1,Skill
8,20,8,2,3,4,1,600,1,4,3,0,2,433,0,Skill
8,20,9,2,3,4,1,600,1,4,1,1,4,680,1,Skill
8,20,10,2,3,4,1,600,1,4,2,0,4,450,1,Skill
8,20,11,2,3,4,1,600,1,2,2,0,2,520,1,Skill
8,20,12,2,3,4,1,600,1,2,1,0,2,561,1,Skill
8,20,13,2,3,4,1,600,1,2,1,0,2,329,1,Skill
8,20,14,2,3,4,1,600,1,3,2,0,3,434,1,Skill
8,20,15,2,3,4,1,600,1,2,1,0,2,393,1,Skill
8,20,16,2,3,4,1,600,1,2,1,0,2,306,1,Skill
8,20,17,2,3,4,1,600,1,3,1,0,3,570,1,Skill
8,20,18,2,3,4,1,600,1,4,1,1,4,500,1,Skill
8,20,19,2,3,4,1,600,1,4,2,0,4,541,1,Skill
8,20,20,2,3,4,1,600,1,1,3,0,1,437,1,Skill
8,21,1,2,3,4,1,600,1,3,3,0,3,538,1,Skill
8,21,2,2,3,4,1,600,1,2,1,0,2,674,1,Skill
8,21,3,2,3,4,1,600,1,2,2,0,2,698,1,Skill
8,21,4,2,3,4,1,600,1,2,2,0,2,338,1,Skill
8,21,5,2,3,4,1,600,1,1,2,1,1,426,1,Skill
8,21,6,2,3,4,1,600,1,3,3,0,3,481,1,Skill
8,21,7,2,3,4,1,600,1,4,1,1,4,121,1,Skill
8,21,8,2,3,4,1,600,1,3,3,0,3,514,1,Skill
8,21,9,2,3,4,1,600,1,4,4,0,4,570,1,Skill
8,21,10,2,3,4,1,600,1,3,1,0,3,403,1,Skill
8,21,11,2,3,4,1,600,1,4,4,0,4,587,1,Skill
8,21,12,2,3,4,1,600,1,1,4,0,1,468,1,Skill
8,21,13,2,3,4,1,600,1,4,4,0,4,446,1,Skill
8,21,14,2,3,4,1,600,1,4,1,1,4,454,1,Skill
8,21,15,2,3,4,1,600,1,2,2,0,2,608,1,Skill
8,21,16,2,3,4,1,600,1,4,1,1,4,536,1,Skill
8,21,17,2,3,4,1,600,1,3,2,0,3,480,1,Skill
8,21,18,2,3,4,1,600,1,3,2,0,3,440,1,Skill
8,21,19,2,3,4,1,600,1,3,2,0,3,352,1,Skill
8,21,20,2,3,4,1,600,1,4,1,1,4,359,1,Skill
7,1,1,1,3,4,2,-600,1,1,1,1,1,766,1,Training
7,1,2,1,3,4,2,-600,1,2,3,1,2,918,1,Training
7,1,3,1,3,4,2,-600,1,1,1,1,1,681,1,Training
7,1,4,1,3,4,2,-600,1,4,2,1,4,929,1,Training
7,1,5,1,3,4,2,-600,1,1,1,1,1,772,1,Training
7,1,6,1,3,4,2,-600,1,3,4,1,3,1004,1,Training
7,1,7,1,3,4,2,-600,1,4,2,1,4,573,1,Training
7,1,8,1,3,4,2,-600,1,2,3,1,2,628,1,Training
7,1,9,1,3,4,2,-600,1,1,1,1,1,443,1,Training
7,1,10,1,3,4,2,-600,1,1,3,0,1,563,1,Training
7,1,11,1,3,4,2,-600,1,2,3,1,2,570,1,Training
7,1,12,1,3,4,2,-600,1,4,2,1,4,561,1,Training
7,1,13,1,3,4,2,-600,1,3,4,1,3,504,1,Training
7,1,14,1,3,4,2,-600,1,1,4,0,1,496,1,Training
7,1,15,1,3,4,2,-600,1,1,1,1,1,568,1,Training
7,1,16,1,3,4,2,-600,1,2,3,1,2,496,1,Training
7,1,17,1,3,4,2,-600,1,1,1,1,1,616,1,Training
7,1,18,1,3,4,2,-600,1,2,3,1,2,528,1,Training
7,1,19,1,3,4,2,-600,1,4,2,1,4,599,1,Training
7,1,20,1,3,4,2,-600,1,2,3,1,2,1102,1,Training
7,2,1,1,3,4,2,-600,1,2,3,1,2,559,1,Training
7,2,2,1,3,4,2,-600,1,2,3,1,2,454,1,Training
7,2,3,1,3,4,2,-600,1,2,3,1,2,429,1,Training
7,2,4,1,3,4,2,-600,1,2,3,1,2,420,1,Training
7,2,5,1,3,4,2,-600,1,1,1,1,1,540,1,Training
7,2,6,1,3,4,2,-600,1,4,2,1,4,484,1,Training
7,2,7,1,3,4,2,-600,1,4,2,1,4,413,1,Training
7,2,8,1,3,4,2,-600,1,2,3,1,2,578,1,Training
7,2,9,1,3,4,2,-600,1,1,1,1,1,425,1,Training
7,2,10,1,3,4,2,-600,1,4,2,1,4,465,1,Training
7,2,11,1,3,4,2,-600,1,1,1,1,1,584,1,Training
7,2,12,1,3,4,2,-600,1,1,1,1,1,352,1,Training
7,2,13,1,3,4,2,-600,1,1,1,1,1,344,1,Training
7,2,14,1,3,4,2,-600,1,1,1,1,1,289,1,Training
7,2,15,1,3,4,2,-600,1,2,2,0,2,729,1,Training
7,2,16,1,3,4,2,-600,1,4,2,1,4,464,1,Training
7,2,17,1,3,4,2,-600,1,1,1,1,1,487,1,Training
7,2,18,1,3,4,2,-600,1,3,4,1,3,736,1,Training
7,2,19,1,3,4,2,-600,1,1,1,1,1,488,1,Training
7,2,20,1,3,4,2,-600,1,1,1,1,1,497,1,Training
7,3,1,1,3,4,2,-600,1,1,1,1,1,448,1,Training
7,3,2,1,3,4,2,-600,1,2,3,1,2,472,1,Training
7,3,3,1,3,4,2,-600,1,4,2,1,4,623,1,Training
7,3,4,1,3,4,2,-600,1,4,2,1,4,471,1,Training
7,3,5,1,3,4,2,-600,1,1,1,1,1,526,1,Training
7,3,6,1,3,4,2,-600,1,3,4,1,3,439,1,Training
7,3,7,1,3,4,2,-600,1,1,1,1,1,287,1,Training
7,3,8,1,3,4,2,-600,1,3,4,1,3,392,1,Training
7,3,9,1,3,4,2,-600,1,2,3,1,2,449,1,Training
7,3,10,1,3,4,2,-600,1,3,4,1,3,392,1,Training
7,3,11,1,3,4,2,-600,1,2,3,1,3,529,0,Training
7,3,12,1,3,4,2,-600,1,1,1,1,1,412,1,Training
7,3,13,1,3,4,2,-600,1,2,3,1,2,352,1,Training
7,3,14,1,3,4,2,-600,1,4,1,0,4,440,1,Training
7,3,15,1,3,4,2,-600,1,2,3,1,2,480,1,Training
7,3,16,1,3,4,2,-600,1,4,2,1,4,519,1,Training
7,3,17,1,3,4,2,-600,1,1,1,1,1,431,1,Training
7,3,18,1,3,4,2,-600,1,3,4,1,3,487,1,Training
7,3,19,1,3,4,2,-600,1,3,4,1,3,480,1,Training
7,3,20,1,3,4,2,-600,1,1,1,1,1,521,1,Training
7,4,1,1,3,4,2,-600,1,3,4,1,3,1040,1,Training
7,4,2,1,3,4,2,-600,1,4,2,1,4,464,1,Training
7,4,3,1,3,4,2,-600,1,3,4,1,3,392,1,Training
7,4,4,1,3,4,2,-600,1,3,4,1,3,321,1,Training
7,4,5,1,3,4,2,-600,1,1,1,1,1,505,1,Training
7,4,6,1,3,4,2,-600,1,4,2,1,4,545,1,Training
7,4,7,1,3,4,2,-600,1,2,3,1,2,553,1,Training
7,4,8,1,3,4,2,-600,1,2,3,1,2,496,1,Training
7,4,9,1,3,4,2,-600,1,2,3,1,2,439,1,Training
7,4,10,1,3,4,2,-600,1,4,2,1,4,431,1,Training
7,4,11,1,3,4,2,-600,1,2,3,1,2,550,1,Training
7,4,12,1,3,4,2,-600,1,2,3,1,2,381,1,Training
7,4,13,1,3,4,2,-600,1,4,2,1,4,501,1,Training
7,4,14,1,3,4,2,-600,1,2,3,1,2,348,1,Training
7,4,15,1,3,4,2,-600,1,1,1,1,1,468,1,Training
7,4,16,1,3,4,2,-600,1,2,3,1,2,332,1,Training
7,4,17,1,3,4,2,-600,1,3,4,1,3,356,1,Training
7,4,18,1,3,4,2,-600,1,4,2,1,4,204,1,Training
7,4,19,1,3,4,2,-600,1,2,3,1,2,132,1,Training
7,4,20,1,3,4,2,-600,1,4,2,1,4,43,1,Training
7,5,1,1,3,4,2,-600,1,2,3,1,2,336,1,Training
7,5,2,1,3,4,2,-600,1,1,3,0,2,136,0,Training
7,5,3,1,3,4,2,-600,1,1,1,1,1,591,1,Training
7,5,4,1,3,4,2,-600,1,4,2,1,4,423,1,Training
7,5,5,1,3,4,2,-600,1,1,1,1,1,383,1,Training
7,5,6,1,3,4,2,-600,1,2,3,1,2,296,1,Training
7,5,7,1,3,4,2,-600,1,4,2,1,4,207,1,Training
7,5,8,1,3,4,2,-600,1,2,3,1,2,199,1,Training
7,5,9,1,3,4,2,-600,1,1,1,1,1,-98,1,Training
7,5,10,1,3,4,2,-600,1,1,2,0,4,-73,0,Training
7,5,11,1,3,4,2,-600,1,4,2,1,4,367,1,Training
7,5,12,1,3,4,2,-600,1,1,1,1,1,678,1,Training
7,5,13,1,3,4,2,-600,1,3,4,1,3,431,1,Training
7,5,14,1,3,4,2,-600,1,3,4,1,3,296,1,Training
7,5,15,1,3,4,2,-600,1,2,3,1,2,448,1,Training
7,5,16,1,3,4,2,-600,1,1,1,1,1,504,1,Training
7,5,17,1,3,4,2,-600,1,1,1,1,1,641,1,Training
7,5,18,1,3,4,2,-600,1,2,3,1,2,714,1,Training
7,5,19,1,3,4,2,-600,1,2,3,1,2,449,1,Training
7,5,20,1,3,4,2,-600,1,4,2,1,4,457,1,Training
7,6,1,1,3,4,2,-600,1,3,4,1,3,544,1,Training
7,6,2,1,3,4,2,-600,1,1,1,1,1,393,1,Training
7,6,3,1,3,4,2,-600,1,3,4,1,3,546,1,Training
7,6,4,1,3,4,2,-600,1,2,3,1,2,219,1,Training
7,6,5,1,3,4,2,-600,1,2,3,1,2,146,1,Training
7,6,6,1,3,4,2,-600,1,2,3,1,2,10,1,Training
7,6,7,1,3,4,2,-600,1,3,4,1,4,17,0,Training
7,6,8,1,3,4,2,-600,1,1,1,1,1,73,1,Training
7,6,9,1,3,4,2,-600,1,3,4,1,3,114,1,Training
7,6,10,1,3,4,2,-600,1,3,4,1,3,59,1,Training
7,6,11,1,3,4,2,-600,1,4,2,1,4,-76,1,Training
7,6,12,1,3,4,2,-600,1,2,2,0,4,-37,0,Training
7,6,13,1,3,4,2,-600,1,1,1,1,1,259,1,Training
7,6,14,1,3,4,2,-600,1,4,2,1,4,267,1,Training
7,6,15,1,3,4,2,-600,1,3,4,1,3,243,1,Training
7,6,16,1,3,4,2,-600,1,3,4,1,3,252,1,Training
7,6,17,1,3,4,2,-600,1,3,4,1,3,-27,1,Training
7,6,18,1,3,4,2,-600,1,4,2,1,4,109,1,Training
7,6,19,1,3,4,2,-600,1,4,1,0,4,549,1,Training
7,6,20,1,3,4,2,-600,1,3,4,1,3,318,1,Training
7,7,1,1,3,4,2,-600,1,1,1,1,1,608,1,Training
7,7,2,1,3,4,2,-600,1,4,2,1,4,441,1,Training
7,7,3,1,3,4,2,-600,1,1,1,1,1,160,1,Training
7,7,4,1,3,4,2,-600,1,3,4,1,3,89,1,Training
7,7,5,1,3,4,2,-600,1,1,1,1,1,129,1,Training
7,7,6,1,3,4,2,-600,1,4,1,0,1,234,0,Training
7,7,7,1,3,4,2,-600,1,4,4,0,3,195,0,Training
7,7,8,1,3,4,2,-600,1,2,3,1,2,300,1,Training
7,7,9,1,3,4,2,-600,1,3,4,1,3,259,1,Training
7,7,10,1,3,4,2,-600,1,2,3,1,1,267,0,Training
7,7,11,1,3,4,2,-600,1,1,1,1,1,307,1,Training
7,7,12,1,3,4,2,-600,1,4,2,1,4,427,1,Training
7,7,13,1,3,4,2,-600,1,1,1,1,1,179,1,Training
7,7,14,1,3,4,2,-600,1,1,1,1,1,60,1,Training
7,7,15,1,3,4,2,-600,1,2,3,1,2,20,1,Training
7,7,16,1,3,4,2,-600,1,3,4,1,3,76,1,Training
7,7,17,1,3,4,2,-600,1,3,4,1,3,213,1,Training
7,7,18,1,3,4,2,-600,1,2,3,1,2,222,1,Training
7,7,19,1,3,4,2,-600,1,2,3,1,2,245,1,Training
7,7,20,1,3,4,2,-600,1,1,1,1,1,61,1,Training
7,8,1,1,3,4,2,-600,1,4,2,1,4,400,1,Training
7,8,2,1,3,4,2,-600,1,1,1,1,1,200,1,Training
7,8,3,1,3,4,2,-600,1,2,3,1,2,128,1,Training
7,8,4,1,3,4,2,-600,1,2,3,1,2,168,1,Training
7,8,5,1,3,4,2,-600,1,4,2,1,2,303,0,Training
7,8,6,1,3,4,2,-600,1,2,3,1,2,327,1,Training
7,8,7,1,3,4,2,-600,1,4,2,1,4,382,1,Training
7,8,8,1,3,4,2,-600,1,3,4,1,3,438,1,Training
7,8,9,1,3,4,2,-600,1,2,3,1,2,350,1,Training
7,8,10,1,3,4,2,-600,1,1,1,1,1,198,1,Training
7,8,11,1,3,4,2,-600,1,3,4,1,3,431,1,Training
7,8,12,1,3,4,2,-600,1,3,4,1,3,503,1,Training
7,8,13,1,3,4,2,-600,1,2,3,1,1,240,0,Training
7,8,14,1,3,4,2,-600,1,1,1,1,1,72,1,Training
7,8,15,1,3,4,2,-600,1,3,4,1,4,336,0,Training
7,8,16,1,3,4,2,-600,1,4,2,1,4,137,1,Training
7,8,17,1,3,4,2,-600,1,2,3,1,2,272,1,Training
7,8,18,1,3,4,2,-600,1,1,1,1,1,-104,1,Training
7,8,19,1,3,4,2,-600,1,2,3,1,2,48,1,Training
7,8,20,1,3,4,2,-600,1,1,1,1,1,88,1,Training
7,9,1,1,3,4,2,-600,1,2,3,1,2,528,1,Training
7,9,2,1,3,4,2,-600,1,4,2,1,4,408,1,Training
7,9,3,1,3,4,2,-600,1,4,2,1,4,63,1,Training
7,9,4,1,3,4,2,-600,1,3,4,1,3,-41,1,Training
7,9,5,1,3,4,2,-600,1,4,2,1,2,-17,0,Training
7,9,6,1,3,4,2,-600,1,4,2,1,4,71,1,Training
7,9,7,1,3,4,2,-600,1,4,2,1,4,30,1,Training
7,9,8,1,3,4,2,-600,1,1,2,0,1,502,1,Training
7,9,9,1,3,4,2,-600,1,4,2,1,4,381,1,Training
7,9,10,1,3,4,2,-600,1,4,2,1,4,309,1,Training
7,9,11,1,3,4,2,-600,1,1,1,1,1,204,1,Training
7,9,12,1,3,4,2,-600,1,3,4,1,3,389,1,Training
7,9,13,1,3,4,2,-600,1,4,3,0,2,-3,0,Training
7,9,14,1,3,4,2,-600,1,3,4,1,3,421,1,Training
7,9,15,1,3,4,2,-600,1,3,4,1,3,318,1,Training
7,9,16,1,3,4,2,-600,1,1,4,0,3,8,0,Training
7,9,17,1,3,4,2,-600,1,2,3,1,1,319,0,Training
7,9,18,1,3,4,2,-600,1,2,3,1,2,294,1,Training
7,9,19,1,3,4,2,-600,1,4,2,1,4,302,1,Training
7,9,20,1,3,4,2,-600,1,2,3,1,2,453,1,Training
7,10,1,1,3,4,2,-600,1,1,1,1,1,400,1,Training
7,10,2,1,3,4,2,-600,1,1,1,1,1,249,1,Training
7,10,3,1,3,4,2,-600,1,2,3,1,2,434,1,Training
7,10,4,1,3,4,2,-600,1,1,2,0,1,521,1,Training
7,10,5,1,3,4,2,-600,1,1,1,1,1,513,1,Training
7,10,6,1,3,4,2,-600,1,4,2,1,4,458,1,Training
7,10,7,1,3,4,2,-600,1,1,1,1,1,369,1,Training
7,10,8,1,3,4,2,-600,1,4,2,1,4,506,1,Training
7,10,9,1,3,4,2,-600,1,2,3,1,2,513,1,Training
7,10,10,1,3,4,2,-600,1,1,1,1,1,233,1,Training
7,10,11,1,3,4,2,-600,1,2,4,0,3,209,0,Training
7,10,12,1,3,4,2,-600,1,1,1,1,1,346,1,Training
7,10,13,1,3,4,2,-600,1,3,4,1,3,211,1,Training
7,10,14,1,3,4,2,-600,1,3,4,1,3,300,1,Training
7,10,15,1,3,4,2,-600,1,4,2,1,4,421,1,Training
7,10,16,1,3,4,2,-600,1,3,4,1,3,236,1,Training
7,10,17,1,3,4,2,-600,1,2,1,0,1,101,0,Training
7,10,18,1,3,4,2,-600,1,3,4,1,3,301,1,Training
7,10,19,1,3,4,2,-600,1,1,1,1,1,294,1,Training
7,10,20,1,3,4,2,-600,1,2,3,1,2,334,1,Training
7,11,1,1,3,4,2,-600,1,1,1,1,1,272,1,Training
7,11,2,1,3,4,2,-600,1,1,1,1,1,329,1,Training
7,11,3,1,3,4,2,-600,1,1,1,1,1,210,1,Training
7,11,4,1,3,4,2,-600,1,4,2,1,4,394,1,Training
7,11,5,1,3,4,2,-600,1,2,3,1,2,338,1,Training
7,11,6,1,3,4,2,-600,1,3,3,0,2,313,0,Training
7,11,7,1,3,4,2,-600,1,1,1,1,1,304,1,Training
7,11,8,1,3,4,2,-600,1,4,2,1,4,313,1,Training
7,11,9,1,3,4,2,-600,1,3,4,1,4,433,0,Training
7,11,10,1,3,4,2,-600,1,1,1,1,1,313,1,Training
7,11,11,1,3,4,2,-600,1,4,2,1,4,433,1,Training
7,11,12,1,3,4,2,-600,1,1,1,1,1,553,1,Training
7,11,13,1,3,4,2,-600,1,4,2,1,4,545,1,Training
7,11,14,1,3,4,2,-600,1,2,1,0,2,553,1,Training
7,11,15,1,3,4,2,-600,1,1,1,1,1,274,1,Training
7,11,16,1,3,4,2,-600,1,2,3,1,2,458,1,Training
7,11,17,1,3,4,2,-600,1,4,2,1,4,386,1,Training
7,11,18,1,3,4,2,-600,1,2,3,1,2,536,1,Training
7,11,19,1,3,4,2,-600,1,1,1,1,1,272,1,Training
7,11,20,1,3,4,2,-600,1,2,3,1,2,297,1,Training
7,12,1,1,3,4,2,-600,1,3,4,1,3,400,1,Training
7,12,2,1,3,4,2,-600,1,4,2,1,4,313,1,Training
7,12,3,1,3,4,2,-600,1,4,2,1,4,353,1,Training
7,12,4,1,3,4,2,-600,1,4,2,1,4,488,1,Training
7,12,5,1,3,4,2,-600,1,4,2,1,4,271,1,Training
7,12,6,1,3,4,2,-600,1,2,4,0,2,471,1,Training
7,12,7,1,3,4,2,-600,1,3,4,1,3,559,1,Training
7,12,8,1,3,4,2,-600,1,1,1,1,1,296,1,Training
7,12,9,1,3,4,2,-600,1,1,1,1,1,241,1,Training
7,12,10,1,3,4,2,-600,1,1,1,1,1,282,1,Training
7,12,11,1,3,4,2,-600,1,4,2,1,4,450,1,Training
7,12,12,1,3,4,2,-600,1,4,2,1,4,297,1,Training
7,12,13,1,3,4,2,-600,1,3,4,1,2,273,0,Training
7,12,14,1,3,4,2,-600,1,2,1,0,1,249,0,Training
7,12,15,1,3,4,2,-600,1,4,2,1,4,514,1,Training
7,12,16,1,3,4,2,-600,1,2,3,1,2,426,1,Training
7,12,17,1,3,4,2,-600,1,4,2,1,4,257,1,Training
7,12,18,1,3,4,2,-600,1,2,3,1,2,456,1,Training
7,12,19,1,3,4,2,-600,1,4,2,1,4,335,1,Training
7,12,20,1,3,4,2,-600,1,4,4,0,4,407,1,Training
7,13,1,1,3,4,2,-600,1,1,4,0,1,624,1,Training
7,13,2,1,3,4,2,-600,1,3,4,1,3,489,1,Training
7,13,3,1,3,4,2,-600,1,1,1,1,1,114,1,Training
7,13,4,1,3,4,2,-600,1,3,4,1,3,170,1,Training
7,13,5,1,3,4,2,-600,1,2,3,1,2,179,1,Training
7,13,6,1,3,4,2,-600,1,2,3,1,2,299,1,Training
7,13,7,1,3,4,2,-600,1,3,4,1,3,306,1,Training
7,13,8,1,3,4,2,-600,1,4,2,1,4,-117,1,Training
7,13,9,1,3,4,2,-600,1,2,2,0,4,-30,0,Training
7,13,10,1,3,4,2,-600,1,4,2,1,4,378,1,Training
7,13,11,1,3,4,2,-600,1,1,1,1,1,145,1,Training
7,13,12,1,3,4,2,-600,1,1,1,1,1,234,1,Training
7,13,13,1,3,4,2,-600,1,2,3,1,2,531,1,Training
7,13,14,1,3,4,2,-600,1,4,2,1,4,346,1,Training
7,13,15,1,3,4,2,-600,1,2,3,1,2,418,1,Training
7,13,16,1,3,4,2,-600,1,4,2,1,4,377,1,Training
7,13,17,1,3,4,2,-600,1,2,3,1,2,528,1,Training
7,13,18,1,3,4,2,-600,1,1,1,1,1,520,1,Training
7,13,19,1,3,4,2,-600,1,4,3,0,3,385,0,Training
7,13,20,1,3,4,2,-600,1,3,4,1,3,88,1,Training
7,14,1,1,3,4,2,-600,1,1,1,1,1,368,1,Training
7,14,2,1,3,4,2,-600,1,4,2,1,4,425,1,Training
7,14,3,1,3,4,2,-600,1,3,4,1,3,417,1,Training
7,14,4,1,3,4,2,-600,1,4,2,1,4,249,1,Training
7,14,5,1,3,4,2,-600,1,4,2,1,4,321,1,Training
7,14,6,1,3,4,2,-600,1,2,3,1,2,344,1,Training
7,14,7,1,3,4,2,-600,1,2,3,1,2,399,1,Training
7,14,8,1,3,4,2,-600,1,3,4,1,3,567,1,Training
7,14,9,1,3,4,2,-600,1,4,2,1,4,336,1,Training
7,14,10,1,3,4,2,-600,1,2,3,1,2,327,1,Training
7,14,11,1,3,4,2,-600,1,4,2,1,4,302,1,Training
7,14,12,1,3,4,2,-600,1,4,2,1,4,470,1,Training
7,14,13,1,3,4,2,-600,1,2,3,1,2,461,1,Training
7,14,14,1,3,4,2,-600,1,4,2,1,4,340,1,Training
7,14,15,1,3,4,2,-600,1,2,3,1,2,395,1,Training
7,14,16,1,3,4,2,-600,1,1,2,0,1,498,1,Training
7,14,17,1,3,4,2,-600,1,1,4,0,2,345,0,Training
7,14,18,1,3,4,2,-600,1,1,1,1,1,610,1,Training
7,14,19,1,3,4,2,-600,1,2,3,1,2,475,1,Training
7,14,20,1,3,4,2,-600,1,2,3,1,2,450,1,Training
7,15,1,1,3,4,2,-600,1,1,1,1,1,384,1,Training
7,15,2,1,3,4,2,-600,1,4,2,1,4,201,1,Training
7,15,3,1,3,4,2,-600,1,4,2,1,4,96,1,Training
7,15,4,1,3,4,2,-600,1,3,4,1,3,184,1,Training
7,15,5,1,3,4,2,-600,1,3,4,1,3,17,1,Training
7,15,6,1,3,4,2,-600,1,2,3,1,2,121,1,Training
7,15,7,1,3,4,2,-600,1,1,1,1,1,33,1,Training
7,15,8,1,3,4,2,-600,1,4,2,1,4,26,1,Training
7,15,9,1,3,4,2,-600,1,2,3,1,2,49,1,Training
7,15,10,1,3,4,2,-600,1,1,1,1,1,216,1,Training
7,15,11,1,3,4,2,-600,1,3,4,1,3,289,1,Training
7,15,12,1,3,4,2,-600,1,3,4,1,2,10,0,Training
7,15,13,1,3,4,2,-600,1,1,1,1,1,67,1,Training
7,15,14,1,3,4,2,-600,1,4,4,0,3,203,0,Training
7,15,15,1,3,4,2,-600,1,4,2,1,4,292,1,Training
7,15,16,1,3,4,2,-600,1,4,2,1,4,91,1,Training
7,15,17,1,3,4,2,-600,1,1,1,1,1,195,1,Training
7,15,18,1,3,4,2,-600,1,4,2,1,4,92,1,Training
7,15,19,1,3,4,2,-600,1,3,4,1,3,211,1,Training
7,15,20,1,3,4,2,-600,1,2,3,1,2,204,1,Training
7,16,1,1,3,4,2,-600,1,1,1,1,1,544,1,Training
7,16,2,1,3,4,2,-600,1,3,4,1,3,361,1,Training
7,16,3,1,3,4,2,-600,1,3,4,1,3,226,1,Training
7,16,4,1,3,4,2,-600,1,2,3,1,2,218,1,Training
7,16,5,1,3,4,2,-600,1,3,4,1,3,226,1,Training
7,16,6,1,3,4,2,-600,1,1,1,1,1,107,1,Training
7,16,7,1,3,4,2,-600,1,1,1,1,1,548,1,Training
7,16,8,1,3,4,2,-600,1,4,4,0,4,444,1,Training
7,16,9,1,3,4,2,-600,1,2,3,1,2,469,1,Training
7,16,10,1,3,4,2,-600,1,3,4,1,4,364,0,Training
7,16,11,1,3,4,2,-600,1,2,3,1,2,261,1,Training
7,16,12,1,3,4,2,-600,1,1,1,1,1,-68,1,Training
7,16,13,1,3,4,2,-600,1,2,3,1,2,37,1,Training
7,16,14,1,3,4,2,-600,1,4,1,0,1,-35,0,Training
7,16,15,1,3,4,2,-600,1,1,1,1,1,198,1,Training
7,16,16,1,3,4,2,-600,1,2,3,1,2,398,1,Training
7,16,17,1,3,4,2,-600,1,2,3,1,2,342,1,Training
7,16,18,1,3,4,2,-600,1,1,1,1,1,589,1,Training
7,16,19,1,3,4,2,-600,1,3,4,1,3,422,1,Training
7,16,20,1,3,4,2,-600,1,4,2,1,4,302,1,Training
7,17,1,1,3,4,2,-600,1,3,3,0,4,1593,0,Skill
7,17,2,1,3,4,2,-600,1,3,2,0,4,772,0,Skill
7,17,3,1,3,4,2,-600,1,3,4,1,4,332,0,Skill
7,17,4,1,3,4,2,-600,1,3,1,0,4,228,0,Skill
7,17,5,1,3,4,2,-600,1,1,4,0,1,525,1,Skill
7,17,6,1,3,4,2,-600,1,1,1,1,1,278,1,Skill
7,17,7,1,3,4,2,-600,1,2,4,0,2,511,1,Skill
7,17,8,1,3,4,2,-600,1,2,3,1,2,599,1,Skill
7,17,9,1,3,4,2,-600,1,1,1,1,1,335,1,Skill
7,17,10,1,3,4,2,-600,1,2,1,0,2,280,1,Skill
7,17,11,1,3,4,2,-600,1,4,4,0,4,4144,1,Skill
7,17,12,1,3,4,2,-600,1,4,2,1,4,485,1,Skill
7,17,13,1,3,4,2,-600,1,2,2,0,2,476,1,Skill
7,17,14,1,3,4,2,-600,1,1,1,1,1,228,1,Skill
7,17,15,1,3,4,2,-600,1,2,1,0,2,668,1,Skill
7,17,16,1,3,4,2,-600,1,4,1,0,4,421,1,Skill
7,17,17,1,3,4,2,-600,1,2,1,0,2,366,1,Skill
7,17,18,1,3,4,2,-600,1,3,4,1,3,487,1,Skill
7,17,19,1,3,4,2,-600,1,2,1,0,2,384,1,Skill
7,17,20,1,3,4,2,-600,1,3,2,0,3,312,1,Skill
7,18,1,1,3,4,2,-600,1,3,2,0,3,665,1,Skill
7,18,2,1,3,4,2,-600,1,3,1,0,1,209,0,Skill
7,18,3,1,3,4,2,-600,1,3,2,0,3,297,1,Skill
7,18,4,1,3,4,2,-600,1,2,1,0,2,497,1,Skill
7,18,5,1,3,4,2,-600,1,3,3,0,2,377,0,Skill
7,18,6,1,3,4,2,-600,1,3,1,0,3,417,1,Skill
7,18,7,1,3,4,2,-600,1,4,2,1,4,413,1,Skill
7,18,8,1,3,4,2,-600,1,2,4,0,2,689,1,Skill
7,18,9,1,3,4,2,-600,1,3,1,0,3,282,1,Skill
7,18,10,1,3,4,2,-600,1,3,3,0,3,419,1,Skill
7,18,11,1,3,4,2,-600,1,3,4,1,3,266,1,Skill
7,18,12,1,3,4,2,-600,1,3,3,0,3,418,1,Skill
7,18,13,1,3,4,2,-600,1,1,1,1,1,506,1,Skill
7,18,14,1,3,4,2,-600,1,2,4,0,2,547,1,Skill
7,18,15,1,3,4,2,-600,1,4,2,1,4,427,1,Skill
7,18,16,1,3,4,2,-600,1,4,2,1,4,403,1,Skill
7,18,17,1,3,4,2,-600,1,1,1,1,1,266,1,Skill
7,18,18,1,3,4,2,-600,1,4,4,0,4,403,1,Skill
7,18,19,1,3,4,2,-600,1,4,4,0,4,251,1,Skill
7,18,20,1,3,4,2,-600,1,3,1,0,2,276,0,Skill
7,19,1,1,3,4,2,-600,1,1,4,0,1,537,1,Skill
7,19,2,1,3,4,2,-600,1,1,1,1,1,578,1,Skill
7,19,3,1,3,4,2,-600,1,3,2,0,3,314,1,Skill
7,19,4,1,3,4,2,-600,1,3,2,0,3,434,1,Skill
7,19,5,1,3,4,2,-600,1,4,2,1,4,281,1,Skill
7,19,6,1,3,4,2,-600,1,3,2,0,3,352,1,Skill
7,19,7,1,3,4,2,-600,1,1,3,0,1,392,1,Skill
7,19,8,1,3,4,2,-600,1,2,4,0,2,239,1,Skill
7,19,9,1,3,4,2,-600,1,4,2,1,4,216,1,Skill
7,19,10,1,3,4,2,-600,1,1,4,0,3,111,0,Skill
7,19,11,1,3,4,2,-600,1,3,3,0,3,407,1,Skill
7,19,12,1,3,4,2,-600,1,3,2,0,4,207,0,Skill
7,19,13,1,3,4,2,-600,1,1,2,0,1,598,1,Skill
7,19,14,1,3,4,2,-600,1,2,4,0,2,446,1,Skill
7,19,15,1,3,4,2,-600,1,3,4,1,3,439,1,Skill
7,19,16,1,3,4,2,-600,1,4,3,0,4,319,1,Skill
7,19,17,1,3,4,2,-600,1,1,4,0,1,471,1,Skill
7,19,18,1,3,4,2,-600,1,3,3,0,3,335,1,Skill
7,19,19,1,3,4,2,-600,1,1,3,0,1,439,1,Skill
7,19,20,1,3,4,2,-600,1,1,3,0,1,542,1,Skill
7,20,1,1,3,4,2,-600,1,1,2,0,1,633,1,Skill
7,20,2,1,3,4,2,-600,1,3,1,0,3,304,1,Skill
7,20,3,1,3,4,2,-600,1,3,1,0,3,361,1,Skill
7,20,4,1,3,4,2,-600,1,2,4,0,2,450,1,Skill
7,20,5,1,3,4,2,-600,1,4,3,0,4,267,1,Skill
7,20,6,1,3,4,2,-600,1,4,4,0,4,274,1,Skill
7,20,7,1,3,4,2,-600,1,4,2,1,4,283,1,Skill
7,20,8,1,3,4,2,-600,1,1,3,0,1,418,1,Skill
7,20,9,1,3,4,2,-600,1,1,1,1,1,506,1,Skill
7,20,10,1,3,4,2,-600,1,3,1,0,1,290,0,Skill
7,20,11,1,3,4,2,-600,1,1,2,0,1,619,1,Skill
7,20,12,1,3,4,2,-600,1,2,2,0,2,594,1,Skill
7,20,13,1,3,4,2,-600,1,4,1,0,4,394,1,Skill
7,20,14,1,3,4,2,-600,1,4,4,0,4,323,1,Skill
7,20,15,1,3,4,2,-600,1,3,2,0,3,459,1,Skill
7,20,16,1,3,4,2,-600,1,3,4,1,3,371,1,Skill
7,20,17,1,3,4,2,-600,1,2,3,1,2,587,1,Skill
7,20,18,1,3,4,2,-600,1,2,3,1,4,419,0,Skill
7,20,19,1,3,4,2,-600,1,2,4,0,2,412,1,Skill
7,20,20,1,3,4,2,-600,1,3,2,0,3,563,1,Skill
7,21,1,1,3,4,2,-600,1,2,3,1,4,441,0,Skill
7,21,2,1,3,4,2,-600,1,4,1,0,4,560,1,Skill
7,21,3,1,3,4,2,-600,1,1,3,0,2,345,0,Skill
7,21,4,1,3,4,2,-600,1,1,4,0,1,576,1,Skill
7,21,5,1,3,4,2,-600,1,2,4,0,2,521,1,Skill
7,21,6,1,3,4,2,-600,1,3,3,0,3,610,1,Skill
7,21,7,1,3,4,2,-600,1,1,4,0,1,585,1,Skill
7,21,8,1,3,4,2,-600,1,2,3,1,2,402,1,Skill
7,21,9,1,3,4,2,-600,1,1,1,1,1,2186,1,Skill
7,21,10,1,3,4,2,-600,1,3,1,0,4,490,0,Skill
7,21,11,1,3,4,2,-600,1,3,4,1,3,531,1,Skill
7,21,12,1,3,4,2,-600,1,2,1,0,2,540,1,Skill
7,21,13,1,3,4,2,-600,1,1,4,0,1,420,1,Skill
7,21,14,1,3,4,2,-600,1,3,2,0,2,461,0,Skill
7,21,15,1,3,4,2,-600,1,1,3,0,1,436,1,Skill
7,21,16,1,3,4,2,-600,1,3,2,0,3,427,1,Skill
7,21,17,1,3,4,2,-600,1,4,3,0,4,467,1,Skill
7,21,18,1,3,4,2,-600,1,3,4,1,3,218,1,Skill
7,21,19,1,3,4,2,-600,1,3,3,0,3,307,1,Skill
7,21,20,1,3,4,2,-600,1,2,4,0,2,538,1,Skill
6,1,1,4,2,1,3,600,1,2,2,1,2,1258,1,Training
6,1,2,4,2,1,3,600,1,2,2,1,2,579,1,Training
6,1,3,4,2,1,3,600,1,3,3,0,3,497,1,Training
6,1,4,4,2,1,3,600,1,3,1,1,3,570,1,Training
6,1,5,4,2,1,3,600,1,3,1,1,3,403,1,Training
6,1,6,4,2,1,3,600,1,4,3,1,4,470,1,Training
6,1,7,4,2,1,3,600,1,3,3,0,3,431,1,Training
6,1,8,4,2,1,3,600,1,2,3,0,2,631,1,Training
6,1,9,4,2,1,3,600,1,3,1,1,3,544,1,Training
6,1,10,4,2,1,3,600,1,2,2,1,2,665,1,Training
6,1,11,4,2,1,3,600,1,3,1,1,3,466,1,Training
6,1,12,4,2,1,3,600,1,3,1,1,3,587,1,Training
6,1,13,4,2,1,3,600,1,3,1,1,3,419,1,Training
6,1,14,4,2,1,3,600,1,1,4,1,1,485,1,Training
6,1,15,4,2,1,3,600,1,4,3,1,4,478,1,Training
6,1,16,4,2,1,3,600,1,3,2,0,3,359,1,Training
6,1,17,4,2,1,3,600,1,1,4,1,1,464,1,Training
6,1,18,4,2,1,3,600,1,4,3,1,4,520,1,Training
6,1,19,4,2,1,3,600,1,2,2,1,2,609,1,Training
6,1,20,4,2,1,3,600,1,1,4,1,1,426,1,Training
6,2,1,4,2,1,3,600,1,2,2,1,2,553,1,Training
6,2,2,4,2,1,3,600,1,2,2,1,2,434,1,Training
6,2,3,4,2,1,3,600,1,4,3,1,4,458,1,Training
6,2,4,4,2,1,3,600,1,3,1,1,3,292,1,Training
6,2,5,4,2,1,3,600,1,3,1,1,3,380,1,Training
6,2,6,4,2,1,3,600,1,3,1,1,3,453,1,Training
6,2,7,4,2,1,3,600,1,3,1,1,3,381,1,Training
6,2,8,4,2,1,3,600,1,3,1,1,3,342,1,Training
6,2,9,4,2,1,3,600,1,3,1,1,3,318,1,Training
6,2,10,4,2,1,3,600,1,4,3,1,4,343,1,Training
6,2,11,4,2,1,3,600,1,1,4,1,1,400,1,Training
6,2,12,4,2,1,3,600,1,4,3,1,4,425,1,Training
6,2,13,4,2,1,3,600,1,1,4,1,1,385,1,Training
6,2,14,4,2,1,3,600,1,4,3,1,4,474,1,Training
6,2,15,4,2,1,3,600,1,3,1,1,3,403,1,Training
6,2,16,4,2,1,3,600,1,3,1,1,3,492,1,Training
6,2,17,4,2,1,3,600,1,4,3,1,4,405,1,Training
6,2,18,4,2,1,3,600,1,2,2,1,2,494,1,Training
6,2,19,4,2,1,3,600,1,4,3,1,4,422,1,Training
6,2,20,4,2,1,3,600,1,2,2,1,2,607,1,Training
6,3,1,4,2,1,3,600,1,1,3,0,1,496,1,Training
6,3,2,4,2,1,3,600,1,2,2,1,2,457,1,Training
6,3,3,4,2,1,3,600,1,4,3,1,4,401,1,Training
6,3,4,4,2,1,3,600,1,4,3,1,4,362,1,Training
6,3,5,4,2,1,3,600,1,2,2,1,2,531,1,Training
6,3,6,4,2,1,3,600,1,3,1,1,3,316,1,Training
6,3,7,4,2,1,3,600,1,1,4,1,1,420,1,Training
6,3,8,4,2,1,3,600,1,2,2,1,3,349,0,Training
6,3,9,4,2,1,3,600,1,2,2,1,2,566,1,Training
6,3,10,4,2,1,3,600,1,1,4,1,1,399,1,Training
6,3,11,4,2,1,3,600,1,3,1,1,3,359,1,Training
6,3,12,4,2,1,3,600,1,3,1,1,3,336,1,Training
6,3,13,4,2,1,3,600,1,1,4,1,1,441,1,Training
6,3,14,4,2,1,3,600,1,2,2,1,2,514,1,Training
6,3,15,4,2,1,3,600,1,3,1,1,3,315,1,Training
6,3,16,4,2,1,3,600,1,2,2,1,2,419,1,Training
6,3,17,4,2,1,3,600,1,1,4,1,1,380,1,Training
6,3,18,4,2,1,3,600,1,1,4,1,1,341,1,Training
6,3,19,4,2,1,3,600,1,3,1,1,3,334,1,Training
6,3,20,4,2,1,3,600,1,3,1,1,3,326,1,Training
6,4,1,4,2,1,3,600,1,1,4,1,1,401,1,Training
6,4,2,4,2,1,3,600,1,3,3,0,3,377,1,Training
6,4,3,4,2,1,3,600,1,2,2,1,2,466,1,Training
6,4,4,4,2,1,3,600,1,4,3,1,4,413,1,Training
6,4,5,4,2,1,3,600,1,1,4,1,1,435,1,Training
6,4,6,4,2,1,3,600,1,1,4,1,1,348,1,Training
6,4,7,4,2,1,3,600,1,4,3,1,4,308,1,Training
6,4,8,4,2,1,3,600,1,2,2,1,1,397,0,Training
6,4,9,4,2,1,3,600,1,3,1,1,3,327,1,Training
6,4,10,4,2,1,3,600,1,2,3,0,2,511,1,Training
6,4,11,4,2,1,3,600,1,1,4,1,1,424,1,Training
6,4,12,4,2,1,3,600,1,4,4,0,4,497,1,Training
6,4,13,4,2,1,3,600,1,3,1,1,3,394,1,Training
6,4,14,4,2,1,3,600,1,4,3,1,4,467,1,Training
6,4,15,4,2,1,3,600,1,4,2,0,4,443,1,Training
6,4,16,4,2,1,3,600,1,4,3,1,4,372,1,Training
6,4,17,4,2,1,3,600,1,3,2,0,3,348,1,Training
6,4,18,4,2,1,3,600,1,2,2,1,2,389,1,Training
6,4,19,4,2,1,3,600,1,4,3,1,4,382,1,Training
6,4,20,4,2,1,3,600,1,1,4,1,1,374,1,Training
6,5,1,4,2,1,3,600,1,1,2,0,1,432,1,Training
6,5,2,4,2,1,3,600,1,1,3,0,1,457,1,Training
6,5,3,4,2,1,3,600,1,1,4,1,1,306,1,Training
6,5,4,4,2,1,3,600,1,3,1,1,3,378,1,Training
6,5,5,4,2,1,3,600,1,4,3,1,4,371,1,Training
6,5,6,4,2,1,3,600,1,3,1,1,3,300,1,Training
6,5,7,4,2,1,3,600,1,4,3,1,4,405,1,Training
6,5,8,4,2,1,3,600,1,4,2,0,4,365,1,Training
6,5,9,4,2,1,3,600,1,2,2,1,3,438,0,Training
6,5,10,4,2,1,3,600,1,1,4,1,1,431,1,Training
6,5,11,4,2,1,3,600,1,3,1,1,3,439,1,Training
6,5,12,4,2,1,3,600,1,2,2,1,2,560,1,Training
6,5,13,4,2,1,3,600,1,1,1,0,1,426,1,Training
6,5,14,4,2,1,3,600,1,2,2,1,2,562,1,Training
6,5,15,4,2,1,3,600,1,3,1,1,3,347,1,Training
6,5,16,4,2,1,3,600,1,4,3,1,4,324,1,Training
6,5,17,4,2,1,3,600,1,1,4,1,1,477,1,Training
6,5,18,4,2,1,3,600,1,4,3,1,4,470,1,Training
6,5,19,4,2,1,3,600,1,4,1,0,4,494,1,Training
6,5,20,4,2,1,3,600,1,1,4,1,1,424,1,Training
6,6,1,4,2,1,3,600,1,2,2,1,2,513,1,Training
6,6,2,4,2,1,3,600,1,4,3,1,4,412,1,Training
6,6,3,4,2,1,3,600,1,3,1,1,3,322,1,Training
6,6,4,4,2,1,3,600,1,2,2,1,2,475,1,Training
6,6,5,4,2,1,3,600,1,1,4,1,1,404,1,Training
6,6,6,4,2,1,3,600,1,2,2,1,3,349,0,Training
6,6,7,4,2,1,3,600,1,1,3,0,1,373,1,Training
6,6,8,4,2,1,3,600,1,1,3,0,1,462,1,Training
6,6,9,4,2,1,3,600,1,3,1,1,3,423,1,Training
6,6,10,4,2,1,3,600,1,3,1,1,3,496,1,Training
6,6,11,4,2,1,3,600,1,3,1,1,3,393,1,Training
6,6,12,4,2,1,3,600,1,4,3,1,4,402,1,Training
6,6,13,4,2,1,3,600,1,4,3,1,4,412,1,Training
6,6,14,4,2,1,3,600,1,2,2,1,2,515,1,Training
6,6,15,4,2,1,3,600,1,3,1,1,3,444,1,Training
6,6,16,4,2,1,3,600,1,4,3,1,4,389,1,Training
6,6,17,4,2,1,3,600,1,1,4,1,1,365,1,Training
6,6,18,4,2,1,3,600,1,4,3,1,4,406,1,Training
6,6,19,4,2,1,3,600,1,2,3,0,2,479,1,Training
6,6,20,4,2,1,3,600,1,4,3,1,4,424,1,Training
6,7,1,4,2,1,3,600,1,2,2,1,2,561,1,Training
6,7,2,4,2,1,3,600,1,4,1,0,4,346,1,Training
6,7,3,4,2,1,3,600,1,1,4,1,4,354,0,Training
6,7,4,4,2,1,3,600,1,2,2,1,2,523,1,Training
6,7,5,4,2,1,3,600,1,4,3,1,4,452,1,Training
6,7,6,4,2,1,3,600,1,4,3,1,1,461,0,Training
6,7,7,4,2,1,3,600,1,2,2,1,2,454,1,Training
6,7,8,4,2,1,3,600,1,2,2,1,2,575,1,Training
6,7,9,4,2,1,3,600,1,4,3,1,4,424,1,Training
6,7,10,4,2,1,3,600,1,1,4,1,1,417,1,Training
6,7,11,4,2,1,3,600,1,1,4,1,1,585,1,Training
6,7,12,4,2,1,3,600,1,1,4,1,1,434,1,Training
6,7,13,4,2,1,3,600,1,3,1,1,3,363,1,Training
6,7,14,4,2,1,3,600,1,3,1,1,3,532,1,Training
6,7,15,4,2,1,3,600,1,3,1,1,3,413,1,Training
6,7,16,4,2,1,3,600,1,2,2,1,2,534,1,Training
6,7,17,4,2,1,3,600,1,3,1,1,3,510,1,Training
6,7,18,4,2,1,3,600,1,3,1,1,3,487,1,Training
6,7,19,4,2,1,3,600,1,3,1,1,3,464,1,Training
6,7,20,4,2,1,3,600,1,1,2,0,1,537,1,Training
6,8,1,4,2,1,3,600,1,1,4,1,1,433,1,Training
6,8,2,4,2,1,3,600,1,4,3,1,4,458,1,Training
6,8,3,4,2,1,3,600,1,3,1,1,3,388,1,Training
6,8,4,4,2,1,3,600,1,4,3,1,4,461,1,Training
6,8,5,4,2,1,3,600,1,4,3,1,4,438,1,Training
6,8,6,4,2,1,3,600,1,4,3,1,4,351,1,Training
6,8,7,4,2,1,3,600,1,3,1,1,3,343,1,Training
6,8,8,4,2,1,3,600,1,4,3,1,4,288,1,Training
6,8,9,4,2,1,3,600,1,2,2,1,2,412,1,Training
6,8,10,4,2,1,3,600,1,2,2,1,2,514,1,Training
6,8,11,4,2,1,3,600,1,4,3,1,4,412,1,Training
6,8,12,4,2,1,3,600,1,1,4,1,1,452,1,Training
6,8,13,4,2,1,3,600,1,4,3,1,4,397,1,Training
6,8,14,4,2,1,3,600,1,2,2,1,2,581,1,Training
6,8,15,4,2,1,3,600,1,4,4,0,4,414,1,Training
6,8,16,4,2,1,3,600,1,1,4,1,1,343,1,Training
6,8,17,4,2,1,3,600,1,1,4,1,4,368,0,Training
6,8,18,4,2,1,3,600,1,4,3,1,4,425,1,Training
6,8,19,4,2,1,3,600,1,3,1,1,3,354,1,Training
6,8,20,4,2,1,3,600,1,2,4,0,2,522,1,Training
6,9,1,4,2,1,3,600,1,2,2,1,2,577,1,Training
6,9,2,4,2,1,3,600,1,3,1,1,3,412,1,Training
6,9,3,4,2,1,3,600,1,4,3,1,4,403,1,Training
6,9,4,4,2,1,3,600,1,3,1,1,3,427,1,Training
6,9,5,4,2,1,3,600,1,4,3,1,4,436,1,Training
6,9,6,4,2,1,3,600,1,2,2,1,2,525,1,Training
6,9,7,4,2,1,3,600,1,2,2,1,2,566,1,Training
6,9,8,4,2,1,3,600,1,2,2,1,2,446,1,Training
6,9,9,4,2,1,3,600,1,2,2,1,2,407,1,Training
6,9,10,4,2,1,3,600,1,2,1,0,2,352,1,Training
6,9,11,4,2,1,3,600,1,4,3,1,4,425,1,Training
6,9,12,4,2,1,3,600,1,3,1,1,3,306,1,Training
6,9,13,4,2,1,3,600,1,1,4,1,1,571,1,Training
6,9,14,4,2,1,3,600,1,1,4,1,1,339,1,Training
6,9,15,4,2,1,3,600,1,2,2,1,2,460,1,Training
6,9,16,4,2,1,3,600,1,4,3,1,4,437,1,Training
6,9,17,4,2,1,3,600,1,4,3,1,4,446,1,Training
6,9,18,4,2,1,3,600,1,2,2,1,2,535,1,Training
6,9,19,4,2,1,3,600,1,1,4,1,1,480,1,Training
6,9,20,4,2,1,3,600,1,4,3,1,4,360,1,Training
6,10,1,4,2,1,3,600,1,2,2,1,2,465,1,Training
6,10,2,4,2,1,3,600,1,1,4,1,1,330,1,Training
6,10,3,4,2,1,3,600,1,3,1,1,3,466,1,Training
6,10,4,4,2,1,3,600,1,3,1,1,3,412,1,Training
6,10,5,4,2,1,3,600,1,3,1,1,3,420,1,Training
6,10,6,4,2,1,3,600,1,4,3,1,4,429,1,Training
6,10,7,4,2,1,3,600,1,4,3,1,4,422,1,Training
6,10,8,4,2,1,3,600,1,1,3,0,1,447,1,Training
6,10,9,4,2,1,3,600,1,2,2,1,2,392,1,Training
6,10,10,4,2,1,3,600,1,1,4,1,1,417,1,Training
6,10,11,4,2,1,3,600,1,3,1,1,3,346,1,Training
6,10,12,4,2,1,3,600,1,4,3,1,4,307,1,Training
6,10,13,4,2,1,3,600,1,2,2,1,2,363,1,Training
6,10,14,4,2,1,3,600,1,4,3,1,4,405,1,Training
6,10,15,4,2,1,3,600,1,1,4,1,1,381,1,Training
6,10,16,4,2,1,3,600,1,1,4,1,4,342,0,Training
6,10,17,4,2,1,3,600,1,4,3,1,4,431,1,Training
6,10,18,4,2,1,3,600,1,4,3,1,4,472,1,Training
6,10,19,4,2,1,3,600,1,1,4,1,1,401,1,Training
6,10,20,4,2,1,3,600,1,4,3,1,4,362,1,Training
6,11,1,4,2,1,3,600,1,3,1,1,3,417,1,Training
6,11,2,4,2,1,3,600,1,2,2,1,2,523,1,Training
6,11,3,4,2,1,3,600,1,4,3,1,4,372,1,Training
6,11,4,4,2,1,3,600,1,3,1,1,3,349,1,Training
6,11,5,4,2,1,3,600,1,4,3,1,4,438,1,Training
6,11,6,4,2,1,3,600,1,2,2,1,2,510,1,Training
6,11,7,4,2,1,3,600,1,3,1,1,3,439,1,Training
6,11,8,4,2,1,3,600,1,3,2,0,3,464,1,Training
6,11,9,4,2,1,3,600,1,2,2,1,3,441,0,Training
6,11,10,4,2,1,3,600,1,4,3,1,4,386,1,Training
6,11,11,4,2,1,3,600,1,1,1,0,1,491,1,Training
6,11,12,4,2,1,3,600,1,3,1,1,3,468,1,Training
6,11,13,4,2,1,3,600,1,1,4,1,1,429,1,Training
6,11,14,4,2,1,3,600,1,2,2,1,2,549,1,Training
6,11,15,4,2,1,3,600,1,2,2,1,2,526,1,Training
6,11,16,4,2,1,3,600,1,1,4,1,1,471,1,Training
6,11,17,4,2,1,3,600,1,2,2,1,2,608,1,Training
6,11,18,4,2,1,3,600,1,3,1,1,3,489,1,Training
6,11,19,4,2,1,3,600,1,2,2,1,2,626,1,Training
6,11,20,4,2,1,3,600,1,2,2,1,2,427,1,Training
6,12,1,4,2,1,3,600,1,3,1,1,3,449,1,Training
6,12,2,4,2,1,3,600,1,2,2,1,2,569,1,Training
6,12,3,4,2,1,3,600,1,4,3,1,4,386,1,Training
6,12,4,4,2,1,3,600,1,3,1,1,3,491,1,Training
6,12,5,4,2,1,3,600,1,2,2,1,2,404,1,Training
6,12,6,4,2,1,3,600,1,3,1,1,3,477,1,Training
6,12,7,4,2,1,3,600,1,4,3,1,4,422,1,Training
6,12,8,4,2,1,3,600,1,3,1,1,3,526,1,Training
6,12,9,4,2,1,3,600,1,3,1,1,3,503,1,Training
6,12,10,4,2,1,3,600,1,1,3,0,1,496,1,Training
6,12,11,4,2,1,3,600,1,3,4,0,3,413,1,Training
6,12,12,4,2,1,3,600,1,4,3,1,4,385,1,Training
6,12,13,4,2,1,3,600,1,2,2,1,2,570,1,Training
6,12,14,4,2,1,3,600,1,2,2,1,2,595,1,Training
6,12,15,4,2,1,3,600,1,2,2,1,2,508,1,Training
6,12,16,4,2,1,3,600,1,2,1,0,2,517,1,Training
6,12,17,4,2,1,3,600,1,2,1,0,2,414,1,Training
6,12,18,4,2,1,3,600,1,1,4,1,1,470,1,Training
6,12,19,4,2,1,3,600,1,1,4,1,1,335,1,Training
6,12,20,4,2,1,3,600,1,1,4,1,1,488,1,Training
6,13,1,4,2,1,3,600,1,4,3,1,4,433,1,Training
6,13,2,4,2,1,3,600,1,4,3,1,4,363,1,Training
6,13,3,4,2,1,3,600,1,1,4,1,1,451,1,Training
6,13,4,4,2,1,3,600,1,4,2,0,4,524,1,Training
6,13,5,4,2,1,3,600,1,2,2,1,2,581,1,Training
6,13,6,4,2,1,3,600,1,4,3,1,4,446,1,Training
6,13,7,4,2,1,3,600,1,4,3,1,4,391,1,Training
6,13,8,4,2,1,3,600,1,4,3,1,4,416,1,Training
6,13,9,4,2,1,3,600,1,4,3,1,4,392,1,Training
6,13,10,4,2,1,3,600,1,2,2,1,2,513,1,Training
6,13,11,4,2,1,3,600,1,3,1,1,3,362,1,Training
6,13,12,4,2,1,3,600,1,4,3,1,4,355,1,Training
6,13,13,4,2,1,3,600,1,4,3,1,4,476,1,Training
6,13,14,4,2,1,3,600,1,3,3,0,3,485,1,Training
6,13,15,4,2,1,3,600,1,4,3,1,4,446,1,Training
6,13,16,4,2,1,3,600,1,4,4,0,4,471,1,Training
6,13,17,4,2,1,3,600,1,3,1,1,3,463,1,Training
6,13,18,4,2,1,3,600,1,4,3,1,4,412,1,Training
6,13,19,4,2,1,3,600,1,2,4,0,2,513,1,Training
6,13,20,4,2,1,3,600,1,4,3,1,4,458,1,Training
6,14,1,4,2,1,3,600,1,2,2,1,2,481,1,Training
6,14,2,4,2,1,3,600,1,3,1,1,3,412,1,Training
6,14,3,4,2,1,3,600,1,2,2,1,2,531,1,Training
6,14,4,4,2,1,3,600,1,1,2,0,1,524,1,Training
6,14,5,4,2,1,3,600,1,1,4,1,1,437,1,Training
6,14,6,4,2,1,3,600,1,2,2,1,2,446,1,Training
6,14,7,4,2,1,3,600,1,4,3,1,4,423,1,Training
6,14,8,4,2,1,3,600,1,3,1,1,3,416,1,Training
6,14,9,4,2,1,3,600,1,3,4,0,3,504,1,Training
6,14,10,4,2,1,3,600,1,4,3,1,4,353,1,Training
6,14,11,4,2,1,3,600,1,1,4,1,1,474,1,Training
6,14,12,4,2,1,3,600,1,4,3,1,4,498,1,Training
6,14,13,4,2,1,3,600,1,1,4,1,1,459,1,Training
6,14,14,4,2,1,3,600,1,1,4,1,1,452,1,Training
6,14,15,4,2,1,3,600,1,4,3,1,4,397,1,Training
6,14,16,4,2,1,3,600,1,3,1,1,3,614,1,Training
6,14,17,4,2,1,3,600,1,1,4,1,1,463,1,Training
6,14,18,4,2,1,3,600,1,2,3,0,2,392,1,Training
6,14,19,4,2,1,3,600,1,4,3,1,4,401,1,Training
6,14,20,4,2,1,3,600,1,1,4,1,1,505,1,Training
6,15,1,4,2,1,3,600,1,1,4,1,1,463,1,Training
6,15,2,4,2,1,3,600,1,4,3,1,4,440,1,Training
6,15,3,4,2,1,3,600,1,4,4,0,4,401,1,Training
6,15,4,4,2,1,3,600,1,1,4,1,1,474,1,Training
6,15,5,4,2,1,3,600,1,4,3,1,4,370,1,Training
6,15,6,4,2,1,3,600,1,2,1,0,2,571,1,Training
6,15,7,4,2,1,3,600,1,1,2,0,1,420,1,Training
6,15,8,4,2,1,3,600,1,3,1,1,3,397,1,Training
6,15,9,4,2,1,3,600,1,2,2,1,1,406,0,Training
6,15,10,4,2,1,3,600,1,3,1,1,3,543,1,Training
6,15,11,4,2,1,3,600,1,3,1,1,3,488,1,Training
6,15,12,4,2,1,3,600,1,2,2,1,2,609,1,Training
6,15,13,4,2,1,3,600,1,2,2,1,2,426,1,Training
6,15,14,4,2,1,3,600,1,1,4,1,1,451,1,Training
6,15,15,4,2,1,3,600,1,3,1,1,3,459,1,Training
6,15,16,4,2,1,3,600,1,3,1,1,3,468,1,Training
6,15,17,4,2,1,3,600,1,2,2,1,2,558,1,Training
6,15,18,4,2,1,3,600,1,3,1,1,3,423,1,Training
6,15,19,4,2,1,3,600,1,1,4,1,1,463,1,Training
6,15,20,4,2,1,3,600,1,4,3,1,4,360,1,Training
6,16,1,4,2,1,3,600,1,4,3,1,4,465,1,Training
6,16,2,4,2,1,3,600,1,1,4,1,1,442,1,Training
6,16,3,4,2,1,3,600,1,2,2,1,2,579,1,Training
6,16,4,4,2,1,3,600,1,2,2,1,2,588,1,Training
6,16,5,4,2,1,3,600,1,1,4,1,1,388,1,Training
6,16,6,4,2,1,3,600,1,3,1,1,3,413,1,Training
6,16,7,4,2,1,3,600,1,1,4,1,1,470,1,Training
6,16,8,4,2,1,3,600,1,4,3,1,4,446,1,Training
6,16,9,4,2,1,3,600,1,4,3,1,4,935,1,Training
6,16,10,4,2,1,3,600,1,3,1,1,3,432,1,Training
6,16,11,4,2,1,3,600,1,2,2,1,3,633,0,Training
6,16,12,4,2,1,3,600,1,1,4,1,1,802,1,Training
6,16,13,4,2,1,3,600,1,4,3,1,4,442,1,Training
6,16,14,4,2,1,3,600,1,1,4,1,1,403,1,Training
6,16,15,4,2,1,3,600,1,4,3,1,4,492,1,Training
6,16,16,4,2,1,3,600,1,4,3,1,4,469,1,Training
6,16,17,4,2,1,3,600,1,1,4,1,1,462,1,Training
6,16,18,4,2,1,3,600,1,2,2,1,2,518,1,Training
6,16,19,4,2,1,3,600,1,3,1,1,3,671,1,Training
6,16,20,4,2,1,3,600,1,3,1,1,3,552,1,Training
6,17,1,4,2,1,3,600,1,2,1,0,2,553,1,Skill
6,17,2,4,2,1,3,600,1,2,4,0,2,418,1,Skill
6,17,3,4,2,1,3,600,1,4,2,0,4,506,1,Skill
6,17,4,4,2,1,3,600,1,4,4,0,4,450,1,Skill
6,17,5,4,2,1,3,600,1,2,3,0,2,474,1,Skill
6,17,6,4,2,1,3,600,1,2,4,0,2,466,1,Skill
6,17,7,4,2,1,3,600,1,4,3,1,4,378,1,Skill
6,17,8,4,2,1,3,600,1,4,1,0,4,466,1,Skill
6,17,9,4,2,1,3,600,1,2,1,0,3,412,0,Skill
6,17,10,4,2,1,3,600,1,4,4,0,4,452,1,Skill
6,17,11,4,2,1,3,600,1,2,4,0,2,493,1,Skill
6,17,12,4,2,1,3,600,1,2,1,0,2,469,1,Skill
6,17,13,4,2,1,3,600,1,4,1,0,4,446,1,Skill
6,17,14,4,2,1,3,600,1,3,1,1,3,439,1,Skill
6,17,15,4,2,1,3,600,1,1,2,0,1,559,1,Skill
6,17,16,4,2,1,3,600,1,4,1,0,4,471,1,Skill
6,17,17,4,2,1,3,600,1,2,4,0,2,496,1,Skill
6,17,18,4,2,1,3,600,1,4,3,1,4,408,1,Skill
6,17,19,4,2,1,3,600,1,2,2,1,2,495,1,Skill
6,17,20,4,2,1,3,600,1,1,4,1,1,423,1,Skill
6,18,1,4,2,1,3,600,1,2,4,0,2,441,1,Skill
6,18,2,4,2,1,3,600,1,1,2,0,1,482,1,Skill
6,18,3,4,2,1,3,600,1,1,3,0,1,554,1,Skill
6,18,4,4,2,1,3,600,1,3,4,0,3,449,1,Skill
6,18,5,4,2,1,3,600,1,2,3,0,2,570,1,Skill
6,18,6,4,2,1,3,600,1,3,2,0,3,513,1,Skill
6,18,7,4,2,1,3,600,1,4,4,0,4,425,1,Skill
6,18,8,4,2,1,3,600,1,1,1,0,1,466,1,Skill
6,18,9,4,2,1,3,600,1,4,3,1,4,459,1,Skill
6,18,10,4,2,1,3,600,1,3,3,0,3,514,1,Skill
6,18,11,4,2,1,3,600,1,3,4,0,3,521,1,Skill
6,18,12,4,2,1,3,600,1,3,3,0,3,498,1,Skill
6,18,13,4,2,1,3,600,1,2,4,0,2,633,1,Skill
6,18,14,4,2,1,3,600,1,2,4,0,2,466,1,Skill
6,18,15,4,2,1,3,600,1,4,4,0,4,635,1,Skill
6,18,16,4,2,1,3,600,1,3,2,0,3,596,1,Skill
6,18,17,4,2,1,3,600,1,1,1,0,1,492,1,Skill
6,18,18,4,2,1,3,600,1,4,2,0,4,468,1,Skill
6,18,19,4,2,1,3,600,1,1,1,0,1,508,1,Skill
6,18,20,4,2,1,3,600,1,4,3,1,4,421,1,Skill
6,19,1,4,2,1,3,600,1,4,2,0,4,473,1,Skill
6,19,2,4,2,1,3,600,1,3,3,0,3,449,1,Skill
6,19,3,4,2,1,3,600,1,3,3,0,3,408,1,Skill
6,19,4,4,2,1,3,600,1,2,1,0,2,576,1,Skill
6,19,5,4,2,1,3,600,1,1,4,1,1,441,1,Skill
6,19,6,4,2,1,3,600,1,3,1,1,3,529,1,Skill
6,19,7,4,2,1,3,600,1,1,2,0,1,538,1,Skill
6,19,8,4,2,1,3,600,1,1,2,0,1,498,1,Skill
6,19,9,4,2,1,3,600,1,3,4,0,3,537,1,Skill
6,19,10,4,2,1,3,600,1,4,3,1,4,338,1,Skill
6,19,11,4,2,1,3,600,1,2,4,0,2,522,1,Skill
6,19,12,4,2,1,3,600,1,3,1,1,3,499,1,Skill
6,19,13,4,2,1,3,600,1,4,2,0,4,491,1,Skill
6,19,14,4,2,1,3,600,1,1,1,0,1,499,1,Skill
6,19,15,4,2,1,3,600,1,2,1,0,2,475,1,Skill
6,19,16,4,2,1,3,600,1,1,4,1,1,564,1,Skill
6,19,17,4,2,1,3,600,1,3,2,0,3,493,1,Skill
6,19,18,4,2,1,3,600,1,3,1,1,3,468,1,Skill
6,19,19,4,2,1,3,600,1,1,2,0,1,493,1,Skill
6,19,20,4,2,1,3,600,1,4,1,0,4,421,1,Skill
6,20,1,4,2,1,3,600,1,1,3,0,1,537,1,Skill
6,20,2,4,2,1,3,600,1,2,1,0,2,625,1,Skill
6,20,3,4,2,1,3,600,1,2,3,0,2,569,1,Skill
6,20,4,4,2,1,3,600,1,2,2,1,2,497,1,Skill
6,20,5,4,2,1,3,600,1,3,3,0,3,552,1,Skill
6,20,6,4,2,1,3,600,1,4,3,1,4,400,1,Skill
6,20,7,4,2,1,3,600,1,4,3,1,4,359,1,Skill
6,20,8,4,2,1,3,600,1,1,3,0,1,494,1,Skill
6,20,9,4,2,1,3,600,1,4,1,0,4,646,1,Skill
6,20,10,4,2,1,3,600,1,2,3,0,2,559,1,Skill
6,20,11,4,2,1,3,600,1,3,1,1,3,390,1,Skill
6,20,12,4,2,1,3,600,1,4,3,1,4,335,1,Skill
6,20,13,4,2,1,3,600,1,2,4,0,2,423,1,Skill
6,20,14,4,2,1,3,600,1,1,2,0,1,399,1,Skill
6,20,15,4,2,1,3,600,1,3,4,0,3,535,1,Skill
6,20,16,4,2,1,3,600,1,4,3,1,4,336,1,Skill
6,20,17,4,2,1,3,600,1,4,3,1,4,359,1,Skill
6,20,18,4,2,1,3,600,1,2,2,1,2,478,1,Skill
6,20,19,4,2,1,3,600,1,1,4,1,1,534,1,Skill
6,20,20,4,2,1,3,600,1,2,1,0,2,575,1,Skill
6,21,1,4,2,1,3,600,1,2,4,0,2,537,1,Skill
6,21,2,4,2,1,3,600,1,2,2,1,2,402,1,Skill
6,21,3,4,2,1,3,600,1,3,1,1,3,361,1,Skill
6,21,4,4,2,1,3,600,1,4,3,1,4,306,1,Skill
6,21,5,4,2,1,3,600,1,2,2,1,2,378,1,Skill
6,21,6,4,2,1,3,600,1,4,4,0,1,369,0,Skill
6,21,7,4,2,1,3,600,1,3,2,0,3,506,1,Skill
6,21,8,4,2,1,3,600,1,4,3,1,4,418,1,Skill
6,21,9,4,2,1,3,600,1,3,2,0,3,377,1,Skill
6,21,10,4,2,1,3,600,1,3,2,0,3,416,1,Skill
6,21,11,4,2,1,3,600,1,1,3,0,1,743,1,Skill
6,21,12,4,2,1,3,600,1,2,1,0,2,495,1,Skill
6,21,13,4,2,1,3,600,1,1,4,1,1,472,1,Skill
6,21,14,4,2,1,3,600,1,1,3,0,1,560,1,Skill
6,21,15,4,2,1,3,600,1,1,3,0,1,408,1,Skill
6,21,16,4,2,1,3,600,1,2,2,1,2,543,1,Skill
6,21,17,4,2,1,3,600,1,1,2,0,1,439,1,Skill
6,21,18,4,2,1,3,600,1,3,4,0,3,462,1,Skill
6,21,19,4,2,1,3,600,1,4,2,0,4,503,1,Skill
6,21,20,4,2,1,3,600,1,2,3,0,2,574,1,Skill
50,1,1,4,2,1,3,600,1,1,4,1,1,630,1,Training
50,1,2,4,2,1,3,600,1,4,3,1,4,614,1,Training
50,1,3,4,2,1,3,600,1,4,3,1,4,655,1,Training
50,1,4,4,2,1,3,600,1,3,1,1,3,567,1,Training
50,1,5,4,2,1,3,600,1,1,2,0,1,480,1,Training
50,1,6,4,2,1,3,600,1,3,1,1,3,441,1,Training
50,1,7,4,2,1,3,600,1,2,2,1,2,551,1,Training
50,1,8,4,2,1,3,600,1,2,2,1,3,367,0,Training
50,1,9,4,2,1,3,600,1,1,4,1,1,472,1,Training
50,1,10,4,2,1,3,600,1,4,3,1,4,481,1,Training
50,1,11,4,2,1,3,600,1,1,4,1,1,522,1,Training
50,1,12,4,2,1,3,600,1,1,4,1,1,466,1,Training
50,1,13,4,2,1,3,600,1,4,3,1,4,427,1,Training
50,1,14,4,2,1,3,600,1,1,4,1,1,532,1,Training
50,1,15,4,2,1,3,600,1,1,4,1,1,429,1,Training
50,1,16,4,2,1,3,600,1,1,4,1,1,437,1,Training
50,1,17,4,2,1,3,600,1,3,1,1,3,510,1,Training
50,1,18,4,2,1,3,600,1,2,2,1,2,423,1,Training
50,1,19,4,2,1,3,600,1,4,3,1,4,464,1,Training
50,1,20,4,2,1,3,600,1,2,2,1,2,505,1,Training
50,2,1,4,2,1,3,600,1,2,2,1,2,640,1,Training
50,2,2,4,2,1,3,600,1,4,3,1,4,425,1,Training
50,2,3,4,2,1,3,600,1,1,4,1,1,370,1,Training
50,2,4,4,2,1,3,600,1,3,1,1,3,570,1,Training
50,2,5,4,2,1,3,600,1,2,2,1,2,323,1,Training
50,2,6,4,2,1,3,600,1,2,2,1,3,396,0,Training
50,2,7,4,2,1,3,600,1,4,3,1,4,437,1,Training
50,2,8,4,2,1,3,600,1,2,2,1,2,478,1,Training
50,2,9,4,2,1,3,600,1,1,4,1,1,519,1,Training
50,2,10,4,2,1,3,600,1,1,4,1,1,527,1,Training
50,2,11,4,2,1,3,600,1,1,4,1,1,376,1,Training
50,2,12,4,2,1,3,600,1,4,3,1,4,369,1,Training
50,2,13,4,2,1,3,600,1,2,2,1,3,377,0,Training
50,2,14,4,2,1,3,600,1,2,1,0,2,402,1,Training
50,2,15,4,2,1,3,600,1,2,2,1,2,442,1,Training
50,2,16,4,2,1,3,600,1,3,1,1,3,435,1,Training
50,2,17,4,2,1,3,600,1,4,3,1,3,379,0,Training
50,2,18,4,2,1,3,600,1,1,4,1,1,500,1,Training
50,2,19,4,2,1,3,600,1,4,3,1,4,525,1,Training
50,2,20,4,2,1,3,600,1,4,3,1,4,438,1,Training
50,3,1,4,2,1,3,600,1,4,3,1,4,544,1,Training
50,3,2,4,2,1,3,600,1,4,3,1,3,473,0,Training
50,3,3,4,2,1,3,600,1,1,3,0,1,465,1,Training
50,3,4,4,2,1,3,600,1,1,4,1,4,394,0,Training
50,3,5,4,2,1,3,600,1,4,2,0,4,419,1,Training
50,3,6,4,2,1,3,600,1,3,1,1,4,428,0,Training
50,3,7,4,2,1,3,600,1,2,2,1,1,453,0,Training
50,3,8,4,2,1,3,600,1,3,2,0,3,525,1,Training
50,3,9,4,2,1,3,600,1,2,2,1,2,374,1,Training
50,3,10,4,2,1,3,600,1,1,4,1,2,431,0,Training
50,3,11,4,2,1,3,600,1,2,2,1,2,536,1,Training
50,3,12,4,2,1,3,600,1,4,3,1,4,545,1,Training
50,3,13,4,2,1,3,600,1,1,4,1,1,458,1,Training
50,3,14,4,2,1,3,600,1,4,3,1,4,451,1,Training
50,3,15,4,2,1,3,600,1,4,3,1,4,524,1,Training
50,3,16,4,2,1,3,600,1,3,1,1,4,388,0,Training
50,3,17,4,2,1,3,600,1,1,4,1,1,493,1,Training
50,3,18,4,2,1,3,600,1,1,4,1,1,486,1,Training
50,3,19,4,2,1,3,600,1,2,2,1,2,351,1,Training
50,3,20,4,2,1,3,600,1,3,1,1,3,440,1,Training
50,4,1,4,2,1,3,600,1,2,2,1,2,497,1,Training
50,4,2,4,2,1,3,600,1,3,1,1,3,345,1,Training
50,4,3,4,2,1,3,600,1,4,3,1,4,338,1,Training
50,4,4,4,2,1,3,600,1,3,1,1,3,443,1,Training
50,4,5,4,2,1,3,600,1,4,3,1,4,580,1,Training
50,4,6,4,2,1,3,600,1,2,2,1,3,381,0,Training
50,4,7,4,2,1,3,600,1,1,4,1,1,422,1,Training
50,4,8,4,2,1,3,600,1,1,4,1,2,430,0,Training
50,4,9,4,2,1,3,600,1,2,2,1,2,375,1,Training
50,4,10,4,2,1,3,600,1,3,1,1,3,304,1,Training
50,4,11,4,2,1,3,600,1,1,4,1,1,473,1,Training
50,4,12,4,2,1,3,600,1,2,2,1,2,338,1,Training
50,4,13,4,2,1,3,600,1,4,3,1,3,347,0,Training
50,4,14,4,2,1,3,600,1,2,2,1,2,500,1,Training
50,4,15,4,2,1,3,600,1,2,2,1,2,493,1,Training
50,4,16,4,2,1,3,600,1,1,4,1,1,469,1,Training
50,4,17,4,2,1,3,600,1,2,2,1,2,510,1,Training
50,4,18,4,2,1,3,600,1,2,2,1,2,359,1,Training
50,4,19,4,2,1,3,600,1,1,4,1,4,400,0,Training
50,4,20,4,2,1,3,600,1,1,4,1,1,585,1,Training
50,5,1,4,2,1,3,600,1,2,2,1,2,577,1,Training
50,5,2,4,2,1,3,600,1,1,4,1,1,394,1,Training
50,5,3,4,2,1,3,600,1,2,3,0,1,466,0,Training
50,5,4,4,2,1,3,600,1,1,2,0,1,459,1,Training
50,5,5,4,2,1,3,600,1,1,4,1,1,420,1,Training
50,5,6,4,2,1,3,600,1,3,1,1,3,445,1,Training
50,5,7,4,2,1,3,600,1,2,2,1,2,390,1,Training
50,5,8,4,2,1,3,600,1,1,4,1,4,414,0,Training
50,5,9,4,2,1,3,600,1,3,3,0,3,471,1,Training
50,5,10,4,2,1,3,600,1,3,1,1,3,848,1,Training
50,5,11,4,2,1,3,600,1,2,2,1,2,441,1,Training
50,5,12,4,2,1,3,600,1,2,2,1,2,514,1,Training
50,5,13,4,2,1,3,600,1,4,3,1,4,458,1,Training
50,5,14,4,2,1,3,600,1,3,1,1,1,467,0,Training
50,5,15,4,2,1,3,600,1,1,4,1,1,572,1,Training
50,5,16,4,2,1,3,600,1,1,4,1,1,501,1,Training
50,5,17,4,2,1,3,600,1,1,3,0,1,462,1,Training
50,5,18,4,2,1,3,600,1,4,3,1,4,438,1,Training
50,5,19,4,2,1,3,600,1,3,1,1,3,415,1,Training
50,5,20,4,2,1,3,600,1,3,1,1,1,424,0,Training
50,6,1,4,2,1,3,600,1,4,3,1,4,496,1,Training
50,6,2,4,2,1,3,600,1,2,2,1,2,473,1,Training
50,6,3,4,2,1,3,600,1,3,2,0,3,386,1,Training
50,6,4,4,2,1,3,600,1,1,3,0,1,459,1,Training
50,6,5,4,2,1,3,600,1,3,1,1,3,468,1,Training
50,6,6,4,2,1,3,600,1,4,3,1,4,429,1,Training
50,6,7,4,2,1,3,600,1,3,4,0,3,486,1,Training
50,6,8,4,2,1,3,600,1,2,2,1,2,415,1,Training
50,6,9,4,2,1,3,600,1,4,3,1,4,408,1,Training
50,6,10,4,2,1,3,600,1,1,4,1,1,401,1,Training
50,6,11,4,2,1,3,600,1,1,3,0,1,490,1,Training
50,6,12,4,2,1,3,600,1,2,2,1,3,354,0,Training
50,6,13,4,2,1,3,600,1,1,4,1,1,443,1,Training
50,6,14,4,2,1,3,600,1,4,3,1,4,420,1,Training
50,6,15,4,2,1,3,600,1,3,1,1,3,557,1,Training
50,6,16,4,2,1,3,600,1,1,4,1,1,454,1,Training
50,6,17,4,2,1,3,600,1,2,2,1,2,335,1,Training
50,6,18,4,2,1,3,600,1,1,4,1,1,519,1,Training
50,6,19,4,2,1,3,600,1,1,4,1,1,608,1,Training
50,6,20,4,2,1,3,600,1,3,1,1,3,489,1,Training
50,7,1,4,2,1,3,600,1,2,2,1,2,673,1,Training
50,7,2,4,2,1,3,600,1,4,3,1,3,378,0,Training
50,7,3,4,2,1,3,600,1,1,4,1,1,402,1,Training
50,7,4,4,2,1,3,600,1,3,1,1,3,331,1,Training
50,7,5,4,2,1,3,600,1,3,1,1,2,340,0,Training
50,7,6,4,2,1,3,600,1,2,2,1,1,397,0,Training
50,7,7,4,2,1,3,600,1,1,4,1,3,518,0,Training
50,7,8,4,2,1,3,600,1,4,2,0,4,431,1,Training
50,7,9,4,2,1,3,600,1,4,3,1,4,488,1,Training
50,7,10,4,2,1,3,600,1,2,2,1,2,401,1,Training
50,7,11,4,2,1,3,600,1,1,1,0,1,538,1,Training
50,7,12,4,2,1,3,600,1,3,1,1,3,515,1,Training
50,7,13,4,2,1,3,600,1,1,2,0,1,524,1,Training
50,7,14,4,2,1,3,600,1,3,1,1,1,357,0,Training
50,7,15,4,2,1,3,600,1,4,3,1,4,446,1,Training
50,7,16,4,2,1,3,600,1,4,3,1,4,598,1,Training
50,7,17,4,2,1,3,600,1,3,1,1,3,335,1,Training
50,7,18,4,2,1,3,600,1,3,1,1,1,376,0,Training
50,7,19,4,2,1,3,600,1,1,4,1,1,561,1,Training
50,7,20,4,2,1,3,600,1,1,4,1,1,506,1,Training
50,8,1,4,2,1,3,600,1,2,2,1,2,497,1,Training
50,8,2,4,2,1,3,600,1,4,3,1,4,442,1,Training
50,8,3,4,2,1,3,600,1,1,4,1,1,355,1,Training
50,8,4,4,2,1,3,600,1,2,2,1,2,300,1,Training
50,8,5,4,2,1,3,600,1,1,4,1,1,309,1,Training
50,8,6,4,2,1,3,600,1,2,2,1,2,590,1,Training
50,8,7,4,2,1,3,600,1,3,1,1,3,311,1,Training
50,8,8,4,2,1,3,600,1,4,3,1,4,304,1,Training
50,8,9,4,2,1,3,600,1,2,1,0,2,441,1,Training
50,8,10,4,2,1,3,600,1,4,4,0,3,386,0,Training
50,8,11,4,2,1,3,600,1,3,1,1,4,346,0,Training
50,8,12,4,2,1,3,600,1,2,1,0,3,387,0,Training
50,8,13,4,2,1,3,600,1,4,3,1,4,428,1,Training
50,8,14,4,2,1,3,600,1,1,4,1,1,485,1,Training
50,8,15,4,2,1,3,600,1,2,2,1,2,398,1,Training
50,8,16,4,2,1,3,600,1,4,3,1,4,391,1,Training
50,8,17,4,2,1,3,600,1,3,1,1,3,464,1,Training
50,8,18,4,2,1,3,600,1,2,2,1,2,329,1,Training
50,8,19,4,2,1,3,600,1,3,1,1,4,369,0,Training
50,8,20,4,2,1,3,600,1,4,4,0,4,426,1,Training
50,9,1,4,2,1,3,600,1,2,2,1,2,545,1,Training
50,9,2,4,2,1,3,600,1,3,1,1,3,282,1,Training
50,9,3,4,2,1,3,600,1,4,3,1,4,371,1,Training
50,9,4,4,2,1,3,600,1,4,3,1,4,476,1,Training
50,9,5,4,2,1,3,600,1,2,2,1,2,356,1,Training
50,9,6,4,2,1,3,600,1,4,3,1,4,445,1,Training
50,9,7,4,2,1,3,600,1,3,1,1,3,390,1,Training
50,9,8,4,2,1,3,600,1,2,2,1,2,351,1,Training
50,9,9,4,2,1,3,600,1,3,1,1,3,520,1,Training
50,9,10,4,2,1,3,600,1,4,3,1,4,417,1,Training
50,9,11,4,2,1,3,600,1,3,1,1,3,362,1,Training
50,9,12,4,2,1,3,600,1,3,1,1,3,483,1,Training
50,9,13,4,2,1,3,600,1,3,2,0,4,508,0,Training
50,9,14,4,2,1,3,600,1,4,3,1,4,485,1,Training
50,9,15,4,2,1,3,600,1,2,2,1,2,509,1,Training
50,9,16,4,2,1,3,600,1,3,1,1,3,374,1,Training
50,9,17,4,2,1,3,600,1,2,2,1,2,415,1,Training
50,9,18,4,2,1,3,600,1,2,2,1,2,488,1,Training
50,9,19,4,2,1,3,600,1,1,4,1,1,497,1,Training
50,9,20,4,2,1,3,600,1,4,3,1,4,442,1,Training
50,10,1,4,2,1,3,600,1,1,4,1,1,529,1,Training
50,10,2,4,2,1,3,600,1,1,4,1,1,412,1,Training
50,10,3,4,2,1,3,600,1,4,2,0,4,371,1,Training
50,10,4,4,2,1,3,600,1,3,1,1,3,331,1,Training
50,10,5,4,2,1,3,600,1,1,4,1,4,404,0,Training
50,10,6,4,2,1,3,600,1,2,2,1,1,573,0,Training
50,10,7,4,2,1,3,600,1,3,1,1,3,358,1,Training
50,10,8,4,2,1,3,600,1,4,3,1,4,511,1,Training
50,10,9,4,2,1,3,600,1,3,1,1,3,376,1,Training
50,10,10,4,2,1,3,600,1,2,2,1,2,673,1,Training
50,10,11,4,2,1,3,600,1,1,4,1,1,378,1,Training
50,10,12,4,2,1,3,600,1,1,4,1,1,355,1,Training
50,10,13,4,2,1,3,600,1,2,2,1,3,396,0,Training
50,10,14,4,2,1,3,600,1,2,2,1,2,389,1,Training
50,10,15,4,2,1,3,600,1,4,3,1,4,382,1,Training
50,10,16,4,2,1,3,600,1,4,3,1,4,423,1,Training
50,10,17,4,2,1,3,600,1,4,3,1,4,400,1,Training
50,10,18,4,2,1,3,600,1,4,3,1,4,360,1,Training
50,10,19,4,2,1,3,600,1,2,2,1,2,448,1,Training
50,10,20,4,2,1,3,600,1,2,2,1,2,441,1,Training
50,11,1,4,2,1,3,600,1,2,2,1,2,417,1,Training
50,11,2,4,2,1,3,600,1,1,4,1,1,378,1,Training
50,11,3,4,2,1,3,600,1,4,2,0,4,387,1,Training
50,11,4,4,2,1,3,600,1,3,1,1,3,492,1,Training
50,11,5,4,2,1,3,600,1,3,1,1,3,469,1,Training
50,11,6,4,2,1,3,600,1,3,1,1,3,430,1,Training
50,11,7,4,2,1,3,600,1,2,2,1,2,423,1,Training
50,11,8,4,2,1,3,600,1,4,3,1,4,416,1,Training
50,11,9,4,2,1,3,600,1,4,3,1,3,377,0,Training
50,11,10,4,2,1,3,600,1,1,4,1,1,578,1,Training
50,11,11,4,2,1,3,600,1,3,1,1,3,459,1,Training
50,11,12,4,2,1,3,600,1,1,4,1,1,484,1,Training
50,11,13,4,2,1,3,600,1,3,1,1,4,412,0,Training
50,11,14,4,2,1,3,600,1,3,1,1,3,485,1,Training
50,11,15,4,2,1,3,600,1,1,2,0,1,414,1,Training
50,11,16,4,2,1,3,600,1,3,1,1,3,471,1,Training
50,11,17,4,2,1,3,600,1,3,1,1,3,320,1,Training
50,11,18,4,2,1,3,600,1,2,2,1,2,377,1,Training
50,11,19,4,2,1,3,600,1,2,2,1,3,370,0,Training
50,11,20,4,2,1,3,600,1,2,2,1,2,395,1,Training
50,12,1,4,2,1,3,600,1,3,4,0,3,520,1,Training
50,12,2,4,2,1,3,600,1,1,4,1,2,353,0,Training
50,12,3,4,2,1,3,600,1,4,3,1,4,412,1,Training
50,12,4,4,2,1,3,600,1,1,3,0,2,451,0,Training
50,12,5,4,2,1,3,600,1,3,1,1,3,364,1,Training
50,12,6,4,2,1,3,600,1,4,3,1,4,517,1,Training
50,12,7,4,2,1,3,600,1,2,2,1,2,382,1,Training
50,12,8,4,2,1,3,600,1,1,4,1,1,359,1,Training
50,12,9,4,2,1,3,600,1,4,3,1,4,495,1,Training
50,12,10,4,2,1,3,600,1,3,1,1,3,520,1,Training
50,12,11,4,2,1,3,600,1,1,4,1,4,401,0,Training
50,12,12,4,2,1,3,600,1,2,2,1,1,586,0,Training
50,12,13,4,2,1,3,600,1,4,3,1,4,467,1,Training
50,12,14,4,2,1,3,600,1,3,3,0,3,428,1,Training
50,12,15,4,2,1,3,600,1,4,3,1,4,421,1,Training
50,12,16,4,2,1,3,600,1,2,2,1,2,446,1,Training
50,12,17,4,2,1,3,600,1,4,3,1,4,390,1,Training
50,12,18,4,2,1,3,600,1,2,2,1,3,399,0,Training
50,12,19,4,2,1,3,600,1,2,4,0,2,376,1,Training
50,12,20,4,2,1,3,600,1,4,3,1,4,401,1,Training
50,13,1,4,2,1,3,600,1,4,3,1,4,385,1,Training
50,13,2,4,2,1,3,600,1,1,4,1,2,378,0,Training
50,13,3,4,2,1,3,600,1,1,4,1,1,435,1,Training
50,13,4,4,2,1,3,600,1,1,4,1,1,380,1,Training
50,13,5,4,2,1,3,600,1,2,2,1,2,420,1,Training
50,13,6,4,2,1,3,600,1,1,4,1,1,429,1,Training
50,13,7,4,2,1,3,600,1,4,3,1,4,391,1,Training
50,13,8,4,2,1,3,600,1,3,1,1,3,335,1,Training
50,13,9,4,2,1,3,600,1,1,4,1,1,375,1,Training
50,13,10,4,2,1,3,600,1,3,1,1,3,368,1,Training
50,13,11,4,2,1,3,600,1,1,4,1,1,457,1,Training
50,13,12,4,2,1,3,600,1,3,1,1,2,370,0,Training
50,13,13,4,2,1,3,600,1,3,1,1,3,507,1,Training
50,13,14,4,2,1,3,600,1,1,4,1,1,436,1,Training
50,13,15,4,2,1,3,600,1,1,3,0,1,413,1,Training
50,13,16,4,2,1,3,600,1,2,2,1,3,390,0,Training
50,13,17,4,2,1,3,600,1,3,1,1,3,446,1,Training
50,13,18,4,2,1,3,600,1,1,4,1,1,455,1,Training
50,13,19,4,2,1,3,600,1,2,2,1,2,432,1,Training
50,13,20,4,2,1,3,600,1,2,2,1,2,473,1,Training
50,14,1,4,2,1,3,600,1,1,4,1,1,465,1,Training
50,14,2,4,2,1,3,600,1,1,4,1,1,442,1,Training
50,14,3,4,2,1,3,600,1,4,3,1,4,483,1,Training
50,14,4,4,2,1,3,600,1,3,1,1,3,444,1,Training
50,14,5,4,2,1,3,600,1,4,3,1,4,389,1,Training
50,14,6,4,2,1,3,600,1,2,2,1,2,478,1,Training
50,14,7,4,2,1,3,600,1,1,4,1,1,487,1,Training
50,14,8,4,2,1,3,600,1,1,3,0,1,415,1,Training
50,14,9,4,2,1,3,600,1,1,4,1,1,376,1,Training
50,14,10,4,2,1,3,600,1,2,2,1,2,433,1,Training
50,14,11,4,2,1,3,600,1,1,4,1,1,426,1,Training
50,14,12,4,2,1,3,600,1,2,1,0,2,435,1,Training
50,14,13,4,2,1,3,600,1,1,4,1,1,460,1,Training
50,14,14,4,2,1,3,600,1,2,2,1,2,565,1,Training
50,14,15,4,2,1,3,600,1,3,1,1,3,510,1,Training
50,14,16,4,2,1,3,600,1,3,1,1,1,359,0,Training
50,14,17,4,2,1,3,600,1,1,4,1,1,384,1,Training
50,14,18,4,2,1,3,600,1,4,3,1,4,441,1,Training
50,14,19,4,2,1,3,600,1,2,2,1,2,546,1,Training
50,14,20,4,2,1,3,600,1,2,2,1,2,539,1,Training
50,15,1,4,2,1,3,600,1,3,1,1,2,401,0,Training
50,15,2,4,2,1,3,600,1,1,4,1,1,426,1,Training
50,15,3,4,2,1,3,600,1,2,2,1,2,435,1,Training
50,15,4,4,2,1,3,600,1,1,4,1,1,396,1,Training
50,15,5,4,2,1,3,600,1,2,2,1,2,437,1,Training
50,15,6,4,2,1,3,600,1,4,3,1,4,398,1,Training
50,15,7,4,2,1,3,600,1,1,4,1,1,423,1,Training
50,15,8,4,2,1,3,600,1,4,3,1,4,448,1,Training
50,15,9,4,2,1,3,600,1,2,2,1,2,457,1,Training
50,15,10,4,2,1,3,600,1,2,2,1,1,354,0,Training
50,15,11,4,2,1,3,600,1,2,2,1,2,523,1,Training
50,15,12,4,2,1,3,600,1,1,4,1,1,436,1,Training
50,15,13,4,2,1,3,600,1,4,3,1,4,429,1,Training
50,15,14,4,2,1,3,600,1,4,4,0,4,406,1,Training
50,15,15,4,2,1,3,600,1,3,1,1,4,415,0,Training
50,15,16,4,2,1,3,600,1,3,1,1,3,408,1,Training
50,15,17,4,2,1,3,600,1,1,4,1,1,369,1,Training
50,15,18,4,2,1,3,600,1,4,3,1,4,426,1,Training
50,15,19,4,2,1,3,600,1,1,4,1,1,323,1,Training
50,15,20,4,2,1,3,600,1,4,3,1,4,396,1,Training
50,16,1,4,2,1,3,600,1,4,3,1,4,465,1,Training
50,16,2,4,2,1,3,600,1,1,4,1,1,412,1,Training
50,16,3,4,2,1,3,600,1,2,2,1,3,418,0,Training
50,16,4,4,2,1,3,600,1,2,2,1,1,363,0,Training
50,16,5,4,2,1,3,600,1,1,4,1,1,340,1,Training
50,16,6,4,2,1,3,600,1,4,3,1,4,429,1,Training
50,16,7,4,2,1,3,600,1,1,4,1,2,406,0,Training
50,16,8,4,2,1,3,600,1,1,4,1,1,350,1,Training
50,16,9,4,2,1,3,600,1,2,2,1,3,487,0,Training
50,16,10,4,2,1,3,600,1,4,3,1,4,369,1,Training
50,16,11,4,2,1,3,600,1,2,2,1,1,329,0,Training
50,16,12,4,2,1,3,600,1,3,1,1,3,546,1,Training
50,16,13,4,2,1,3,600,1,1,4,1,1,315,1,Training
50,16,14,4,2,1,3,600,1,3,1,1,3,420,1,Training
50,16,15,4,2,1,3,600,1,3,1,1,1,381,0,Training
50,16,16,4,2,1,3,600,1,2,2,1,2,389,1,Training
50,16,17,4,2,1,3,600,1,3,2,0,3,382,1,Training
50,16,18,4,2,1,3,600,1,4,3,1,4,455,1,Training
50,16,19,4,2,1,3,600,1,1,4,1,1,464,1,Training
50,16,20,4,2,1,3,600,1,2,2,1,2,425,1,Training
50,17,1,4,2,1,3,600,1,4,2,0,4,921,1,Skill
50,17,2,4,2,1,3,600,1,1,4,1,1,432,1,Skill
50,17,3,4,2,1,3,600,1,2,2,1,3,473,0,Skill
50,17,4,4,2,1,3,600,1,3,4,0,3,497,1,Skill
50,17,5,4,2,1,3,600,1,2,1,0,1,698,0,Skill
50,17,6,4,2,1,3,600,1,2,1,0,2,610,1,Skill
50,17,7,4,2,1,3,600,1,2,1,0,2,459,1,Skill
50,17,8,4,2,1,3,600,1,4,4,0,4,388,1,Skill
50,17,9,4,2,1,3,600,1,1,2,0,1,509,1,Skill
50,17,10,4,2,1,3,600,1,2,3,0,2,517,1,Skill
50,17,11,4,2,1,3,600,1,1,2,0,1,444,1,Skill
50,17,12,4,2,1,3,600,1,4,3,1,4,499,1,Skill
50,17,13,4,2,1,3,600,1,2,1,0,2,491,1,Skill
50,17,14,4,2,1,3,600,1,4,4,0,4,467,1,Skill
50,17,15,4,2,1,3,600,1,1,3,0,1,413,1,Skill
50,17,16,4,2,1,3,600,1,4,2,0,4,467,1,Skill
50,17,17,4,2,1,3,600,1,1,2,0,1,459,1,Skill
50,17,18,4,2,1,3,600,1,4,3,1,4,450,1,Skill
50,17,19,4,2,1,3,600,1,3,4,0,3,426,1,Skill
50,17,20,4,2,1,3,600,1,3,1,1,1,387,0,Skill
50,18,1,4,2,1,3,600,1,4,1,0,4,393,1,Skill
50,18,2,4,2,1,3,600,1,3,1,1,3,482,1,Skill
50,18,3,4,2,1,3,600,1,3,1,1,3,363,1,Skill
50,18,4,4,2,1,3,600,1,2,3,0,2,499,1,Skill
50,18,5,4,2,1,3,600,1,2,2,1,2,539,1,Skill
50,18,6,4,2,1,3,600,1,4,3,1,4,402,1,Skill
50,18,7,4,2,1,3,600,1,2,4,0,2,506,1,Skill
50,18,8,4,2,1,3,600,1,3,1,1,3,354,1,Skill
50,18,9,4,2,1,3,600,1,1,2,0,1,379,1,Skill
50,18,10,4,2,1,3,600,1,2,4,0,2,403,1,Skill
50,18,11,4,2,1,3,600,1,1,1,0,1,427,1,Skill
50,18,12,4,2,1,3,600,1,1,2,0,1,452,1,Skill
50,18,13,4,2,1,3,600,1,2,1,0,2,380,1,Skill
50,18,14,4,2,1,3,600,1,3,2,0,3,421,1,Skill
50,18,15,4,2,1,3,600,1,2,2,1,1,444,0,Skill
50,18,16,4,2,1,3,600,1,4,3,1,4,420,1,Skill
50,18,17,4,2,1,3,600,1,2,1,0,2,459,1,Skill
50,18,18,4,2,1,3,600,1,2,4,0,2,532,1,Skill
50,18,19,4,2,1,3,600,1,1,2,0,1,429,1,Skill
50,18,20,4,2,1,3,600,1,2,3,0,2,405,1,Skill
50,19,1,4,2,1,3,600,1,4,2,0,4,505,1,Skill
50,19,2,4,2,1,3,600,1,1,2,0,1,449,1,Skill
50,19,3,4,2,1,3,600,1,3,2,0,3,441,1,Skill
50,19,4,4,2,1,3,600,1,3,1,1,2,432,0,Skill
50,19,5,4,2,1,3,600,1,1,2,0,1,505,1,Skill
50,19,6,4,2,1,3,600,1,4,4,0,4,400,1,Skill
50,19,7,4,2,1,3,600,1,4,4,0,4,411,1,Skill
50,19,8,4,2,1,3,600,1,2,4,0,3,434,0,Skill
50,19,9,4,2,1,3,600,1,2,1,0,2,427,1,Skill
50,19,10,4,2,1,3,600,1,4,4,0,4,420,1,Skill
50,19,11,4,2,1,3,600,1,2,2,1,2,381,1,Skill
50,19,12,4,2,1,3,600,1,2,4,0,2,436,1,Skill
50,19,13,4,2,1,3,600,1,3,4,0,3,445,1,Skill
50,19,14,4,2,1,3,600,1,1,1,0,1,406,1,Skill
50,19,15,4,2,1,3,600,1,1,2,0,1,334,1,Skill
50,19,16,4,2,1,3,600,1,3,1,1,3,454,1,Skill
50,19,17,4,2,1,3,600,1,1,3,0,2,446,0,Skill
50,19,18,4,2,1,3,600,1,1,3,0,1,518,1,Skill
50,19,19,4,2,1,3,600,1,1,2,0,1,445,1,Skill
50,19,20,4,2,1,3,600,1,1,1,0,1,452,1,Skill
50,20,1,4,2,1,3,600,1,4,4,0,4,474,1,Skill
50,20,2,4,2,1,3,600,1,2,2,1,2,483,1,Skill
50,20,3,4,2,1,3,600,1,3,3,0,3,442,1,Skill
50,20,4,4,2,1,3,600,1,1,4,1,1,337,1,Skill
50,20,5,4,2,1,3,600,1,1,1,0,1,474,1,Skill
50,20,6,4,2,1,3,600,1,3,3,0,3,451,1,Skill
50,20,7,4,2,1,3,600,1,1,3,0,1,362,1,Skill
50,20,8,4,2,1,3,600,1,2,3,0,2,498,1,Skill
50,20,9,4,2,1,3,600,1,1,2,0,1,329,1,Skill
50,20,10,4,2,1,3,600,1,2,4,0,2,465,1,Skill
50,20,11,4,2,1,3,600,1,4,4,0,4,394,1,Skill
50,20,12,4,2,1,3,600,1,1,4,1,1,403,1,Skill
50,20,13,4,2,1,3,600,1,1,4,1,1,395,1,Skill
50,20,14,4,2,1,3,600,1,4,1,0,4,484,1,Skill
50,20,15,4,2,1,3,600,1,1,3,0,1,525,1,Skill
50,20,16,4,2,1,3,600,1,4,2,0,4,452,1,Skill
50,20,17,4,2,1,3,600,1,1,4,1,1,460,1,Skill
50,20,18,4,2,1,3,600,1,3,3,0,3,468,1,Skill
50,20,19,4,2,1,3,600,1,2,2,1,2,427,1,Skill
50,20,20,4,2,1,3,600,1,3,1,1,3,435,1,Skill
50,21,1,4,2,1,3,600,1,3,2,0,3,457,1,Skill
50,21,2,4,2,1,3,600,1,3,1,1,2,417,0,Skill
50,21,3,4,2,1,3,600,1,2,2,1,1,441,0,Skill
50,21,4,4,2,1,3,600,1,3,4,0,3,545,1,Skill
50,21,5,4,2,1,3,600,1,3,4,0,3,442,1,Skill
50,21,6,4,2,1,3,600,1,2,2,1,2,547,1,Skill
50,21,7,4,2,1,3,600,1,2,4,0,2,442,1,Skill
50,21,8,4,2,1,3,600,1,3,1,1,3,451,1,Skill
50,21,9,4,2,1,3,600,1,4,3,1,4,476,1,Skill
50,21,10,4,2,1,3,600,1,1,4,1,1,388,1,Skill
50,21,11,4,2,1,3,600,1,4,2,0,4,508,1,Skill
50,21,12,4,2,1,3,600,1,3,1,1,3,372,1,Skill
50,21,13,4,2,1,3,600,1,1,1,0,1,461,1,Skill
50,21,14,4,2,1,3,600,1,1,3,0,1,422,1,Skill
50,21,15,4,2,1,3,600,1,4,2,0,4,461,1,Skill
50,21,16,4,2,1,3,600,1,2,3,0,2,596,1,Skill
50,21,17,4,2,1,3,600,1,1,2,0,1,413,1,Skill
50,21,18,4,2,1,3,600,1,4,4,0,4,452,1,Skill
50,21,19,4,2,1,3,600,1,4,2,0,4,492,1,Skill
50,21,20,4,2,1,3,600,1,4,2,0,4,420,1,Skill
5,1,1,1,4,2,3,-600,1,4,3,1,4,1631,1,Training
5,1,2,1,4,2,3,-600,1,3,2,1,3,1198,1,Training
5,1,3,1,4,2,3,-600,1,4,3,1,4,921,1,Training
5,1,4,1,4,2,3,-600,1,3,2,1,3,1788,1,Training
5,1,5,1,4,2,3,-600,1,4,3,1,4,800,1,Training
5,1,6,1,4,2,3,-600,1,3,2,1,3,1895,1,Training
5,1,7,1,4,2,3,-600,1,3,2,1,3,598,1,Training
5,1,8,1,4,2,3,-600,1,4,3,1,4,717,1,Training
5,1,9,1,4,2,3,-600,1,4,3,1,4,660,1,Training
5,1,10,1,4,2,3,-600,1,1,3,0,1,1601,1,Training
5,1,11,1,4,2,3,-600,1,4,4,0,4,1232,1,Training
5,1,12,1,4,2,3,-600,1,2,4,1,2,930,1,Training
5,1,13,1,4,2,3,-600,1,1,1,1,1,631,1,Training
5,1,14,1,4,2,3,-600,1,3,2,1,3,1007,1,Training
5,1,15,1,4,2,3,-600,1,3,2,1,3,754,1,Training
5,1,16,1,4,2,3,-600,1,3,2,1,3,474,1,Training
5,1,17,1,4,2,3,-600,1,2,4,1,2,1089,1,Training
5,1,18,1,4,2,3,-600,1,4,1,0,4,716,1,Training
5,1,19,1,4,2,3,-600,1,4,3,1,4,676,1,Training
5,1,20,1,4,2,3,-600,1,1,1,1,1,779,1,Training
5,2,1,1,4,2,3,-600,1,4,3,1,4,671,1,Training
5,2,2,1,4,2,3,-600,1,3,2,1,3,662,1,Training
5,2,3,1,4,2,3,-600,1,1,1,1,1,669,1,Training
5,2,4,1,4,2,3,-600,1,1,1,1,1,390,1,Training
5,2,5,1,4,2,3,-600,1,4,3,1,4,622,1,Training
5,2,6,1,4,2,3,-600,1,4,3,1,4,469,1,Training
5,2,7,1,4,2,3,-600,1,3,3,0,3,611,1,Training
5,2,8,1,4,2,3,-600,1,1,1,1,1,443,1,Training
5,2,9,1,4,2,3,-600,1,2,4,1,2,547,1,Training
5,2,10,1,4,2,3,-600,1,2,4,1,2,796,1,Training
5,2,11,1,4,2,3,-600,1,2,4,1,2,420,1,Training
5,2,12,1,4,2,3,-600,1,3,2,1,3,557,1,Training
5,2,13,1,4,2,3,-600,1,1,1,1,1,628,1,Training
5,2,14,1,4,2,3,-600,1,3,2,1,3,700,1,Training
5,2,15,1,4,2,3,-600,1,4,3,1,4,516,1,Training
5,2,16,1,4,2,3,-600,1,4,3,1,4,523,1,Training
5,2,17,1,4,2,3,-600,1,2,4,1,2,818,1,Training
5,2,18,1,4,2,3,-600,1,3,1,0,3,726,1,Training
5,2,19,1,4,2,3,-600,1,1,1,1,1,639,1,Training
5,2,20,1,4,2,3,-600,1,2,4,1,2,664,1,Training
5,3,1,1,4,2,3,-600,1,4,4,0,4,512,1,Training
5,3,2,1,4,2,3,-600,1,4,3,1,4,425,1,Training
5,3,3,1,4,2,3,-600,1,3,2,1,3,384,1,Training
5,3,4,1,4,2,3,-600,1,1,1,1,1,616,1,Training
5,3,5,1,4,2,3,-600,1,2,4,1,2,368,1,Training
5,3,6,1,4,2,3,-600,1,2,4,1,2,377,1,Training
5,3,7,1,4,2,3,-600,1,4,3,1,3,386,0,Training
5,3,8,1,4,2,3,-600,1,1,1,1,1,745,1,Training
5,3,9,1,4,2,3,-600,1,1,1,1,1,609,1,Training
5,3,10,1,4,2,3,-600,1,3,2,1,3,586,1,Training
5,3,11,1,4,2,3,-600,1,3,2,1,3,465,1,Training
5,3,12,1,4,2,3,-600,1,4,3,1,4,585,1,Training
5,3,13,1,4,2,3,-600,1,3,2,1,3,448,1,Training
5,3,14,1,4,2,3,-600,1,3,2,1,3,584,1,Training
5,3,15,1,4,2,3,-600,1,4,3,1,4,2159,1,Training
5,3,16,1,4,2,3,-600,1,2,4,1,2,738,1,Training
5,3,17,1,4,2,3,-600,1,3,2,1,3,635,1,Training
5,3,18,1,4,2,3,-600,1,1,1,1,1,562,1,Training
5,3,19,1,4,2,3,-600,1,4,3,1,4,555,1,Training
5,3,20,1,4,2,3,-600,1,3,2,1,3,626,1,Training
5,4,1,1,4,2,3,-600,1,2,4,1,2,592,1,Training
5,4,2,1,4,2,3,-600,1,2,4,1,2,361,1,Training
5,4,3,1,4,2,3,-600,1,4,3,1,4,545,1,Training
5,4,4,1,4,2,3,-600,1,1,1,1,1,745,1,Training
5,4,5,1,4,2,3,-600,1,2,4,1,2,722,1,Training
5,4,6,1,4,2,3,-600,1,4,3,1,4,554,1,Training
5,4,7,1,4,2,3,-600,1,2,4,1,2,610,1,Training
5,4,8,1,4,2,3,-600,1,4,1,0,4,555,1,Training
5,4,9,1,4,2,3,-600,1,1,1,1,1,739,1,Training
5,4,10,1,4,2,3,-600,1,4,3,1,4,604,1,Training
5,4,11,1,4,2,3,-600,1,4,3,1,4,403,1,Training
5,4,12,1,4,2,3,-600,1,3,2,1,3,475,1,Training
5,4,13,1,4,2,3,-600,1,2,4,1,2,674,1,Training
5,4,14,1,4,2,3,-600,1,4,3,1,4,555,1,Training
5,4,15,1,4,2,3,-600,1,4,3,1,4,578,1,Training
5,4,16,1,4,2,3,-600,1,2,4,1,2,618,1,Training
5,4,17,1,4,2,3,-600,1,3,2,1,3,547,1,Training
5,4,18,1,4,2,3,-600,1,2,4,1,2,1034,1,Training
5,4,19,1,4,2,3,-600,1,4,3,1,4,523,1,Training
5,4,20,1,4,2,3,-600,1,3,4,0,3,563,1,Training
5,5,1,1,4,2,3,-600,1,2,4,1,2,368,1,Training
5,5,2,1,4,2,3,-600,1,2,4,1,2,377,1,Training
5,5,3,1,4,2,3,-600,1,3,2,1,3,402,1,Training
5,5,4,1,4,2,3,-600,1,1,1,1,1,474,1,Training
5,5,5,1,4,2,3,-600,1,1,1,1,1,338,1,Training
5,5,6,1,4,2,3,-600,1,3,2,1,3,427,1,Training
5,5,7,1,4,2,3,-600,1,3,2,1,3,355,1,Training
5,5,8,1,4,2,3,-600,1,3,2,1,3,234,1,Training
5,5,9,1,4,2,3,-600,1,3,2,1,3,178,1,Training
5,5,10,1,4,2,3,-600,1,2,4,1,2,282,1,Training
5,5,11,1,4,2,3,-600,1,3,2,1,3,354,1,Training
5,5,12,1,4,2,3,-600,1,1,1,1,1,346,1,Training
5,5,13,1,4,2,3,-600,1,4,3,1,4,306,1,Training
5,5,14,1,4,2,3,-600,1,4,3,1,4,218,1,Training
5,5,15,1,4,2,3,-600,1,1,1,1,1,258,1,Training
5,5,16,1,4,2,3,-600,1,1,1,1,1,75,1,Training
5,5,17,1,4,2,3,-600,1,2,4,1,2,195,1,Training
5,5,18,1,4,2,3,-600,1,3,4,0,2,236,0,Training
5,5,19,1,4,2,3,-600,1,3,2,1,3,533,1,Training
5,5,20,1,4,2,3,-600,1,2,4,1,2,621,1,Training
5,6,1,1,4,2,3,-600,1,2,4,1,2,560,1,Training
5,6,2,1,4,2,3,-600,1,4,3,1,4,425,1,Training
5,6,3,1,4,2,3,-600,1,2,4,1,2,304,1,Training
5,6,4,1,4,2,3,-600,1,1,1,1,1,233,1,Training
5,6,5,1,4,2,3,-600,1,3,2,1,3,274,1,Training
5,6,6,1,4,2,3,-600,1,4,3,1,4,218,1,Training
5,6,7,1,4,2,3,-600,1,1,1,1,1,257,1,Training
5,6,8,1,4,2,3,-600,1,4,3,1,4,266,1,Training
5,6,9,1,4,2,3,-600,1,2,4,1,2,465,1,Training
5,6,10,1,4,2,3,-600,1,1,1,1,1,250,1,Training
5,6,11,1,4,2,3,-600,1,3,2,1,3,339,1,Training
5,6,12,1,4,2,3,-600,1,1,1,1,1,314,1,Training
5,6,13,1,4,2,3,-600,1,4,3,1,4,339,1,Training
5,6,14,1,4,2,3,-600,1,3,2,1,3,362,1,Training
5,6,15,1,4,2,3,-600,1,3,2,1,3,402,1,Training
5,6,16,1,4,2,3,-600,1,4,3,1,4,314,1,Training
5,6,17,1,4,2,3,-600,1,3,2,1,3,385,1,Training
5,6,18,1,4,2,3,-600,1,1,1,1,1,265,1,Training
5,6,19,1,4,2,3,-600,1,3,1,0,3,593,1,Training
5,6,20,1,4,2,3,-600,1,3,2,1,3,570,1,Training
5,7,1,1,4,2,3,-600,1,3,2,1,3,368,1,Training
5,7,2,1,4,2,3,-600,1,2,4,1,2,360,1,Training
5,7,3,1,4,2,3,-600,1,2,4,1,2,401,1,Training
5,7,4,1,4,2,3,-600,1,3,2,1,3,330,1,Training
5,7,5,1,4,2,3,-600,1,3,2,1,3,465,1,Training
5,7,6,1,4,2,3,-600,1,1,1,1,1,264,1,Training
5,7,7,1,4,2,3,-600,1,4,3,1,4,353,1,Training
5,7,8,1,4,2,3,-600,1,2,3,0,2,897,1,Training
5,7,9,1,4,2,3,-600,1,2,4,1,2,452,1,Training
5,7,10,1,4,2,3,-600,1,4,3,1,4,349,1,Training
5,7,11,1,4,2,3,-600,1,2,4,1,2,405,1,Training
5,7,12,1,4,2,3,-600,1,4,3,1,4,494,1,Training
5,7,13,1,4,2,3,-600,1,2,4,1,2,389,1,Training
5,7,14,1,4,2,3,-600,1,2,4,1,2,334,1,Training
5,7,15,1,4,2,3,-600,1,2,4,1,2,294,1,Training
5,7,16,1,4,2,3,-600,1,1,1,1,1,239,1,Training
5,7,17,1,4,2,3,-600,1,3,2,1,3,280,1,Training
5,7,18,1,4,2,3,-600,1,4,3,1,4,336,1,Training
5,7,19,1,4,2,3,-600,1,1,1,1,1,247,1,Training
5,7,20,1,4,2,3,-600,1,3,2,1,3,368,1,Training
5,8,1,1,4,2,3,-600,1,4,3,1,4,240,1,Training
5,8,2,1,4,2,3,-600,1,1,1,1,1,184,1,Training
5,8,3,1,4,2,3,-600,1,2,4,1,2,513,1,Training
5,8,4,1,4,2,3,-600,1,1,1,1,1,218,1,Training
5,8,5,1,4,2,3,-600,1,4,3,1,4,258,1,Training
5,8,6,1,4,2,3,-600,1,4,3,1,4,266,1,Training
5,8,7,1,4,2,3,-600,1,4,4,0,4,641,1,Training
5,8,8,1,4,2,3,-600,1,2,4,1,2,538,1,Training
5,8,9,1,4,2,3,-600,1,2,2,0,2,806,1,Training
5,8,10,1,4,2,3,-600,1,2,4,1,2,510,1,Training
5,8,11,1,4,2,3,-600,1,3,2,1,3,406,1,Training
5,8,12,1,4,2,3,-600,1,1,1,1,1,350,1,Training
5,8,13,1,4,2,3,-600,1,4,3,1,4,502,1,Training
5,8,14,1,4,2,3,-600,1,3,2,1,3,398,1,Training
5,8,15,1,4,2,3,-600,1,4,3,1,4,374,1,Training
5,8,16,1,4,2,3,-600,1,3,2,1,3,381,1,Training
5,8,17,1,4,2,3,-600,1,4,3,1,4,277,1,Training
5,8,18,1,4,2,3,-600,1,4,3,1,4,332,1,Training
5,8,19,1,4,2,3,-600,1,4,3,1,4,356,1,Training
5,8,20,1,4,2,3,-600,1,2,4,1,2,331,1,Training
5,9,1,1,4,2,3,-600,1,2,4,1,2,368,1,Training
5,9,2,1,4,2,3,-600,1,3,2,1,3,393,1,Training
5,9,3,1,4,2,3,-600,1,2,4,1,2,881,1,Training
5,9,4,1,4,2,3,-600,1,3,2,1,3,474,1,Training
5,9,5,1,4,2,3,-600,1,2,4,1,2,305,1,Training
5,9,6,1,4,2,3,-600,1,1,1,1,1,346,1,Training
5,9,7,1,4,2,3,-600,1,3,2,1,3,339,1,Training
5,9,8,1,4,2,3,-600,1,4,3,1,4,331,1,Training
5,9,9,1,4,2,3,-600,1,4,3,1,4,354,1,Training
5,9,10,1,4,2,3,-600,1,2,4,1,2,362,1,Training
5,9,11,1,4,2,3,-600,1,3,2,1,3,419,1,Training
5,9,12,1,4,2,3,-600,1,2,4,1,2,330,1,Training
5,9,13,1,4,2,3,-600,1,2,4,1,2,739,1,Training
5,9,14,1,4,2,3,-600,1,4,3,1,4,300,1,Training
5,9,15,1,4,2,3,-600,1,3,2,1,3,339,1,Training
5,9,16,1,4,2,3,-600,1,3,2,1,3,395,1,Training
