sid,block,trial,associaiton_1,association_2,association_3,association_4,training_condition,order_condition,symbol,cue,cue_correct,response,rt,correct,phase
86,1,1,3,2,4,1,-400,1,1,3,1,1,975,1,Training
86,1,2,3,2,4,1,-400,1,3,4,1,4,1370,0,Training
86,1,3,3,2,4,1,-400,1,2,2,1,2,1386,1,Training
86,1,4,3,2,4,1,-400,1,2,2,1,2,1153,1,Training
86,1,5,3,2,4,1,-400,1,1,3,1,1,575,1,Training
86,1,6,3,2,4,1,-400,1,3,4,1,3,695,1,Training
86,1,7,3,2,4,1,-400,1,3,1,0,3,871,1,Training
86,1,8,3,2,4,1,-400,1,2,2,1,2,596,1,Training
86,1,9,3,2,4,1,-400,1,1,3,1,1,584,1,Training
86,1,10,3,2,4,1,-400,1,2,2,1,2,607,1,Training
86,1,11,3,2,4,1,-400,1,3,4,1,3,707,1,Training
86,1,12,3,2,4,1,-400,1,4,1,1,4,537,1,Training
86,1,13,3,2,4,1,-400,1,4,1,1,4,546,1,Training
86,1,14,3,2,4,1,-400,1,3,4,1,3,632,1,Training
86,1,15,3,2,4,1,-400,1,1,3,1,1,507,1,Training
86,1,16,3,2,4,1,-400,1,3,4,1,3,723,1,Training
86,1,17,3,2,4,1,-400,1,2,2,1,3,545,0,Training
86,1,18,3,2,4,1,-400,1,4,4,0,4,578,1,Training
86,1,19,3,2,4,1,-400,1,1,4,0,1,522,1,Training
86,1,20,3,2,4,1,-400,1,4,1,1,4,516,1,Training
86,2,1,3,2,4,1,-400,1,1,2,0,1,532,1,Training
86,2,2,3,2,4,1,-400,1,4,1,1,4,519,1,Training
86,2,3,3,2,4,1,-400,1,2,2,1,2,532,1,Training
86,2,4,3,2,4,1,-400,1,4,1,1,4,484,1,Training
86,2,5,3,2,4,1,-400,1,4,2,0,4,563,1,Training
86,2,6,3,2,4,1,-400,1,4,1,1,4,431,1,Training
86,2,7,3,2,4,1,-400,1,4,1,1,4,347,1,Training
86,2,8,3,2,4,1,-400,1,4,1,1,4,368,1,Training
86,2,9,3,2,4,1,-400,1,2,2,1,2,463,1,Training
86,2,10,3,2,4,1,-400,1,4,4,0,4,522,1,Training
86,2,11,3,2,4,1,-400,1,2,2,1,2,482,1,Training
86,2,12,3,2,4,1,-400,1,4,2,0,4,364,1,Training
86,2,13,3,2,4,1,-400,1,3,4,1,4,548,0,Training
86,2,14,3,2,4,1,-400,1,2,2,1,2,511,1,Training
86,2,15,3,2,4,1,-400,1,4,1,1,4,457,1,Training
86,2,16,3,2,4,1,-400,1,2,2,1,2,477,1,Training
86,2,17,3,2,4,1,-400,1,2,2,1,2,497,1,Training
86,2,18,3,2,4,1,-400,1,3,3,0,3,803,1,Training
86,2,19,3,2,4,1,-400,1,3,4,1,3,390,1,Training
86,2,20,3,2,4,1,-400,1,3,4,1,3,473,1,Training
86,3,1,3,2,4,1,-400,1,2,2,1,2,600,1,Training
86,3,2,3,2,4,1,-400,1,2,2,1,2,436,1,Training
86,3,3,3,2,4,1,-400,1,4,1,1,4,428,1,Training
86,3,4,3,2,4,1,-400,1,2,2,1,3,546,0,Training
86,3,5,3,2,4,1,-400,1,2,2,1,2,507,1,Training
86,3,6,3,2,4,1,-400,1,4,1,1,4,504,1,Training
86,3,7,3,2,4,1,-400,1,2,2,1,2,576,1,Training
86,3,8,3,2,4,1,-400,1,3,4,1,3,455,1,Training
86,3,9,3,2,4,1,-400,1,3,4,1,3,538,1,Training
86,3,10,3,2,4,1,-400,1,1,3,1,1,562,1,Training
86,3,11,3,2,4,1,-400,1,2,2,1,2,618,1,Training
86,3,12,3,2,4,1,-400,1,2,2,1,2,495,1,Training
86,3,13,3,2,4,1,-400,1,4,1,1,4,547,1,Training
86,3,14,3,2,4,1,-400,1,1,4,0,1,419,1,Training
86,3,15,3,2,4,1,-400,1,1,3,1,1,455,1,Training
86,3,16,3,2,4,1,-400,1,3,4,1,3,478,1,Training
86,3,17,3,2,4,1,-400,1,1,3,1,1,542,1,Training
86,3,18,3,2,4,1,-400,1,2,2,1,2,471,1,Training
86,3,19,3,2,4,1,-400,1,3,4,1,3,476,1,Training
86,3,20,3,2,4,1,-400,1,2,2,1,2,536,1,Training
86,4,1,3,2,4,1,-400,1,1,3,1,1,428,1,Training
86,4,2,3,2,4,1,-400,1,3,1,0,3,420,1,Training
86,4,3,3,2,4,1,-400,1,4,1,1,2,370,0,Training
86,4,4,3,2,4,1,-400,1,1,3,1,1,552,1,Training
86,4,5,3,2,4,1,-400,1,3,4,1,3,501,1,Training
86,4,6,3,2,4,1,-400,1,3,4,1,3,449,1,Training
86,4,7,3,2,4,1,-400,1,4,1,1,4,367,1,Training
86,4,8,3,2,4,1,-400,1,3,4,1,3,475,1,Training
86,4,9,3,2,4,1,-400,1,4,1,1,4,534,1,Training
86,4,10,3,2,4,1,-400,1,1,3,1,1,528,1,Training
86,4,11,3,2,4,1,-400,1,4,1,1,4,441,1,Training
86,4,12,3,2,4,1,-400,1,2,2,1,2,463,1,Training
86,4,13,3,2,4,1,-400,1,2,2,1,2,556,1,Training
86,4,14,3,2,4,1,-400,1,3,4,1,3,556,1,Training
86,4,15,3,2,4,1,-400,1,3,4,1,3,388,1,Training
86,4,16,3,2,4,1,-400,1,2,4,0,2,463,1,Training
86,4,17,3,2,4,1,-400,1,4,1,1,4,385,1,Training
86,4,18,3,2,4,1,-400,1,1,3,1,1,387,1,Training
86,4,19,3,2,4,1,-400,1,2,2,1,2,346,1,Training
86,4,20,3,2,4,1,-400,1,4,1,1,4,284,1,Training
86,5,1,3,2,4,1,-400,1,3,4,1,3,484,1,Training
86,5,2,3,2,4,1,-400,1,3,4,1,3,387,1,Training
86,5,3,3,2,4,1,-400,1,3,2,0,3,433,1,Training
86,5,4,3,2,4,1,-400,1,2,2,1,2,521,1,Training
86,5,5,3,2,4,1,-400,1,2,2,1,2,588,1,Training
86,5,6,3,2,4,1,-400,1,1,3,1,1,422,1,Training
86,5,7,3,2,4,1,-400,1,1,3,1,1,297,1,Training
86,5,8,3,2,4,1,-400,1,3,4,1,3,450,1,Training
86,5,9,3,2,4,1,-400,1,3,4,1,3,325,1,Training
86,5,10,3,2,4,1,-400,1,3,4,1,3,348,1,Training
86,5,11,3,2,4,1,-400,1,3,4,1,3,347,1,Training
86,5,12,3,2,4,1,-400,1,1,3,1,1,484,1,Training
86,5,13,3,2,4,1,-400,1,3,2,0,3,434,1,Training
86,5,14,3,2,4,1,-400,1,2,2,1,2,564,1,Training
86,5,15,3,2,4,1,-400,1,2,2,1,2,507,1,Training
86,5,16,3,2,4,1,-400,1,4,1,1,4,560,1,Training
86,5,17,3,2,4,1,-400,1,4,1,1,4,520,1,Training
86,5,18,3,2,4,1,-400,1,1,3,1,2,461,0,Training
86,5,19,3,2,4,1,-400,1,4,3,0,4,515,1,Training
86,5,20,3,2,4,1,-400,1,1,3,1,1,437,1,Training
86,6,1,3,2,4,1,-400,1,4,1,1,4,478,1,Training
86,6,2,3,2,4,1,-400,1,2,2,1,3,472,0,Training
86,6,3,3,2,4,1,-400,1,2,2,1,2,387,1,Training
86,6,4,3,2,4,1,-400,1,2,2,1,2,398,1,Training
86,6,5,3,2,4,1,-400,1,4,1,1,4,344,1,Training
86,6,6,3,2,4,1,-400,1,3,4,1,3,465,1,Training
86,6,7,3,2,4,1,-400,1,1,1,0,1,430,1,Training
86,6,8,3,2,4,1,-400,1,3,4,1,3,459,1,Training
86,6,9,3,2,4,1,-400,1,1,3,1,2,425,0,Training
86,6,10,3,2,4,1,-400,1,1,3,1,1,520,1,Training
86,6,11,3,2,4,1,-400,1,3,4,1,3,440,1,Training
86,6,12,3,2,4,1,-400,1,4,1,1,4,348,1,Training
86,6,13,3,2,4,1,-400,1,3,4,1,3,471,1,Training
86,6,14,3,2,4,1,-400,1,3,4,1,3,430,1,Training
86,6,15,3,2,4,1,-400,1,2,2,1,2,427,1,Training
86,6,16,3,2,4,1,-400,1,1,3,1,1,399,1,Training
86,6,17,3,2,4,1,-400,1,1,3,1,1,438,1,Training
86,6,18,3,2,4,1,-400,1,3,4,1,3,439,1,Training
86,6,19,3,2,4,1,-400,1,1,3,1,1,574,1,Training
86,6,20,3,2,4,1,-400,1,2,2,1,3,534,0,Training
86,7,1,3,2,4,1,-400,1,1,3,1,1,412,1,Training
86,7,2,3,2,4,1,-400,1,3,4,1,3,429,1,Training
86,7,3,3,2,4,1,-400,1,2,2,1,2,558,1,Training
86,7,4,3,2,4,1,-400,1,3,4,1,3,433,1,Training
86,7,5,3,2,4,1,-400,1,1,4,0,1,540,1,Training
86,7,6,3,2,4,1,-400,1,1,3,1,1,422,1,Training
86,7,7,3,2,4,1,-400,1,4,4,0,4,525,1,Training
86,7,8,3,2,4,1,-400,1,1,3,1,1,448,1,Training
86,7,9,3,2,4,1,-400,1,3,4,1,3,390,1,Training
86,7,10,3,2,4,1,-400,1,3,4,1,3,446,1,Training
86,7,11,3,2,4,1,-400,1,4,1,1,4,445,1,Training
86,7,12,3,2,4,1,-400,1,2,4,0,3,588,0,Training
86,7,13,3,2,4,1,-400,1,3,4,1,3,479,1,Training
86,7,14,3,2,4,1,-400,1,2,2,1,2,424,1,Training
86,7,15,3,2,4,1,-400,1,4,1,1,4,505,1,Training
86,7,16,3,2,4,1,-400,1,2,2,1,2,583,1,Training
86,7,17,3,2,4,1,-400,1,2,2,1,2,502,1,Training
86,7,18,3,2,4,1,-400,1,4,1,1,4,510,1,Training
86,7,19,3,2,4,1,-400,1,3,4,1,3,385,1,Training
86,7,20,3,2,4,1,-400,1,3,4,1,3,390,1,Training
86,8,1,3,2,4,1,-400,1,2,1,0,3,471,0,Training
86,8,2,3,2,4,1,-400,1,1,3,1,1,367,1,Training
86,8,3,3,2,4,1,-400,1,2,2,1,2,385,1,Training
86,8,4,3,2,4,1,-400,1,2,2,1,2,442,1,Training
86,8,5,3,2,4,1,-400,1,1,3,1,1,488,1,Training
86,8,6,3,2,4,1,-400,1,1,3,1,1,345,1,Training
86,8,7,3,2,4,1,-400,1,4,1,1,4,504,1,Training
86,8,8,3,2,4,1,-400,1,2,2,1,2,444,1,Training
86,8,9,3,2,4,1,-400,1,4,1,1,4,357,1,Training
86,8,10,3,2,4,1,-400,1,4,1,1,4,469,1,Training
86,8,11,3,2,4,1,-400,1,1,3,1,2,424,0,Training
86,8,12,3,2,4,1,-400,1,3,4,1,3,449,1,Training
86,8,13,3,2,4,1,-400,1,2,2,1,2,431,1,Training
86,8,14,3,2,4,1,-400,1,1,3,1,1,496,1,Training
86,8,15,3,2,4,1,-400,1,1,3,1,1,392,1,Training
86,8,16,3,2,4,1,-400,1,3,4,1,3,423,1,Training
86,8,17,3,2,4,1,-400,1,4,1,1,4,311,1,Training
86,8,18,3,2,4,1,-400,1,3,1,0,3,511,1,Training
86,8,19,3,2,4,1,-400,1,3,4,1,3,448,1,Training
86,8,20,3,2,4,1,-400,1,3,4,1,3,359,1,Training
86,9,1,3,2,4,1,-400,1,1,3,1,1,431,1,Training
86,9,2,3,2,4,1,-400,1,2,2,1,2,467,1,Training
86,9,3,3,2,4,1,-400,1,3,4,1,3,329,1,Training
86,9,4,3,2,4,1,-400,1,4,1,1,4,309,1,Training
86,9,5,3,2,4,1,-400,1,4,1,1,4,463,1,Training
86,9,6,3,2,4,1,-400,1,3,2,0,3,294,1,Training
86,9,7,3,2,4,1,-400,1,1,3,1,1,476,1,Training
86,9,8,3,2,4,1,-400,1,2,2,1,2,460,1,Training
86,9,9,3,2,4,1,-400,1,4,1,1,4,389,1,Training
86,9,10,3,2,4,1,-400,1,4,3,0,4,492,1,Training
86,9,11,3,2,4,1,-400,1,1,3,1,1,476,1,Training
86,9,12,3,2,4,1,-400,1,1,3,1,1,573,1,Training
86,9,13,3,2,4,1,-400,1,3,4,1,3,489,1,Training
86,9,14,3,2,4,1,-400,1,2,2,1,3,542,0,Training
86,9,15,3,2,4,1,-400,1,2,2,1,2,402,1,Training
86,9,16,3,2,4,1,-400,1,2,2,1,2,365,1,Training
86,9,17,3,2,4,1,-400,1,3,4,1,3,424,1,Training
86,9,18,3,2,4,1,-400,1,4,1,1,3,411,0,Training
86,9,19,3,2,4,1,-400,1,4,1,1,4,427,1,Training
86,9,20,3,2,4,1,-400,1,1,3,1,2,473,0,Training
86,10,1,3,2,4,1,-400,1,4,1,1,4,496,1,Training
86,10,2,3,2,4,1,-400,1,3,4,1,3,401,1,Training
86,10,3,3,2,4,1,-400,1,4,1,1,4,612,1,Training
86,10,4,3,2,4,1,-400,1,4,1,1,4,410,1,Training
86,10,5,3,2,4,1,-400,1,3,4,1,3,457,1,Training
86,10,6,3,2,4,1,-400,1,1,3,1,1,482,1,Training
86,10,7,3,2,4,1,-400,1,1,3,1,2,391,0,Training
86,10,8,3,2,4,1,-400,1,1,3,1,1,384,1,Training
86,10,9,3,2,4,1,-400,1,3,3,0,4,450,0,Training
86,10,10,3,2,4,1,-400,1,4,1,1,4,332,1,Training
86,10,11,3,2,4,1,-400,1,2,2,1,2,499,1,Training
86,10,12,3,2,4,1,-400,1,3,1,0,3,418,1,Training
86,10,13,3,2,4,1,-400,1,1,3,1,1,408,1,Training
86,10,14,3,2,4,1,-400,1,1,3,1,1,437,1,Training
86,10,15,3,2,4,1,-400,1,1,3,1,1,348,1,Training
86,10,16,3,2,4,1,-400,1,1,3,1,1,316,1,Training
86,10,17,3,2,4,1,-400,1,1,3,1,1,306,1,Training
86,10,18,3,2,4,1,-400,1,3,4,1,3,478,1,Training
86,10,19,3,2,4,1,-400,1,2,2,1,2,429,1,Training
86,10,20,3,2,4,1,-400,1,3,4,1,3,490,1,Training
86,11,1,3,2,4,1,-400,1,2,2,1,2,518,1,Training
86,11,2,3,2,4,1,-400,1,4,1,1,4,336,1,Training
86,11,3,3,2,4,1,-400,1,4,1,1,4,286,1,Training
86,11,4,3,2,4,1,-400,1,1,4,0,2,396,0,Training
86,11,5,3,2,4,1,-400,1,1,3,1,1,424,1,Training
86,11,6,3,2,4,1,-400,1,3,4,1,3,409,1,Training
86,11,7,3,2,4,1,-400,1,1,3,1,1,537,1,Training
86,11,8,3,2,4,1,-400,1,3,4,1,3,435,1,Training
86,11,9,3,2,4,1,-400,1,4,4,0,4,448,1,Training
86,11,10,3,2,4,1,-400,1,1,3,1,1,311,1,Training
86,11,11,3,2,4,1,-400,1,4,1,1,3,378,0,Training
86,11,12,3,2,4,1,-400,1,2,2,1,1,441,0,Training
86,11,13,3,2,4,1,-400,1,3,4,1,3,469,1,Training
86,11,14,3,2,4,1,-400,1,4,1,1,4,361,1,Training
86,11,15,3,2,4,1,-400,1,3,4,1,3,437,1,Training
86,11,16,3,2,4,1,-400,1,4,1,1,4,475,1,Training
86,11,17,3,2,4,1,-400,1,3,4,1,3,362,1,Training
86,11,18,3,2,4,1,-400,1,2,2,1,2,412,1,Training
86,11,19,3,2,4,1,-400,1,1,3,1,1,309,1,Training
86,11,20,3,2,4,1,-400,1,4,1,1,4,343,1,Training
86,12,1,3,2,4,1,-400,1,1,3,1,1,386,1,Training
86,12,2,3,2,4,1,-400,1,3,4,1,3,382,1,Training
86,12,3,3,2,4,1,-400,1,3,4,1,3,372,1,Training
86,12,4,3,2,4,1,-400,1,3,4,1,3,420,1,Training
86,12,5,3,2,4,1,-400,1,2,2,1,2,428,1,Training
86,12,6,3,2,4,1,-400,1,2,2,1,2,346,1,Training
86,12,7,3,2,4,1,-400,1,2,1,0,2,480,1,Training
86,12,8,3,2,4,1,-400,1,4,1,1,4,390,1,Training
86,12,9,3,2,4,1,-400,1,4,1,1,4,353,1,Training
86,12,10,3,2,4,1,-400,1,1,3,1,2,372,0,Training
86,12,11,3,2,4,1,-400,1,4,1,1,1,487,0,Training
86,12,12,3,2,4,1,-400,1,2,2,1,3,395,0,Training
86,12,13,3,2,4,1,-400,1,3,4,1,3,529,1,Training
86,12,14,3,2,4,1,-400,1,2,2,1,2,447,1,Training
86,12,15,3,2,4,1,-400,1,1,3,1,1,348,1,Training
86,12,16,3,2,4,1,-400,1,3,4,1,3,553,1,Training
86,12,17,3,2,4,1,-400,1,3,4,1,3,399,1,Training
86,12,18,3,2,4,1,-400,1,1,3,1,2,583,0,Training
86,12,19,3,2,4,1,-400,1,2,3,0,3,557,0,Training
86,12,20,3,2,4,1,-400,1,3,4,1,3,454,1,Training
86,13,1,3,2,4,1,-400,1,4,1,1,4,608,1,Training
86,13,2,3,2,4,1,-400,1,1,1,0,1,598,1,Training
86,13,3,3,2,4,1,-400,1,2,2,1,2,564,1,Training
86,13,4,3,2,4,1,-400,1,1,3,1,1,657,1,Training
86,13,5,3,2,4,1,-400,1,3,4,1,4,458,0,Training
86,13,6,3,2,4,1,-400,1,2,4,0,2,672,1,Training
86,13,7,3,2,4,1,-400,1,1,3,1,1,452,1,Training
86,13,8,3,2,4,1,-400,1,2,2,1,2,587,1,Training
86,13,9,3,2,4,1,-400,1,3,4,1,3,438,1,Training
86,13,10,3,2,4,1,-400,1,1,3,1,1,430,1,Training
86,13,11,3,2,4,1,-400,1,2,2,1,2,425,1,Training
86,13,12,3,2,4,1,-400,1,1,4,0,1,496,1,Training
86,13,13,3,2,4,1,-400,1,2,2,1,2,440,1,Training
86,13,14,3,2,4,1,-400,1,3,4,1,3,562,1,Training
86,13,15,3,2,4,1,-400,1,3,4,1,3,390,1,Training
86,13,16,3,2,4,1,-400,1,4,3,0,4,471,1,Training
86,13,17,3,2,4,1,-400,1,3,4,1,3,474,1,Training
86,13,18,3,2,4,1,-400,1,2,2,1,2,397,1,Training
86,13,19,3,2,4,1,-400,1,4,1,1,4,541,1,Training
86,13,20,3,2,4,1,-400,1,3,4,1,3,472,1,Training
86,14,1,3,2,4,1,-400,1,1,4,0,1,421,1,Training
86,14,2,3,2,4,1,-400,1,1,3,1,1,402,1,Training
86,14,3,3,2,4,1,-400,1,1,3,1,1,383,1,Training
86,14,4,3,2,4,1,-400,1,4,1,1,4,378,1,Training
86,14,5,3,2,4,1,-400,1,1,3,1,1,528,1,Training
86,14,6,3,2,4,1,-400,1,1,3,1,1,320,1,Training
86,14,7,3,2,4,1,-400,1,3,4,1,3,673,1,Training
86,14,8,3,2,4,1,-400,1,4,1,1,4,370,1,Training
86,14,9,3,2,4,1,-400,1,3,2,0,1,368,0,Training
86,14,10,3,2,4,1,-400,1,4,1,1,4,418,1,Training
86,14,11,3,2,4,1,-400,1,1,3,1,1,470,1,Training
86,14,12,3,2,4,1,-400,1,4,1,1,3,457,0,Training
86,14,13,3,2,4,1,-400,1,2,2,1,2,422,1,Training
86,14,14,3,2,4,1,-400,1,4,1,1,4,331,1,Training
86,14,15,3,2,4,1,-400,1,2,2,1,2,469,1,Training
86,14,16,3,2,4,1,-400,1,1,3,1,1,395,1,Training
86,14,17,3,2,4,1,-400,1,4,1,1,4,257,1,Training
86,14,18,3,2,4,1,-400,1,2,2,1,2,386,1,Training
86,14,19,3,2,4,1,-400,1,3,4,1,3,280,1,Training
86,14,20,3,2,4,1,-400,1,2,2,1,2,316,1,Training
86,15,1,3,2,4,1,-400,1,2,2,1,2,205,1,Training
86,15,2,3,2,4,1,-400,1,4,1,1,4,184,1,Training
86,15,3,3,2,4,1,-400,1,1,4,0,3,419,0,Training
86,15,4,3,2,4,1,-400,1,2,2,1,2,288,1,Training
86,15,5,3,2,4,1,-400,1,4,1,1,4,274,1,Training
86,15,6,3,2,4,1,-400,1,3,4,1,3,283,1,Training
86,15,7,3,2,4,1,-400,1,1,3,1,1,246,1,Training
86,15,8,3,2,4,1,-400,1,3,4,1,3,126,1,Training
86,15,9,3,2,4,1,-400,1,4,1,1,4,-133,1,Training
86,15,10,3,2,4,1,-400,1,2,2,1,2,-112,1,Training
86,15,11,3,2,4,1,-400,1,1,2,0,2,251,0,Training
86,15,12,3,2,4,1,-400,1,1,3,1,1,284,1,Training
86,15,13,3,2,4,1,-400,1,2,2,1,2,212,1,Training
86,15,14,3,2,4,1,-400,1,1,3,1,1,180,1,Training
86,15,15,3,2,4,1,-400,1,3,4,1,3,-45,1,Training
86,15,16,3,2,4,1,-400,1,2,2,1,2,236,1,Training
86,15,17,3,2,4,1,-400,1,3,1,0,4,77,0,Training
86,15,18,3,2,4,1,-400,1,1,3,1,1,315,1,Training
86,15,19,3,2,4,1,-400,1,4,1,1,4,270,1,Training
86,15,20,3,2,4,1,-400,1,3,4,1,3,51,1,Training
86,16,1,3,2,4,1,-400,1,3,4,1,3,86,1,Training
86,16,2,3,2,4,1,-400,1,2,2,1,2,153,1,Training
86,16,3,3,2,4,1,-400,1,3,3,0,1,178,0,Training
86,16,4,3,2,4,1,-400,1,2,2,1,2,193,1,Training
86,16,5,3,2,4,1,-400,1,2,2,1,2,142,1,Training
86,16,6,3,2,4,1,-400,1,1,3,1,1,225,1,Training
86,16,7,3,2,4,1,-400,1,2,1,0,4,196,0,Training
86,16,8,3,2,4,1,-400,1,2,2,1,2,157,1,Training
86,16,9,3,2,4,1,-400,1,2,2,1,2,-2,1,Training
86,16,10,3,2,4,1,-400,1,4,2,0,2,-32,0,Training
86,16,11,3,2,4,1,-400,1,1,3,1,1,237,1,Training
86,16,12,3,2,4,1,-400,1,2,2,1,2,141,1,Training
86,16,13,3,2,4,1,-400,1,1,3,1,1,138,1,Training
86,16,14,3,2,4,1,-400,1,2,2,1,2,148,1,Training
86,16,15,3,2,4,1,-400,1,4,1,1,4,190,1,Training
86,16,16,3,2,4,1,-400,1,3,4,1,3,-77,1,Training
86,16,17,3,2,4,1,-400,1,2,2,1,2,36,1,Training
86,16,18,3,2,4,1,-400,1,3,4,1,3,61,1,Training
86,16,19,3,2,4,1,-400,1,3,4,1,3,84,1,Training
86,16,20,3,2,4,1,-400,1,2,2,1,3,-27,0,Training
86,18,1,3,2,4,1,-400,1,4,4,0,3,110,0,Skill
86,18,2,3,2,4,1,-400,1,2,1,0,2,513,1,Skill
86,18,3,3,2,4,1,-400,1,1,2,0,1,461,1,Skill
86,18,4,3,2,4,1,-400,1,4,1,1,4,323,1,Skill
86,18,5,3,2,4,1,-400,1,4,3,0,4,644,1,Skill
86,18,6,3,2,4,1,-400,1,1,3,1,3,362,0,Skill
86,18,7,3,2,4,1,-400,1,4,4,0,4,563,1,Skill
86,18,8,3,2,4,1,-400,1,2,3,0,2,527,1,Skill
86,18,9,3,2,4,1,-400,1,1,4,0,1,540,1,Skill
86,18,10,3,2,4,1,-400,1,4,3,0,4,457,1,Skill
86,18,11,3,2,4,1,-400,1,3,3,0,3,472,1,Skill
86,18,12,3,2,4,1,-400,1,2,1,0,2,595,1,Skill
86,18,13,3,2,4,1,-400,1,3,3,0,3,555,1,Skill
86,18,14,3,2,4,1,-400,1,4,1,1,4,444,1,Skill
86,18,15,3,2,4,1,-400,1,1,1,0,2,583,0,Skill
86,18,16,3,2,4,1,-400,1,1,2,0,1,582,1,Skill
86,18,17,3,2,4,1,-400,1,1,4,0,1,442,1,Skill
86,18,18,3,2,4,1,-400,1,3,1,0,3,524,1,Skill
86,18,19,3,2,4,1,-400,1,3,4,1,3,576,1,Skill
86,18,20,3,2,4,1,-400,1,4,4,0,4,488,1,Skill
86,19,1,3,2,4,1,-400,1,4,1,1,4,66,1,Skill
86,19,2,3,2,4,1,-400,1,1,1,0,2,448,0,Skill
86,19,3,3,2,4,1,-400,1,2,1,0,3,517,0,Skill
86,19,4,3,2,4,1,-400,1,3,2,0,3,983,1,Skill
86,19,5,3,2,4,1,-400,1,1,1,0,1,566,1,Skill
86,19,6,3,2,4,1,-400,1,1,1,0,1,400,1,Skill
86,19,7,3,2,4,1,-400,1,2,2,1,2,504,1,Skill
86,19,8,3,2,4,1,-400,1,2,4,0,2,460,1,Skill
86,19,9,3,2,4,1,-400,1,3,2,0,3,472,1,Skill
86,19,10,3,2,4,1,-400,1,2,2,1,3,491,0,Skill
86,19,11,3,2,4,1,-400,1,2,2,1,2,376,1,Skill
86,19,12,3,2,4,1,-400,1,3,3,0,3,552,1,Skill
86,19,13,3,2,4,1,-400,1,3,4,1,3,501,1,Skill
86,19,14,3,2,4,1,-400,1,2,1,0,2,656,1,Skill
86,19,15,3,2,4,1,-400,1,1,4,0,1,476,1,Skill
86,19,16,3,2,4,1,-400,1,4,3,0,4,611,1,Skill
86,19,17,3,2,4,1,-400,1,2,2,1,2,662,1,Skill
86,19,18,3,2,4,1,-400,1,4,3,0,4,615,1,Skill
86,19,19,3,2,4,1,-400,1,4,2,0,4,388,1,Skill
86,19,20,3,2,4,1,-400,1,4,1,1,4,437,1,Skill
86,20,1,3,2,4,1,-400,1,4,1,1,4,348,1,Skill
86,20,2,3,2,4,1,-400,1,2,3,0,2,466,1,Skill
86,20,3,3,2,4,1,-400,1,2,3,0,2,390,1,Skill
86,20,4,3,2,4,1,-400,1,4,4,0,4,533,1,Skill
86,20,5,3,2,4,1,-400,1,3,2,0,3,486,1,Skill
86,20,6,3,2,4,1,-400,1,3,4,1,3,495,1,Skill
86,20,7,3,2,4,1,-400,1,4,2,0,2,561,0,Skill
86,20,8,3,2,4,1,-400,1,2,1,0,2,475,1,Skill
86,20,9,3,2,4,1,-400,1,4,1,1,4,496,1,Skill
86,20,10,3,2,4,1,-400,1,4,2,0,4,455,1,Skill
86,20,11,3,2,4,1,-400,1,2,1,0,2,535,1,Skill
86,20,12,3,2,4,1,-400,1,2,3,0,3,497,0,Skill
86,20,13,3,2,4,1,-400,1,4,4,0,4,526,1,Skill
86,20,14,3,2,4,1,-400,1,2,3,0,2,542,1,Skill
86,20,15,3,2,4,1,-400,1,3,1,0,3,460,1,Skill
86,20,16,3,2,4,1,-400,1,2,2,1,2,543,1,Skill
86,20,17,3,2,4,1,-400,1,1,4,0,1,561,1,Skill
86,20,18,3,2,4,1,-400,1,1,2,0,1,450,1,Skill
86,20,19,3,2,4,1,-400,1,3,3,0,3,554,1,Skill
86,20,20,3,2,4,1,-400,1,4,2,0,4,554,1,Skill
86,21,1,3,2,4,1,-400,1,4,3,0,4,683,1,Skill
86,21,2,3,2,4,1,-400,1,4,3,0,4,625,1,Skill
86,21,3,3,2,4,1,-400,1,1,1,0,1,592,1,Skill
86,21,4,3,2,4,1,-400,1,3,3,0,3,465,1,Skill
86,21,5,3,2,4,1,-400,1,2,2,1,2,719,1,Skill
86,21,6,3,2,4,1,-400,1,2,1,0,2,545,1,Skill
86,21,7,3,2,4,1,-400,1,3,4,1,4,571,0,Skill
86,21,8,3,2,4,1,-400,1,1,1,0,1,618,1,Skill
86,21,9,3,2,4,1,-400,1,3,4,1,3,601,1,Skill
86,21,10,3,2,4,1,-400,1,1,4,0,1,588,1,Skill
86,21,11,3,2,4,1,-400,1,3,1,0,3,592,1,Skill
86,21,12,3,2,4,1,-400,1,1,2,0,1,701,1,Skill
86,21,13,3,2,4,1,-400,1,4,4,0,4,871,1,Skill
86,21,14,3,2,4,1,-400,1,2,3,0,3,610,0,Skill
86,21,15,3,2,4,1,-400,1,4,3,0,4,510,1,Skill
86,21,16,3,2,4,1,-400,1,2,2,1,2,620,1,Skill
86,21,17,3,2,4,1,-400,1,1,4,0,1,672,1,Skill
86,21,18,3,2,4,1,-400,1,2,1,0,2,477,1,Skill
86,21,19,3,2,4,1,-400,1,3,4,1,3,595,1,Skill
86,21,20,3,2,4,1,-400,1,4,3,0,4,564,1,Skill
86,17,1,3,2,4,1,-400,1,2,2,1,2,561,1,Inference
86,17,2,3,2,4,1,-400,1,1,3,1,1,363,1,Inference
86,17,3,3,2,4,1,-400,1,4,1,1,4,506,1,Inference
86,17,4,3,2,4,1,-400,1,3,4,1,3,369,1,Inference
86,17,5,3,2,4,1,-400,1,3,4,1,3,360,1,Inference
86,17,6,3,2,4,1,-400,1,1,3,1,1,539,1,Inference
86,17,7,3,2,4,1,-400,1,4,1,1,4,555,1,Inference
86,17,8,3,2,4,1,-400,1,2,2,1,3,501,0,Inference
86,17,9,3,2,4,1,-400,1,4,1,1,4,446,1,Inference
86,17,10,3,2,4,1,-400,1,1,3,1,1,505,1,Inference
86,17,11,3,2,4,1,-400,1,2,2,1,2,302,1,Inference
86,17,12,3,2,4,1,-400,1,3,4,1,3,526,1,Inference
85,1,1,2,4,3,1,400,1,2,4,1,2,688,1,Training
85,1,2,2,4,3,1,400,1,1,2,1,1,421,1,Training
85,1,3,2,4,3,1,400,1,4,1,1,4,392,1,Training
85,1,4,2,4,3,1,400,1,1,2,1,1,524,1,Training
85,1,5,2,4,3,1,400,1,2,4,1,2,429,1,Training
85,1,6,2,4,3,1,400,1,3,3,1,3,325,1,Training
85,1,7,2,4,3,1,400,1,3,3,1,3,561,1,Training
85,1,8,2,4,3,1,400,1,2,4,1,2,443,1,Training
85,1,9,2,4,3,1,400,1,2,4,1,2,400,1,Training
85,1,10,2,4,3,1,400,1,1,2,1,1,431,1,Training
85,1,11,2,4,3,1,400,1,1,2,1,1,467,1,Training
85,1,12,2,4,3,1,400,1,4,1,1,4,472,1,Training
85,1,13,2,4,3,1,400,1,2,4,1,2,477,1,Training
85,1,14,2,4,3,1,400,1,1,2,1,1,399,1,Training
85,1,15,2,4,3,1,400,1,4,1,1,4,518,1,Training
85,1,16,2,4,3,1,400,1,4,1,1,4,479,1,Training
85,1,17,2,4,3,1,400,1,2,4,1,2,485,1,Training
85,1,18,2,4,3,1,400,1,3,3,1,3,456,1,Training
85,1,19,2,4,3,1,400,1,2,4,1,3,449,0,Training
85,1,20,2,4,3,1,400,1,3,3,1,2,354,0,Training
85,2,1,2,4,3,1,400,1,3,3,1,3,433,1,Training
85,2,2,2,4,3,1,400,1,2,4,1,2,473,1,Training
85,2,3,2,4,3,1,400,1,3,3,1,3,336,1,Training
85,2,4,2,4,3,1,400,1,2,4,1,3,359,0,Training
85,2,5,2,4,3,1,400,1,2,4,1,2,472,1,Training
85,2,6,2,4,3,1,400,1,2,4,1,2,456,1,Training
85,2,7,2,4,3,1,400,1,1,2,1,2,295,0,Training
85,2,8,2,4,3,1,400,1,2,4,1,2,429,1,Training
85,2,9,2,4,3,1,400,1,2,4,1,2,291,1,Training
85,2,10,2,4,3,1,400,1,1,2,1,2,414,0,Training
85,2,11,2,4,3,1,400,1,2,4,1,2,455,1,Training
85,2,12,2,4,3,1,400,1,1,2,1,1,475,1,Training
85,2,13,2,4,3,1,400,1,2,4,1,2,445,1,Training
85,2,14,2,4,3,1,400,1,3,3,1,2,332,0,Training
85,2,15,2,4,3,1,400,1,2,4,1,2,519,1,Training
85,2,16,2,4,3,1,400,1,3,3,1,3,460,1,Training
85,2,17,2,4,3,1,400,1,2,4,1,2,414,1,Training
85,2,18,2,4,3,1,400,1,4,1,1,3,424,0,Training
85,2,19,2,4,3,1,400,1,1,2,1,1,348,1,Training
85,2,20,2,4,3,1,400,1,1,1,0,3,353,0,Training
85,3,1,2,4,3,1,400,1,1,2,1,1,330,1,Training
85,3,2,2,4,3,1,400,1,2,4,1,2,386,1,Training
85,3,3,2,4,3,1,400,1,2,4,1,1,408,0,Training
85,3,4,2,4,3,1,400,1,3,3,1,3,475,1,Training
85,3,5,2,4,3,1,400,1,1,2,1,1,337,1,Training
85,3,6,2,4,3,1,400,1,1,2,1,1,329,1,Training
85,3,7,2,4,3,1,400,1,3,3,1,3,565,1,Training
85,3,8,2,4,3,1,400,1,1,2,1,1,461,1,Training
85,3,9,2,4,3,1,400,1,3,3,1,3,476,1,Training
85,3,10,2,4,3,1,400,1,4,1,1,4,517,1,Training
85,3,11,2,4,3,1,400,1,1,2,1,1,429,1,Training
85,3,12,2,4,3,1,400,1,2,4,1,2,287,1,Training
85,3,13,2,4,3,1,400,1,4,1,1,4,378,1,Training
85,3,14,2,4,3,1,400,1,2,4,1,2,504,1,Training
85,3,15,2,4,3,1,400,1,3,3,1,3,381,1,Training
85,3,16,2,4,3,1,400,1,1,2,1,1,260,1,Training
85,3,17,2,4,3,1,400,1,2,4,1,2,477,1,Training
85,3,18,2,4,3,1,400,1,3,3,1,3,314,1,Training
85,3,19,2,4,3,1,400,1,2,4,1,2,461,1,Training
85,3,20,2,4,3,1,400,1,2,4,1,2,421,1,Training
85,4,1,2,4,3,1,400,1,2,4,1,2,392,1,Training
85,4,2,2,4,3,1,400,1,1,2,1,1,403,1,Training
85,4,3,2,4,3,1,400,1,1,2,1,2,348,0,Training
85,4,4,2,4,3,1,400,1,4,1,1,4,524,1,Training
85,4,5,2,4,3,1,400,1,4,1,1,4,536,1,Training
85,4,6,2,4,3,1,400,1,3,3,1,3,352,1,Training
85,4,7,2,4,3,1,400,1,3,3,1,1,314,0,Training
85,4,8,2,4,3,1,400,1,2,4,1,3,422,0,Training
85,4,9,2,4,3,1,400,1,1,2,1,1,745,1,Training
85,4,10,2,4,3,1,400,1,4,1,1,4,496,1,Training
85,4,11,2,4,3,1,400,1,4,1,1,4,444,1,Training
85,4,12,2,4,3,1,400,1,4,1,1,4,354,1,Training
85,4,13,2,4,3,1,400,1,1,2,1,1,378,1,Training
85,4,14,2,4,3,1,400,1,1,2,1,1,357,1,Training
85,4,15,2,4,3,1,400,1,1,2,1,1,354,1,Training
85,4,16,2,4,3,1,400,1,2,4,1,2,428,1,Training
85,4,17,2,4,3,1,400,1,1,2,1,1,446,1,Training
85,4,18,2,4,3,1,400,1,1,2,1,1,421,1,Training
85,4,19,2,4,3,1,400,1,2,4,1,2,465,1,Training
85,4,20,2,4,3,1,400,1,3,3,1,3,414,1,Training
85,5,1,2,4,3,1,400,1,3,4,0,3,435,1,Training
85,5,2,2,4,3,1,400,1,2,4,1,2,376,1,Training
85,5,3,2,4,3,1,400,1,2,4,1,2,457,1,Training
85,5,4,2,4,3,1,400,1,1,4,0,1,654,1,Training
85,5,5,2,4,3,1,400,1,4,1,1,4,436,1,Training
85,5,6,2,4,3,1,400,1,4,1,1,4,480,1,Training
85,5,7,2,4,3,1,400,1,2,4,1,2,438,1,Training
85,5,8,2,4,3,1,400,1,4,1,1,4,570,1,Training
85,5,9,2,4,3,1,400,1,4,1,1,4,422,1,Training
85,5,10,2,4,3,1,400,1,4,1,1,4,402,1,Training
85,5,11,2,4,3,1,400,1,3,3,1,3,401,1,Training
85,5,12,2,4,3,1,400,1,4,1,1,4,481,1,Training
85,5,13,2,4,3,1,400,1,1,2,1,1,448,1,Training
85,5,14,2,4,3,1,400,1,2,4,1,2,407,1,Training
85,5,15,2,4,3,1,400,1,4,1,1,4,403,1,Training
85,5,16,2,4,3,1,400,1,4,2,0,4,390,1,Training
85,5,17,2,4,3,1,400,1,4,1,1,4,507,1,Training
85,5,18,2,4,3,1,400,1,1,2,1,2,413,0,Training
85,5,19,2,4,3,1,400,1,1,2,1,1,317,1,Training
85,5,20,2,4,3,1,400,1,2,4,1,3,356,0,Training
85,6,1,2,4,3,1,400,1,2,4,1,2,515,1,Training
85,6,2,2,4,3,1,400,1,4,1,1,4,386,1,Training
85,6,3,2,4,3,1,400,1,2,4,1,2,467,1,Training
85,6,4,2,4,3,1,400,1,4,1,1,1,382,0,Training
85,6,5,2,4,3,1,400,1,4,1,1,4,563,1,Training
85,6,6,2,4,3,1,400,1,1,2,1,1,422,1,Training
85,6,7,2,4,3,1,400,1,1,2,1,1,387,1,Training
85,6,8,2,4,3,1,400,1,2,4,1,2,557,1,Training
85,6,9,2,4,3,1,400,1,3,3,1,3,324,1,Training
85,6,10,2,4,3,1,400,1,4,1,1,1,397,0,Training
85,6,11,2,4,3,1,400,1,3,3,1,4,421,0,Training
85,6,12,2,4,3,1,400,1,1,2,1,1,421,1,Training
85,6,13,2,4,3,1,400,1,1,2,1,1,322,1,Training
85,6,14,2,4,3,1,400,1,3,3,1,3,421,1,Training
85,6,15,2,4,3,1,400,1,2,4,1,2,380,1,Training
85,6,16,2,4,3,1,400,1,2,4,1,2,605,1,Training
85,6,17,2,4,3,1,400,1,4,1,1,4,450,1,Training
85,6,18,2,4,3,1,400,1,1,2,1,1,514,1,Training
85,6,19,2,4,3,1,400,1,1,2,1,1,318,1,Training
85,6,20,2,4,3,1,400,1,1,2,1,1,336,1,Training
85,7,1,2,4,3,1,400,1,4,1,1,2,611,0,Training
85,7,2,2,4,3,1,400,1,3,3,1,3,305,1,Training
85,7,3,2,4,3,1,400,1,4,1,1,1,446,0,Training
85,7,4,2,4,3,1,400,1,1,2,1,1,403,1,Training
85,7,5,2,4,3,1,400,1,4,1,1,4,360,1,Training
85,7,6,2,4,3,1,400,1,2,4,1,2,496,1,Training
85,7,7,2,4,3,1,400,1,1,2,1,1,541,1,Training
85,7,8,2,4,3,1,400,1,2,4,1,2,524,1,Training
85,7,9,2,4,3,1,400,1,1,2,1,1,452,1,Training
85,7,10,2,4,3,1,400,1,2,4,1,2,335,1,Training
85,7,11,2,4,3,1,400,1,2,4,1,2,426,1,Training
85,7,12,2,4,3,1,400,1,4,1,1,4,407,1,Training
85,7,13,2,4,3,1,400,1,2,4,1,4,386,0,Training
85,7,14,2,4,3,1,400,1,3,3,1,3,480,1,Training
85,7,15,2,4,3,1,400,1,3,3,1,3,339,1,Training
85,7,16,2,4,3,1,400,1,4,1,1,4,397,1,Training
85,7,17,2,4,3,1,400,1,1,2,1,1,590,1,Training
85,7,18,2,4,3,1,400,1,4,1,1,4,399,1,Training
85,7,19,2,4,3,1,400,1,1,2,1,1,454,1,Training
85,7,20,2,4,3,1,400,1,1,2,1,1,535,1,Training
85,8,1,2,4,3,1,400,1,4,4,0,4,507,1,Training
85,8,2,2,4,3,1,400,1,3,3,1,3,462,1,Training
85,8,3,2,4,3,1,400,1,4,1,1,4,528,1,Training
85,8,4,2,4,3,1,400,1,4,1,1,4,665,1,Training
85,8,5,2,4,3,1,400,1,4,1,1,4,292,1,Training
85,8,6,2,4,3,1,400,1,1,2,1,2,477,0,Training
85,8,7,2,4,3,1,400,1,2,4,1,2,314,1,Training
85,8,8,2,4,3,1,400,1,1,2,1,1,385,1,Training
85,8,9,2,4,3,1,400,1,2,4,1,2,537,1,Training
85,8,10,2,4,3,1,400,1,4,1,1,4,466,1,Training
85,8,11,2,4,3,1,400,1,4,1,1,4,493,1,Training
85,8,12,2,4,3,1,400,1,1,2,1,1,442,1,Training
85,8,13,2,4,3,1,400,1,2,4,1,2,459,1,Training
85,8,14,2,4,3,1,400,1,2,4,1,2,345,1,Training
85,8,15,2,4,3,1,400,1,2,4,1,2,363,1,Training
85,8,16,2,4,3,1,400,1,1,2,1,1,405,1,Training
85,8,17,2,4,3,1,400,1,3,3,1,3,481,1,Training
85,8,18,2,4,3,1,400,1,3,3,1,3,348,1,Training
85,8,19,2,4,3,1,400,1,1,2,1,1,539,1,Training
85,8,20,2,4,3,1,400,1,3,3,1,3,439,1,Training
85,9,1,2,4,3,1,400,1,3,3,1,3,390,1,Training
85,9,2,2,4,3,1,400,1,2,4,1,2,448,1,Training
85,9,3,2,4,3,1,400,1,3,3,1,3,297,1,Training
85,9,4,2,4,3,1,400,1,2,4,1,1,519,0,Training
85,9,5,2,4,3,1,400,1,3,2,0,3,446,1,Training
85,9,6,2,4,3,1,400,1,4,1,1,2,338,0,Training
85,9,7,2,4,3,1,400,1,3,3,1,3,437,1,Training
85,9,8,2,4,3,1,400,1,1,2,1,1,292,1,Training
85,9,9,2,4,3,1,400,1,3,3,1,3,269,1,Training
85,9,10,2,4,3,1,400,1,4,1,1,4,550,1,Training
85,9,11,2,4,3,1,400,1,1,3,0,2,405,0,Training
85,9,12,2,4,3,1,400,1,3,3,1,3,521,1,Training
85,9,13,2,4,3,1,400,1,3,3,1,3,327,1,Training
85,9,14,2,4,3,1,400,1,3,3,1,3,299,1,Training
85,9,15,2,4,3,1,400,1,3,3,1,3,283,1,Training
85,9,16,2,4,3,1,400,1,2,4,1,2,546,1,Training
85,9,17,2,4,3,1,400,1,4,1,1,4,644,1,Training
85,9,18,2,4,3,1,400,1,4,1,1,4,484,1,Training
85,9,19,2,4,3,1,400,1,1,2,1,1,399,1,Training
85,9,20,2,4,3,1,400,1,1,2,1,1,434,1,Training
85,10,1,2,4,3,1,400,1,2,4,1,2,579,1,Training
85,10,2,2,4,3,1,400,1,4,1,1,4,394,1,Training
85,10,3,2,4,3,1,400,1,3,3,1,3,399,1,Training
85,10,4,2,4,3,1,400,1,3,3,1,3,331,1,Training
85,10,5,2,4,3,1,400,1,1,2,1,1,408,1,Training
85,10,6,2,4,3,1,400,1,4,1,1,4,425,1,Training
85,10,7,2,4,3,1,400,1,3,3,1,3,391,1,Training
85,10,8,2,4,3,1,400,1,4,3,0,4,423,1,Training
85,10,9,2,4,3,1,400,1,4,1,1,4,403,1,Training
85,10,10,2,4,3,1,400,1,1,2,1,1,433,1,Training
85,10,11,2,4,3,1,400,1,4,1,1,4,394,1,Training
85,10,12,2,4,3,1,400,1,4,1,1,4,293,1,Training
85,10,13,2,4,3,1,400,1,2,4,1,2,569,1,Training
85,10,14,2,4,3,1,400,1,1,2,1,1,476,1,Training
85,10,15,2,4,3,1,400,1,1,4,0,1,546,1,Training
85,10,16,2,4,3,1,400,1,4,1,1,4,537,1,Training
85,10,17,2,4,3,1,400,1,3,3,1,3,312,1,Training
85,10,18,2,4,3,1,400,1,4,2,0,1,515,0,Training
85,10,19,2,4,3,1,400,1,3,3,1,3,294,1,Training
85,10,20,2,4,3,1,400,1,2,4,1,2,506,1,Training
85,11,1,2,4,3,1,400,1,3,3,1,3,313,1,Training
85,11,2,2,4,3,1,400,1,3,3,1,3,276,1,Training
85,11,3,2,4,3,1,400,1,3,3,1,3,284,1,Training
85,11,4,2,4,3,1,400,1,1,2,1,4,415,0,Training
85,11,5,2,4,3,1,400,1,2,4,1,2,358,1,Training
85,11,6,2,4,3,1,400,1,3,3,1,3,466,1,Training
85,11,7,2,4,3,1,400,1,1,2,1,1,462,1,Training
85,11,8,2,4,3,1,400,1,2,4,1,2,405,1,Training
85,11,9,2,4,3,1,400,1,3,3,1,3,496,1,Training
85,11,10,2,4,3,1,400,1,1,2,1,1,439,1,Training
85,11,11,2,4,3,1,400,1,2,4,1,1,456,0,Training
85,11,12,2,4,3,1,400,1,2,4,1,2,487,1,Training
85,11,13,2,4,3,1,400,1,2,4,1,2,352,1,Training
85,11,14,2,4,3,1,400,1,2,4,1,2,314,1,Training
85,11,15,2,4,3,1,400,1,4,1,1,4,598,1,Training
85,11,16,2,4,3,1,400,1,1,2,1,1,397,1,Training
85,11,17,2,4,3,1,400,1,3,3,1,3,437,1,Training
85,11,18,2,4,3,1,400,1,1,2,1,1,518,1,Training
85,11,19,2,4,3,1,400,1,4,1,1,4,456,1,Training
85,11,20,2,4,3,1,400,1,1,2,1,1,479,1,Training
85,12,1,2,4,3,1,400,1,2,4,1,1,408,0,Training
85,12,2,2,4,3,1,400,1,1,2,1,1,509,1,Training
85,12,3,2,4,3,1,400,1,2,4,1,2,325,1,Training
85,12,4,2,4,3,1,400,1,2,4,1,2,258,1,Training
85,12,5,2,4,3,1,400,1,3,3,1,3,411,1,Training
85,12,6,2,4,3,1,400,1,1,2,1,1,589,1,Training
85,12,7,2,4,3,1,400,1,2,4,1,2,485,1,Training
85,12,8,2,4,3,1,400,1,1,2,1,1,487,1,Training
85,12,9,2,4,3,1,400,1,4,1,1,4,442,1,Training
85,12,10,2,4,3,1,400,1,3,3,1,3,352,1,Training
85,12,11,2,4,3,1,400,1,4,1,1,4,300,1,Training
85,12,12,2,4,3,1,400,1,2,1,0,2,466,1,Training
85,12,13,2,4,3,1,400,1,1,2,1,1,257,1,Training
85,12,14,2,4,3,1,400,1,1,2,1,1,284,1,Training
85,12,15,2,4,3,1,400,1,4,1,1,3,441,0,Training
85,12,16,2,4,3,1,400,1,4,1,1,4,453,1,Training
85,12,17,2,4,3,1,400,1,3,3,1,3,235,1,Training
85,12,18,2,4,3,1,400,1,3,3,1,3,398,1,Training
85,12,19,2,4,3,1,400,1,4,1,1,2,362,0,Training
85,12,20,2,4,3,1,400,1,3,3,1,3,451,1,Training
85,13,1,2,4,3,1,400,1,4,1,1,4,436,1,Training
85,13,2,2,4,3,1,400,1,2,4,1,2,470,1,Training
85,13,3,2,4,3,1,400,1,1,2,1,1,455,1,Training
85,13,4,2,4,3,1,400,1,4,1,1,4,589,1,Training
85,13,5,2,4,3,1,400,1,4,1,1,4,620,1,Training
85,13,6,2,4,3,1,400,1,3,4,0,3,471,1,Training
85,13,7,2,4,3,1,400,1,3,3,1,3,403,1,Training
85,13,8,2,4,3,1,400,1,3,3,1,3,341,1,Training
85,13,9,2,4,3,1,400,1,3,1,0,3,313,1,Training
85,13,10,2,4,3,1,400,1,2,4,1,4,397,0,Training
85,13,11,2,4,3,1,400,1,4,1,1,4,421,1,Training
85,13,12,2,4,3,1,400,1,3,3,1,3,351,1,Training
85,13,13,2,4,3,1,400,1,1,4,0,1,503,1,Training
85,13,14,2,4,3,1,400,1,2,4,1,2,433,1,Training
85,13,15,2,4,3,1,400,1,1,2,1,1,566,1,Training
85,13,16,2,4,3,1,400,1,3,3,1,3,445,1,Training
85,13,17,2,4,3,1,400,1,1,2,1,1,467,1,Training
85,13,18,2,4,3,1,400,1,2,4,1,2,750,1,Training
85,13,19,2,4,3,1,400,1,4,1,1,4,537,1,Training
85,13,20,2,4,3,1,400,1,4,1,1,1,488,0,Training
85,14,1,2,4,3,1,400,1,4,1,1,4,446,1,Training
85,14,2,2,4,3,1,400,1,4,1,1,4,374,1,Training
85,14,3,2,4,3,1,400,1,4,1,1,4,293,1,Training
85,14,4,2,4,3,1,400,1,2,4,1,2,462,1,Training
85,14,5,2,4,3,1,400,1,3,3,1,2,454,0,Training
85,14,6,2,4,3,1,400,1,2,4,1,2,524,1,Training
85,14,7,2,4,3,1,400,1,1,2,1,4,452,0,Training
85,14,8,2,4,3,1,400,1,4,1,1,4,493,1,Training
85,14,9,2,4,3,1,400,1,2,4,1,2,506,1,Training
85,14,10,2,4,3,1,400,1,3,3,1,3,353,1,Training
85,14,11,2,4,3,1,400,1,4,1,1,4,299,1,Training
85,14,12,2,4,3,1,400,1,4,1,1,4,365,1,Training
85,14,13,2,4,3,1,400,1,2,4,1,2,441,1,Training
85,14,14,2,4,3,1,400,1,3,3,1,3,455,1,Training
85,14,15,2,4,3,1,400,1,2,4,1,2,446,1,Training
85,14,16,2,4,3,1,400,1,1,2,1,1,618,1,Training
85,14,17,2,4,3,1,400,1,4,1,1,4,502,1,Training
85,14,18,2,4,3,1,400,1,4,1,1,4,384,1,Training
85,14,19,2,4,3,1,400,1,1,2,1,2,394,0,Training
85,14,20,2,4,3,1,400,1,3,3,1,3,465,1,Training
85,15,1,2,4,3,1,400,1,3,3,1,3,405,1,Training
85,15,2,2,4,3,1,400,1,2,4,1,2,409,1,Training
85,15,3,2,4,3,1,400,1,2,4,1,2,381,1,Training
85,15,4,2,4,3,1,400,1,2,4,1,2,326,1,Training
85,15,5,2,4,3,1,400,1,2,3,0,2,292,1,Training
85,15,6,2,4,3,1,400,1,3,3,1,3,344,1,Training
85,15,7,2,4,3,1,400,1,1,2,1,1,468,1,Training
85,15,8,2,4,3,1,400,1,4,1,1,4,348,1,Training
85,15,9,2,4,3,1,400,1,4,1,1,4,424,1,Training
85,15,10,2,4,3,1,400,1,3,3,1,3,440,1,Training
85,15,11,2,4,3,1,400,1,1,2,1,2,335,0,Training
85,15,12,2,4,3,1,400,1,4,1,1,4,475,1,Training
85,15,13,2,4,3,1,400,1,1,2,1,1,508,1,Training
85,15,14,2,4,3,1,400,1,4,1,1,4,448,1,Training
85,15,15,2,4,3,1,400,1,3,3,1,3,500,1,Training
85,15,16,2,4,3,1,400,1,2,4,1,4,570,0,Training
85,15,17,2,4,3,1,400,1,4,1,1,4,407,1,Training
85,15,18,2,4,3,1,400,1,2,4,1,2,682,1,Training
85,15,19,2,4,3,1,400,1,1,2,1,1,601,1,Training
85,15,20,2,4,3,1,400,1,3,3,1,3,445,1,Training
85,16,1,2,4,3,1,400,1,3,3,1,3,453,1,Training
85,16,2,2,4,3,1,400,1,4,1,1,4,388,1,Training
85,16,3,2,4,3,1,400,1,1,2,1,1,429,1,Training
85,16,4,2,4,3,1,400,1,3,3,1,3,423,1,Training
85,16,5,2,4,3,1,400,1,3,3,1,3,429,1,Training
85,16,6,2,4,3,1,400,1,3,3,1,3,745,1,Training
85,16,7,2,4,3,1,400,1,3,3,1,3,373,1,Training
85,16,8,2,4,3,1,400,1,3,2,0,3,296,1,Training
85,16,9,2,4,3,1,400,1,2,4,1,2,464,1,Training
85,16,10,2,4,3,1,400,1,2,4,1,2,385,1,Training
85,16,11,2,4,3,1,400,1,3,3,1,2,216,0,Training
85,16,12,2,4,3,1,400,1,3,3,1,3,298,1,Training
85,16,13,2,4,3,1,400,1,3,3,1,3,260,1,Training
85,16,14,2,4,3,1,400,1,4,1,1,4,445,1,Training
85,16,15,2,4,3,1,400,1,2,4,1,2,476,1,Training
85,16,16,2,4,3,1,400,1,4,1,1,4,374,1,Training
85,16,17,2,4,3,1,400,1,3,3,1,3,465,1,Training
85,16,18,2,4,3,1,400,1,3,3,1,3,333,1,Training
85,16,19,2,4,3,1,400,1,2,4,1,2,428,1,Training
85,16,20,2,4,3,1,400,1,3,3,1,3,383,1,Training
85,18,1,2,4,3,1,400,1,3,3,1,3,741,1,Skill
85,18,2,2,4,3,1,400,1,3,1,0,3,365,1,Skill
85,18,3,2,4,3,1,400,1,3,3,1,3,322,1,Skill
85,18,4,2,4,3,1,400,1,3,1,0,3,271,1,Skill
85,18,5,2,4,3,1,400,1,4,3,0,4,317,1,Skill
85,18,6,2,4,3,1,400,1,3,4,0,3,286,1,Skill
85,18,7,2,4,3,1,400,1,3,2,0,3,290,1,Skill
85,18,8,2,4,3,1,400,1,2,3,0,2,452,1,Skill
85,18,9,2,4,3,1,400,1,1,2,1,1,398,1,Skill
85,18,10,2,4,3,1,400,1,1,2,1,1,370,1,Skill
85,18,11,2,4,3,1,400,1,1,3,0,2,461,0,Skill
85,18,12,2,4,3,1,400,1,4,1,1,4,489,1,Skill
85,18,13,2,4,3,1,400,1,1,3,0,1,494,1,Skill
85,18,14,2,4,3,1,400,1,4,1,1,4,638,1,Skill
85,18,15,2,4,3,1,400,1,4,2,0,4,404,1,Skill
85,18,16,2,4,3,1,400,1,2,1,0,2,545,1,Skill
85,18,17,2,4,3,1,400,1,1,4,0,1,457,1,Skill
85,18,18,2,4,3,1,400,1,2,4,1,2,435,1,Skill
85,18,19,2,4,3,1,400,1,3,1,0,3,361,1,Skill
85,18,20,2,4,3,1,400,1,3,2,0,3,352,1,Skill
85,19,1,2,4,3,1,400,1,2,2,0,2,454,1,Skill
85,19,2,2,4,3,1,400,1,4,3,0,4,422,1,Skill
85,19,3,2,4,3,1,400,1,1,1,0,1,468,1,Skill
85,19,4,2,4,3,1,400,1,4,4,0,4,504,1,Skill
85,19,5,2,4,3,1,400,1,3,2,0,3,411,1,Skill
85,19,6,2,4,3,1,400,1,2,2,0,1,405,0,Skill
85,19,7,2,4,3,1,400,1,1,1,0,1,559,1,Skill
85,19,8,2,4,3,1,400,1,3,1,0,3,365,1,Skill
85,19,9,2,4,3,1,400,1,4,3,0,4,458,1,Skill
85,19,10,2,4,3,1,400,1,2,1,0,2,465,1,Skill
85,19,11,2,4,3,1,400,1,1,2,1,4,577,0,Skill
85,19,12,2,4,3,1,400,1,4,1,1,4,469,1,Skill
85,19,13,2,4,3,1,400,1,4,1,1,4,326,1,Skill
85,19,14,2,4,3,1,400,1,2,2,0,2,484,1,Skill
85,19,15,2,4,3,1,400,1,4,2,0,2,412,0,Skill
85,19,16,2,4,3,1,400,1,4,3,0,4,442,1,Skill
85,19,17,2,4,3,1,400,1,1,3,0,1,496,1,Skill
85,19,18,2,4,3,1,400,1,4,1,1,4,618,1,Skill
85,19,19,2,4,3,1,400,1,1,3,0,1,517,1,Skill
85,19,20,2,4,3,1,400,1,4,1,1,4,523,1,Skill
85,20,1,2,4,3,1,400,1,1,4,0,1,529,1,Skill
85,20,2,2,4,3,1,400,1,4,4,0,4,382,1,Skill
85,20,3,2,4,3,1,400,1,3,2,0,3,402,1,Skill
85,20,4,2,4,3,1,400,1,4,4,0,4,557,1,Skill
85,20,5,2,4,3,1,400,1,3,1,0,3,332,1,Skill
85,20,6,2,4,3,1,400,1,4,4,0,4,359,1,Skill
85,20,7,2,4,3,1,400,1,2,4,1,2,507,1,Skill
85,20,8,2,4,3,1,400,1,3,4,0,4,447,0,Skill
85,20,9,2,4,3,1,400,1,2,4,1,2,588,1,Skill
85,20,10,2,4,3,1,400,1,3,1,0,3,364,1,Skill
85,20,11,2,4,3,1,400,1,3,4,0,3,375,1,Skill
85,20,12,2,4,3,1,400,1,2,1,0,2,502,1,Skill
85,20,13,2,4,3,1,400,1,3,2,0,3,338,1,Skill
85,20,14,2,4,3,1,400,1,4,1,1,4,523,1,Skill
85,20,15,2,4,3,1,400,1,2,1,0,2,449,1,Skill
85,20,16,2,4,3,1,400,1,4,2,0,4,520,1,Skill
85,20,17,2,4,3,1,400,1,2,1,0,2,519,1,Skill
85,20,18,2,4,3,1,400,1,1,2,1,1,296,1,Skill
85,20,19,2,4,3,1,400,1,2,2,0,3,461,0,Skill
85,20,20,2,4,3,1,400,1,4,4,0,4,450,1,Skill
85,21,1,2,4,3,1,400,1,2,2,0,2,432,1,Skill
85,21,2,2,4,3,1,400,1,1,3,0,1,533,1,Skill
85,21,3,2,4,3,1,400,1,1,1,0,1,581,1,Skill
85,21,4,2,4,3,1,400,1,1,1,0,1,275,1,Skill
85,21,5,2,4,3,1,400,1,4,1,1,4,501,1,Skill
85,21,6,2,4,3,1,400,1,3,2,0,3,421,1,Skill
85,21,7,2,4,3,1,400,1,1,2,1,1,504,1,Skill
85,21,8,2,4,3,1,400,1,2,4,1,2,484,1,Skill
85,21,9,2,4,3,1,400,1,2,1,0,2,564,1,Skill
85,21,10,2,4,3,1,400,1,3,2,0,3,1395,1,Skill
85,21,11,2,4,3,1,400,1,2,3,0,2,422,1,Skill
85,21,12,2,4,3,1,400,1,4,4,0,4,664,1,Skill
85,21,13,2,4,3,1,400,1,2,3,0,2,467,1,Skill
85,21,14,2,4,3,1,400,1,4,4,0,4,461,1,Skill
85,21,15,2,4,3,1,400,1,4,3,0,4,472,1,Skill
85,21,16,2,4,3,1,400,1,3,3,1,3,377,1,Skill
85,21,17,2,4,3,1,400,1,4,1,1,4,488,1,Skill
85,21,18,2,4,3,1,400,1,3,3,1,3,459,1,Skill
85,21,19,2,4,3,1,400,1,3,1,0,3,319,1,Skill
85,21,20,2,4,3,1,400,1,3,2,0,3,308,1,Skill
85,17,1,2,4,3,1,400,1,3,3,1,4,1175,0,Inference
85,17,2,2,4,3,1,400,1,1,2,1,2,1272,0,Inference
85,17,3,2,4,3,1,400,1,4,1,1,3,423,0,Inference
85,17,4,2,4,3,1,400,1,2,4,1,1,383,0,Inference
85,17,5,2,4,3,1,400,1,4,1,1,3,666,0,Inference
85,17,6,2,4,3,1,400,1,3,3,1,4,445,0,Inference
85,17,7,2,4,3,1,400,1,2,4,1,2,486,1,Inference
85,17,8,2,4,3,1,400,1,1,2,1,1,280,1,Inference
85,17,9,2,4,3,1,400,1,2,4,1,2,473,1,Inference
85,17,10,2,4,3,1,400,1,3,3,1,4,428,0,Inference
85,17,11,2,4,3,1,400,1,1,2,1,1,504,1,Inference
85,17,12,2,4,3,1,400,1,4,1,1,3,399,0,Inference
83,1,1,4,1,2,3,-400,1,1,4,1,1,881,1,Training
83,1,2,4,1,2,3,-400,1,4,3,1,4,717,1,Training
83,1,3,4,1,2,3,-400,1,2,1,1,2,543,1,Training
83,1,4,4,1,2,3,-400,1,1,4,1,1,452,1,Training
83,1,5,4,1,2,3,-400,1,2,1,1,2,519,1,Training
83,1,6,4,1,2,3,-400,1,3,2,1,3,600,1,Training
83,1,7,4,1,2,3,-400,1,3,2,1,3,482,1,Training
83,1,8,4,1,2,3,-400,1,1,4,1,1,676,1,Training
83,1,9,4,1,2,3,-400,1,3,2,1,3,588,1,Training
83,1,10,4,1,2,3,-400,1,3,2,1,3,568,1,Training
83,1,11,4,1,2,3,-400,1,3,2,1,3,573,1,Training
83,1,12,4,1,2,3,-400,1,2,2,0,2,527,1,Training
83,1,13,4,1,2,3,-400,1,3,2,1,3,542,1,Training
83,1,14,4,1,2,3,-400,1,1,4,1,1,462,1,Training
83,1,15,4,1,2,3,-400,1,1,4,1,1,528,1,Training
83,1,16,4,1,2,3,-400,1,2,1,1,2,477,1,Training
83,1,17,4,1,2,3,-400,1,3,2,1,3,403,1,Training
83,1,18,4,1,2,3,-400,1,4,3,1,4,356,1,Training
83,1,19,4,1,2,3,-400,1,4,3,1,4,708,1,Training
83,1,20,4,1,2,3,-400,1,3,2,1,3,445,1,Training
83,2,1,4,1,2,3,-400,1,3,2,1,3,442,1,Training
83,2,2,4,1,2,3,-400,1,3,2,1,3,467,1,Training
83,2,3,4,1,2,3,-400,1,2,1,1,2,424,1,Training
83,2,4,4,1,2,3,-400,1,4,3,1,4,317,1,Training
83,2,5,4,1,2,3,-400,1,3,2,1,3,356,1,Training
83,2,6,4,1,2,3,-400,1,3,2,1,3,476,1,Training
83,2,7,4,1,2,3,-400,1,3,2,1,3,531,1,Training
83,2,8,4,1,2,3,-400,1,3,2,1,3,499,1,Training
83,2,9,4,1,2,3,-400,1,1,4,1,1,432,1,Training
83,2,10,4,1,2,3,-400,1,2,1,1,1,405,0,Training
83,2,11,4,1,2,3,-400,1,3,2,1,3,495,1,Training
83,2,12,4,1,2,3,-400,1,4,3,1,4,517,1,Training
83,2,13,4,1,2,3,-400,1,3,2,1,3,444,1,Training
83,2,14,4,1,2,3,-400,1,2,1,1,2,489,1,Training
83,2,15,4,1,2,3,-400,1,4,3,1,4,342,1,Training
83,2,16,4,1,2,3,-400,1,2,1,1,2,418,1,Training
83,2,17,4,1,2,3,-400,1,4,1,0,4,374,1,Training
83,2,18,4,1,2,3,-400,1,3,2,1,3,324,1,Training
83,2,19,4,1,2,3,-400,1,1,4,1,1,394,1,Training
83,2,20,4,1,2,3,-400,1,4,3,1,4,622,1,Training
83,3,1,4,1,2,3,-400,1,2,1,1,2,427,1,Training
83,3,2,4,1,2,3,-400,1,4,3,1,4,372,1,Training
83,3,3,4,1,2,3,-400,1,1,4,1,1,321,1,Training
83,3,4,4,1,2,3,-400,1,2,4,0,2,316,1,Training
83,3,5,4,1,2,3,-400,1,2,1,1,2,455,1,Training
83,3,6,4,1,2,3,-400,1,1,4,1,1,329,1,Training
83,3,7,4,1,2,3,-400,1,4,3,1,4,281,1,Training
83,3,8,4,1,2,3,-400,1,4,3,1,4,573,1,Training
83,3,9,4,1,2,3,-400,1,2,1,1,2,644,1,Training
83,3,10,4,1,2,3,-400,1,3,2,1,3,342,1,Training
83,3,11,4,1,2,3,-400,1,2,1,1,1,389,0,Training
83,3,12,4,1,2,3,-400,1,3,2,1,3,478,1,Training
83,3,13,4,1,2,3,-400,1,4,3,1,4,365,1,Training
83,3,14,4,1,2,3,-400,1,1,4,1,1,453,1,Training
83,3,15,4,1,2,3,-400,1,3,2,1,3,343,1,Training
83,3,16,4,1,2,3,-400,1,4,3,1,4,421,1,Training
83,3,17,4,1,2,3,-400,1,2,1,1,2,533,1,Training
83,3,18,4,1,2,3,-400,1,4,3,1,4,338,1,Training
83,3,19,4,1,2,3,-400,1,3,2,1,3,289,1,Training
83,3,20,4,1,2,3,-400,1,3,2,1,3,358,1,Training
83,4,1,4,1,2,3,-400,1,4,3,1,4,376,1,Training
83,4,2,4,1,2,3,-400,1,1,1,0,1,452,1,Training
83,4,3,4,1,2,3,-400,1,1,4,1,1,566,1,Training
83,4,4,4,1,2,3,-400,1,2,2,0,2,547,1,Training
83,4,5,4,1,2,3,-400,1,2,1,1,2,617,1,Training
83,4,6,4,1,2,3,-400,1,2,4,0,2,473,1,Training
83,4,7,4,1,2,3,-400,1,3,2,1,3,346,1,Training
83,4,8,4,1,2,3,-400,1,1,4,1,1,520,1,Training
83,4,9,4,1,2,3,-400,1,3,3,0,3,505,1,Training
83,4,10,4,1,2,3,-400,1,3,2,1,3,473,1,Training
83,4,11,4,1,2,3,-400,1,4,3,1,4,309,1,Training
83,4,12,4,1,2,3,-400,1,3,2,1,3,574,1,Training
83,4,13,4,1,2,3,-400,1,2,1,1,2,441,1,Training
83,4,14,4,1,2,3,-400,1,4,3,1,4,316,1,Training
83,4,15,4,1,2,3,-400,1,4,3,1,4,505,1,Training
83,4,16,4,1,2,3,-400,1,1,4,1,1,460,1,Training
83,4,17,4,1,2,3,-400,1,1,4,1,1,447,1,Training
83,4,18,4,1,2,3,-400,1,1,4,1,1,475,1,Training
83,4,19,4,1,2,3,-400,1,1,4,1,1,368,1,Training
83,4,20,4,1,2,3,-400,1,2,1,1,2,357,1,Training
83,5,1,4,1,2,3,-400,1,2,2,0,2,510,1,Training
83,5,2,4,1,2,3,-400,1,3,2,1,3,325,1,Training
83,5,3,4,1,2,3,-400,1,4,3,1,4,297,1,Training
83,5,4,4,1,2,3,-400,1,1,2,0,1,414,1,Training
83,5,5,4,1,2,3,-400,1,4,3,1,4,315,1,Training
83,5,6,4,1,2,3,-400,1,2,1,1,2,311,1,Training
83,5,7,4,1,2,3,-400,1,3,2,1,3,302,1,Training
83,5,8,4,1,2,3,-400,1,3,2,1,3,428,1,Training
83,5,9,4,1,2,3,-400,1,2,1,1,2,447,1,Training
83,5,10,4,1,2,3,-400,1,1,4,1,1,337,1,Training
83,5,11,4,1,2,3,-400,1,4,4,0,4,528,1,Training
83,5,12,4,1,2,3,-400,1,3,2,1,3,302,1,Training
83,5,13,4,1,2,3,-400,1,4,3,1,4,403,1,Training
83,5,14,4,1,2,3,-400,1,4,3,1,4,443,1,Training
83,5,15,4,1,2,3,-400,1,4,3,1,4,500,1,Training
83,5,16,4,1,2,3,-400,1,1,1,0,1,449,1,Training
83,5,17,4,1,2,3,-400,1,2,1,1,2,775,1,Training
83,5,18,4,1,2,3,-400,1,2,4,0,2,458,1,Training
83,5,19,4,1,2,3,-400,1,3,2,1,3,328,1,Training
83,5,20,4,1,2,3,-400,1,4,3,1,4,290,1,Training
83,6,1,4,1,2,3,-400,1,1,4,1,1,453,1,Training
83,6,2,4,1,2,3,-400,1,1,4,1,1,305,1,Training
83,6,3,4,1,2,3,-400,1,4,3,1,4,282,1,Training
83,6,4,4,1,2,3,-400,1,4,3,1,4,319,1,Training
83,6,5,4,1,2,3,-400,1,2,1,1,2,480,1,Training
83,6,6,4,1,2,3,-400,1,1,4,1,1,390,1,Training
83,6,7,4,1,2,3,-400,1,4,3,1,4,244,1,Training
83,6,8,4,1,2,3,-400,1,2,1,1,2,405,1,Training
83,6,9,4,1,2,3,-400,1,3,2,1,3,311,1,Training
83,6,10,4,1,2,3,-400,1,4,3,1,4,246,1,Training
83,6,11,4,1,2,3,-400,1,3,2,1,3,513,1,Training
83,6,12,4,1,2,3,-400,1,1,4,1,1,485,1,Training
83,6,13,4,1,2,3,-400,1,3,3,0,3,526,1,Training
83,6,14,4,1,2,3,-400,1,3,2,1,3,435,1,Training
83,6,15,4,1,2,3,-400,1,1,4,1,1,432,1,Training
83,6,16,4,1,2,3,-400,1,2,1,1,2,546,1,Training
83,6,17,4,1,2,3,-400,1,2,1,1,2,480,1,Training
83,6,18,4,1,2,3,-400,1,4,4,0,4,391,1,Training
83,6,19,4,1,2,3,-400,1,1,4,1,2,385,0,Training
83,6,20,4,1,2,3,-400,1,2,1,1,2,575,1,Training
83,7,1,4,1,2,3,-400,1,1,4,1,1,428,1,Training
83,7,2,4,1,2,3,-400,1,4,3,1,4,314,1,Training
83,7,3,4,1,2,3,-400,1,1,1,0,1,422,1,Training
83,7,4,4,1,2,3,-400,1,3,2,1,3,348,1,Training
83,7,5,4,1,2,3,-400,1,1,4,1,1,369,1,Training
83,7,6,4,1,2,3,-400,1,2,1,1,2,475,1,Training
83,7,7,4,1,2,3,-400,1,1,4,1,1,418,1,Training
83,7,8,4,1,2,3,-400,1,3,2,1,3,343,1,Training
83,7,9,4,1,2,3,-400,1,1,4,1,1,470,1,Training
83,7,10,4,1,2,3,-400,1,1,4,1,1,363,1,Training
83,7,11,4,1,2,3,-400,1,3,2,1,3,572,1,Training
83,7,12,4,1,2,3,-400,1,1,4,1,1,542,1,Training
83,7,13,4,1,2,3,-400,1,2,1,1,2,424,1,Training
83,7,14,4,1,2,3,-400,1,2,1,1,2,531,1,Training
83,7,15,4,1,2,3,-400,1,4,3,1,4,307,1,Training
83,7,16,4,1,2,3,-400,1,1,4,1,2,400,0,Training
83,7,17,4,1,2,3,-400,1,1,4,1,1,541,1,Training
83,7,18,4,1,2,3,-400,1,3,2,1,3,339,1,Training
83,7,19,4,1,2,3,-400,1,2,1,1,2,336,1,Training
83,7,20,4,1,2,3,-400,1,4,3,1,4,310,1,Training
83,8,1,4,1,2,3,-400,1,3,2,1,3,335,1,Training
83,8,2,4,1,2,3,-400,1,4,3,1,4,331,1,Training
83,8,3,4,1,2,3,-400,1,3,2,1,3,381,1,Training
83,8,4,4,1,2,3,-400,1,2,1,1,2,363,1,Training
83,8,5,4,1,2,3,-400,1,3,2,1,3,336,1,Training
83,8,6,4,1,2,3,-400,1,1,4,1,1,435,1,Training
83,8,7,4,1,2,3,-400,1,4,3,1,4,283,1,Training
83,8,8,4,1,2,3,-400,1,3,2,1,3,308,1,Training
83,8,9,4,1,2,3,-400,1,1,4,1,1,317,1,Training
83,8,10,4,1,2,3,-400,1,2,1,1,2,471,1,Training
83,8,11,4,1,2,3,-400,1,3,2,1,3,244,1,Training
83,8,12,4,1,2,3,-400,1,2,1,1,1,379,0,Training
83,8,13,4,1,2,3,-400,1,3,2,1,3,293,1,Training
83,8,14,4,1,2,3,-400,1,1,2,0,1,628,1,Training
83,8,15,4,1,2,3,-400,1,1,4,1,1,643,1,Training
83,8,16,4,1,2,3,-400,1,1,4,1,1,478,1,Training
83,8,17,4,1,2,3,-400,1,3,1,0,3,546,1,Training
83,8,18,4,1,2,3,-400,1,3,2,1,3,460,1,Training
83,8,19,4,1,2,3,-400,1,4,3,1,4,311,1,Training
83,8,20,4,1,2,3,-400,1,1,4,1,1,393,1,Training
83,9,1,4,1,2,3,-400,1,2,1,1,2,424,1,Training
83,9,2,4,1,2,3,-400,1,4,3,1,4,346,1,Training
83,9,3,4,1,2,3,-400,1,1,4,1,1,354,1,Training
83,9,4,4,1,2,3,-400,1,4,3,1,4,368,1,Training
83,9,5,4,1,2,3,-400,1,1,4,1,1,494,1,Training
83,9,6,4,1,2,3,-400,1,4,1,0,4,565,1,Training
83,9,7,4,1,2,3,-400,1,2,1,1,2,511,1,Training
83,9,8,4,1,2,3,-400,1,4,3,1,4,534,1,Training
83,9,9,4,1,2,3,-400,1,2,1,1,2,459,1,Training
83,9,10,4,1,2,3,-400,1,1,4,1,1,402,1,Training
83,9,11,4,1,2,3,-400,1,1,4,1,1,332,1,Training
83,9,12,4,1,2,3,-400,1,2,1,1,2,491,1,Training
83,9,13,4,1,2,3,-400,1,2,3,0,2,478,1,Training
83,9,14,4,1,2,3,-400,1,4,3,1,4,340,1,Training
83,9,15,4,1,2,3,-400,1,3,2,1,3,373,1,Training
83,9,16,4,1,2,3,-400,1,1,4,1,1,547,1,Training
83,9,17,4,1,2,3,-400,1,2,1,1,2,377,1,Training
83,9,18,4,1,2,3,-400,1,4,3,1,4,301,1,Training
83,9,19,4,1,2,3,-400,1,2,1,1,2,401,1,Training
83,9,20,4,1,2,3,-400,1,1,4,1,1,347,1,Training
83,10,1,4,1,2,3,-400,1,3,2,1,3,410,1,Training
83,10,2,4,1,2,3,-400,1,4,3,1,4,270,1,Training
83,10,3,4,1,2,3,-400,1,2,1,1,2,464,1,Training
83,10,4,4,1,2,3,-400,1,2,1,1,2,457,1,Training
83,10,5,4,1,2,3,-400,1,2,1,1,2,304,1,Training
83,10,6,4,1,2,3,-400,1,2,1,1,2,309,1,Training
83,10,7,4,1,2,3,-400,1,2,1,1,2,355,1,Training
83,10,8,4,1,2,3,-400,1,4,3,1,4,506,1,Training
83,10,9,4,1,2,3,-400,1,4,3,1,4,371,1,Training
83,10,10,4,1,2,3,-400,1,1,4,1,1,381,1,Training
83,10,11,4,1,2,3,-400,1,4,3,1,4,297,1,Training
83,10,12,4,1,2,3,-400,1,2,1,1,1,349,0,Training
83,10,13,4,1,2,3,-400,1,2,1,1,2,353,1,Training
83,10,14,4,1,2,3,-400,1,1,4,1,1,325,1,Training
83,10,15,4,1,2,3,-400,1,4,3,1,4,320,1,Training
83,10,16,4,1,2,3,-400,1,1,4,1,1,506,1,Training
83,10,17,4,1,2,3,-400,1,1,4,1,1,336,1,Training
83,10,18,4,1,2,3,-400,1,2,1,1,2,394,1,Training
83,10,19,4,1,2,3,-400,1,1,4,1,1,308,1,Training
83,10,20,4,1,2,3,-400,1,4,3,1,4,312,1,Training
83,11,1,4,1,2,3,-400,1,4,3,1,4,299,1,Training
83,11,2,4,1,2,3,-400,1,1,4,1,1,422,1,Training
83,11,3,4,1,2,3,-400,1,4,3,1,4,295,1,Training
83,11,4,4,1,2,3,-400,1,2,1,1,2,346,1,Training
83,11,5,4,1,2,3,-400,1,4,3,1,4,284,1,Training
83,11,6,4,1,2,3,-400,1,1,4,1,1,546,1,Training
83,11,7,4,1,2,3,-400,1,2,1,1,2,395,1,Training
83,11,8,4,1,2,3,-400,1,4,3,1,4,282,1,Training
83,11,9,4,1,2,3,-400,1,2,1,1,2,293,1,Training
83,11,10,4,1,2,3,-400,1,4,3,1,4,263,1,Training
83,11,11,4,1,2,3,-400,1,3,2,1,3,323,1,Training
83,11,12,4,1,2,3,-400,1,4,3,1,4,330,1,Training
83,11,13,4,1,2,3,-400,1,1,4,1,1,581,1,Training
83,11,14,4,1,2,3,-400,1,3,1,0,3,546,1,Training
83,11,15,4,1,2,3,-400,1,1,4,1,1,433,1,Training
83,11,16,4,1,2,3,-400,1,3,2,1,3,347,1,Training
83,11,17,4,1,2,3,-400,1,4,3,1,4,316,1,Training
83,11,18,4,1,2,3,-400,1,1,4,1,1,455,1,Training
83,11,19,4,1,2,3,-400,1,3,2,1,3,299,1,Training
83,11,20,4,1,2,3,-400,1,3,4,0,1,269,0,Training
83,12,1,4,1,2,3,-400,1,2,2,0,2,733,1,Training
83,12,2,4,1,2,3,-400,1,1,4,1,1,382,1,Training
83,12,3,4,1,2,3,-400,1,3,2,1,3,291,1,Training
83,12,4,4,1,2,3,-400,1,1,4,1,1,458,1,Training
83,12,5,4,1,2,3,-400,1,3,2,1,3,291,1,Training
83,12,6,4,1,2,3,-400,1,4,3,1,4,310,1,Training
83,12,7,4,1,2,3,-400,1,3,2,1,3,431,1,Training
83,12,8,4,1,2,3,-400,1,2,1,1,2,549,1,Training
83,12,9,4,1,2,3,-400,1,1,4,1,1,448,1,Training
83,12,10,4,1,2,3,-400,1,1,2,0,1,563,1,Training
83,12,11,4,1,2,3,-400,1,1,4,1,1,390,1,Training
83,12,12,4,1,2,3,-400,1,2,1,1,2,655,1,Training
83,12,13,4,1,2,3,-400,1,4,3,1,4,462,1,Training
83,12,14,4,1,2,3,-400,1,3,2,1,3,355,1,Training
83,12,15,4,1,2,3,-400,1,1,4,1,1,385,1,Training
83,12,16,4,1,2,3,-400,1,4,3,1,4,296,1,Training
83,12,17,4,1,2,3,-400,1,3,2,1,3,308,1,Training
83,12,18,4,1,2,3,-400,1,1,4,1,1,389,1,Training
83,12,19,4,1,2,3,-400,1,2,1,1,2,608,1,Training
83,12,20,4,1,2,3,-400,1,1,4,1,1,446,1,Training
83,13,1,4,1,2,3,-400,1,2,1,1,2,627,1,Training
83,13,2,4,1,2,3,-400,1,4,2,0,4,619,1,Training
83,13,3,4,1,2,3,-400,1,4,3,1,4,435,1,Training
83,13,4,4,1,2,3,-400,1,1,4,1,1,435,1,Training
83,13,5,4,1,2,3,-400,1,1,4,1,1,450,1,Training
83,13,6,4,1,2,3,-400,1,3,2,1,3,361,1,Training
83,13,7,4,1,2,3,-400,1,3,2,1,3,390,1,Training
83,13,8,4,1,2,3,-400,1,2,1,1,2,445,1,Training
83,13,9,4,1,2,3,-400,1,1,4,1,1,407,1,Training
83,13,10,4,1,2,3,-400,1,1,4,1,1,367,1,Training
83,13,11,4,1,2,3,-400,1,2,1,1,2,522,1,Training
83,13,12,4,1,2,3,-400,1,1,4,1,1,398,1,Training
83,13,13,4,1,2,3,-400,1,2,1,1,2,437,1,Training
83,13,14,4,1,2,3,-400,1,4,3,1,4,344,1,Training
83,13,15,4,1,2,3,-400,1,1,4,1,1,307,1,Training
83,13,16,4,1,2,3,-400,1,4,3,1,4,503,1,Training
83,13,17,4,1,2,3,-400,1,4,3,1,4,282,1,Training
83,13,18,4,1,2,3,-400,1,3,2,1,3,310,1,Training
83,13,19,4,1,2,3,-400,1,1,4,1,1,279,1,Training
83,13,20,4,1,2,3,-400,1,2,1,1,2,264,1,Training
83,14,1,4,1,2,3,-400,1,4,4,0,4,378,1,Training
83,14,2,4,1,2,3,-400,1,3,2,1,3,306,1,Training
83,14,3,4,1,2,3,-400,1,4,3,1,4,271,1,Training
83,14,4,4,1,2,3,-400,1,1,2,0,1,449,1,Training
83,14,5,4,1,2,3,-400,1,4,3,1,4,511,1,Training
83,14,6,4,1,2,3,-400,1,2,1,1,2,440,1,Training
83,14,7,4,1,2,3,-400,1,1,4,1,1,335,1,Training
83,14,8,4,1,2,3,-400,1,3,2,1,3,255,1,Training
83,14,9,4,1,2,3,-400,1,1,4,1,1,515,1,Training
83,14,10,4,1,2,3,-400,1,3,2,1,3,294,1,Training
83,14,11,4,1,2,3,-400,1,1,4,1,1,293,1,Training
83,14,12,4,1,2,3,-400,1,4,3,1,4,412,1,Training
83,14,13,4,1,2,3,-400,1,4,3,1,4,377,1,Training
83,14,14,4,1,2,3,-400,1,1,4,1,1,301,1,Training
83,14,15,4,1,2,3,-400,1,1,2,0,1,668,1,Training
83,14,16,4,1,2,3,-400,1,3,2,1,3,566,1,Training
83,14,17,4,1,2,3,-400,1,3,2,1,3,305,1,Training
83,14,18,4,1,2,3,-400,1,3,2,1,3,305,1,Training
83,14,19,4,1,2,3,-400,1,1,4,1,1,442,1,Training
83,14,20,4,1,2,3,-400,1,1,4,1,1,331,1,Training
83,15,1,4,1,2,3,-400,1,2,1,1,2,642,1,Training
83,15,2,4,1,2,3,-400,1,4,4,0,4,374,1,Training
83,15,3,4,1,2,3,-400,1,1,4,1,1,341,1,Training
83,15,4,4,1,2,3,-400,1,2,1,1,2,309,1,Training
83,15,5,4,1,2,3,-400,1,4,3,1,4,268,1,Training
83,15,6,4,1,2,3,-400,1,3,2,1,3,228,1,Training
83,15,7,4,1,2,3,-400,1,4,3,1,4,275,1,Training
83,15,8,4,1,2,3,-400,1,2,1,1,2,608,1,Training
83,15,9,4,1,2,3,-400,1,3,2,1,3,515,1,Training
83,15,10,4,1,2,3,-400,1,3,2,1,3,545,1,Training
83,15,11,4,1,2,3,-400,1,2,1,1,2,473,1,Training
83,15,12,4,1,2,3,-400,1,3,2,1,3,270,1,Training
83,15,13,4,1,2,3,-400,1,4,3,1,4,261,1,Training
83,15,14,4,1,2,3,-400,1,2,1,1,2,458,1,Training
83,15,15,4,1,2,3,-400,1,4,3,1,4,587,1,Training
83,15,16,4,1,2,3,-400,1,3,4,0,3,396,1,Training
83,15,17,4,1,2,3,-400,1,4,3,1,4,350,1,Training
83,15,18,4,1,2,3,-400,1,1,4,1,1,348,1,Training
83,15,19,4,1,2,3,-400,1,2,1,1,2,442,1,Training
83,15,20,4,1,2,3,-400,1,3,2,1,3,304,1,Training
83,16,1,4,1,2,3,-400,1,3,2,1,3,255,1,Training
83,16,2,4,1,2,3,-400,1,4,3,1,4,422,1,Training
83,16,3,4,1,2,3,-400,1,4,3,1,4,674,1,Training
83,16,4,4,1,2,3,-400,1,2,1,1,2,588,1,Training
83,16,5,4,1,2,3,-400,1,4,3,1,4,288,1,Training
83,16,6,4,1,2,3,-400,1,3,2,1,3,243,1,Training
83,16,7,4,1,2,3,-400,1,1,4,1,1,448,1,Training
83,16,8,4,1,2,3,-400,1,3,2,1,3,687,1,Training
83,16,9,4,1,2,3,-400,1,4,3,1,4,319,1,Training
83,16,10,4,1,2,3,-400,1,1,4,1,1,419,1,Training
83,16,11,4,1,2,3,-400,1,4,3,1,4,343,1,Training
83,16,12,4,1,2,3,-400,1,4,2,0,4,613,1,Training
83,16,13,4,1,2,3,-400,1,1,4,1,1,395,1,Training
83,16,14,4,1,2,3,-400,1,4,3,1,4,553,1,Training
83,16,15,4,1,2,3,-400,1,2,1,1,2,548,1,Training
83,16,16,4,1,2,3,-400,1,3,2,1,3,400,1,Training
83,16,17,4,1,2,3,-400,1,4,3,1,4,244,1,Training
83,16,18,4,1,2,3,-400,1,2,1,1,2,445,1,Training
83,16,19,4,1,2,3,-400,1,2,1,1,2,423,1,Training
83,16,20,4,1,2,3,-400,1,2,1,1,2,257,1,Training
83,18,1,4,1,2,3,-400,1,2,2,0,3,115,0,Skill
83,18,2,4,1,2,3,-400,1,1,3,0,1,565,1,Skill
83,18,3,4,1,2,3,-400,1,2,4,0,2,493,1,Skill
83,18,4,4,1,2,3,-400,1,1,4,1,1,473,1,Skill
83,18,5,4,1,2,3,-400,1,2,3,0,2,468,1,Skill
83,18,6,4,1,2,3,-400,1,3,3,0,3,903,1,Skill
83,18,7,4,1,2,3,-400,1,3,4,0,3,515,1,Skill
83,18,8,4,1,2,3,-400,1,4,4,0,4,328,1,Skill
83,18,9,4,1,2,3,-400,1,4,2,0,4,591,1,Skill
83,18,10,4,1,2,3,-400,1,1,2,0,1,549,1,Skill
83,18,11,4,1,2,3,-400,1,2,4,0,2,418,1,Skill
83,18,12,4,1,2,3,-400,1,1,2,0,1,504,1,Skill
83,18,13,4,1,2,3,-400,1,3,4,0,3,376,1,Skill
83,18,14,4,1,2,3,-400,1,1,3,0,1,428,1,Skill
83,18,15,4,1,2,3,-400,1,4,2,0,4,461,1,Skill
83,18,16,4,1,2,3,-400,1,4,2,0,4,347,1,Skill
83,18,17,4,1,2,3,-400,1,3,3,0,3,380,1,Skill
83,18,18,4,1,2,3,-400,1,4,4,0,4,567,1,Skill
83,18,19,4,1,2,3,-400,1,1,2,0,1,423,1,Skill
83,18,20,4,1,2,3,-400,1,3,1,0,3,464,1,Skill
83,19,1,4,1,2,3,-400,1,3,1,0,3,384,1,Skill
83,19,2,4,1,2,3,-400,1,2,3,0,3,483,0,Skill
83,19,3,4,1,2,3,-400,1,3,2,1,3,386,1,Skill
83,19,4,4,1,2,3,-400,1,4,2,0,4,440,1,Skill
83,19,5,4,1,2,3,-400,1,2,2,0,2,564,1,Skill
83,19,6,4,1,2,3,-400,1,3,3,0,3,412,1,Skill
83,19,7,4,1,2,3,-400,1,2,3,0,2,470,1,Skill
83,19,8,4,1,2,3,-400,1,2,1,1,1,380,0,Skill
83,19,9,4,1,2,3,-400,1,3,2,1,3,397,1,Skill
83,19,10,4,1,2,3,-400,1,2,3,0,2,428,1,Skill
83,19,11,4,1,2,3,-400,1,4,1,0,4,493,1,Skill
83,19,12,4,1,2,3,-400,1,2,3,0,2,362,1,Skill
83,19,13,4,1,2,3,-400,1,2,1,1,1,378,0,Skill
83,19,14,4,1,2,3,-400,1,1,2,0,1,612,1,Skill
83,19,15,4,1,2,3,-400,1,2,1,1,2,468,1,Skill
83,19,16,4,1,2,3,-400,1,1,3,0,1,619,1,Skill
83,19,17,4,1,2,3,-400,1,1,4,1,1,426,1,Skill
83,19,18,4,1,2,3,-400,1,2,2,0,2,445,1,Skill
83,19,19,4,1,2,3,-400,1,3,3,0,4,405,0,Skill
83,19,20,4,1,2,3,-400,1,4,4,0,4,557,1,Skill
83,20,1,4,1,2,3,-400,1,1,3,0,1,446,1,Skill
83,20,2,4,1,2,3,-400,1,1,2,0,1,444,1,Skill
83,20,3,4,1,2,3,-400,1,4,2,0,4,488,1,Skill
83,20,4,4,1,2,3,-400,1,2,2,0,2,450,1,Skill
83,20,5,4,1,2,3,-400,1,4,4,0,4,480,1,Skill
83,20,6,4,1,2,3,-400,1,3,1,0,3,463,1,Skill
83,20,7,4,1,2,3,-400,1,2,4,0,2,372,1,Skill
83,20,8,4,1,2,3,-400,1,1,3,0,1,479,1,Skill
83,20,9,4,1,2,3,-400,1,4,2,0,4,338,1,Skill
83,20,10,4,1,2,3,-400,1,2,3,0,2,521,1,Skill
83,20,11,4,1,2,3,-400,1,2,1,1,2,410,1,Skill
83,20,12,4,1,2,3,-400,1,4,2,0,4,565,1,Skill
83,20,13,4,1,2,3,-400,1,2,3,0,2,440,1,Skill
83,20,14,4,1,2,3,-400,1,1,1,0,1,421,1,Skill
83,20,15,4,1,2,3,-400,1,1,2,0,1,421,1,Skill
83,20,16,4,1,2,3,-400,1,1,1,0,1,422,1,Skill
83,20,17,4,1,2,3,-400,1,1,3,0,1,422,1,Skill
83,20,18,4,1,2,3,-400,1,4,1,0,4,502,1,Skill
83,20,19,4,1,2,3,-400,1,1,1,0,1,418,1,Skill
83,20,20,4,1,2,3,-400,1,3,2,1,3,358,1,Skill
83,21,1,4,1,2,3,-400,1,2,3,0,2,749,1,Skill
83,21,2,4,1,2,3,-400,1,2,2,0,2,649,1,Skill
83,21,3,4,1,2,3,-400,1,3,1,0,3,363,1,Skill
83,21,4,4,1,2,3,-400,1,1,1,0,1,457,1,Skill
83,21,5,4,1,2,3,-400,1,2,4,0,2,371,1,Skill
83,21,6,4,1,2,3,-400,1,3,1,0,3,406,1,Skill
83,21,7,4,1,2,3,-400,1,2,4,0,2,463,1,Skill
83,21,8,4,1,2,3,-400,1,2,2,0,2,528,1,Skill
83,21,9,4,1,2,3,-400,1,3,3,0,3,396,1,Skill
83,21,10,4,1,2,3,-400,1,1,3,0,1,414,1,Skill
83,21,11,4,1,2,3,-400,1,1,4,1,1,468,1,Skill
83,21,12,4,1,2,3,-400,1,2,4,0,2,404,1,Skill
83,21,13,4,1,2,3,-400,1,1,2,0,1,396,1,Skill
83,21,14,4,1,2,3,-400,1,4,1,0,4,383,1,Skill
83,21,15,4,1,2,3,-400,1,2,2,0,2,451,1,Skill
83,21,16,4,1,2,3,-400,1,3,1,0,3,403,1,Skill
83,21,17,4,1,2,3,-400,1,2,4,0,2,410,1,Skill
83,21,18,4,1,2,3,-400,1,1,1,0,1,337,1,Skill
83,21,19,4,1,2,3,-400,1,1,4,1,1,435,1,Skill
83,21,20,4,1,2,3,-400,1,1,3,0,1,478,1,Skill
83,17,1,4,1,2,3,-400,1,3,2,1,3,554,1,Inference
83,17,2,4,1,2,3,-400,1,4,3,1,4,413,1,Inference
83,17,3,4,1,2,3,-400,1,1,4,1,1,450,1,Inference
83,17,4,4,1,2,3,-400,1,2,1,1,2,560,1,Inference
83,17,5,4,1,2,3,-400,1,1,4,1,1,764,1,Inference
83,17,6,4,1,2,3,-400,1,2,1,1,2,607,1,Inference
83,17,7,4,1,2,3,-400,1,4,3,1,4,405,1,Inference
83,17,8,4,1,2,3,-400,1,3,2,1,3,306,1,Inference
83,17,9,4,1,2,3,-400,1,1,4,1,1,571,1,Inference
83,17,10,4,1,2,3,-400,1,3,2,1,3,390,1,Inference
83,17,11,4,1,2,3,-400,1,4,3,1,4,376,1,Inference
83,17,12,4,1,2,3,-400,1,2,1,1,2,871,1,Inference
82,1,1,3,4,1,2,400,1,3,1,1,3,1824,1,Training
82,1,2,3,4,1,2,400,1,3,1,1,3,989,1,Training
82,1,3,3,4,1,2,400,1,2,4,1,2,685,1,Training
82,1,4,3,4,1,2,400,1,3,1,1,3,628,1,Training
82,1,5,3,4,1,2,400,1,2,4,1,2,615,1,Training
82,1,6,3,4,1,2,400,1,1,3,1,1,399,1,Training
82,1,7,3,4,1,2,400,1,2,4,1,2,486,1,Training
82,1,8,3,4,1,2,400,1,1,1,0,1,665,1,Training
82,1,9,3,4,1,2,400,1,2,4,1,2,367,1,Training
82,1,10,3,4,1,2,400,1,4,2,1,4,516,1,Training
82,1,11,3,4,1,2,400,1,3,1,1,3,407,1,Training
82,1,12,3,4,1,2,400,1,3,1,1,3,616,1,Training
82,1,13,3,4,1,2,400,1,3,1,1,3,643,1,Training
82,1,14,3,4,1,2,400,1,1,3,1,1,570,1,Training
82,1,15,3,4,1,2,400,1,4,4,0,4,508,1,Training
82,1,16,3,4,1,2,400,1,4,2,1,4,523,1,Training
82,1,17,3,4,1,2,400,1,1,3,1,1,415,1,Training
82,1,18,3,4,1,2,400,1,1,3,1,1,441,1,Training
82,1,19,3,4,1,2,400,1,1,3,1,1,428,1,Training
82,1,20,3,4,1,2,400,1,4,2,1,4,487,1,Training
82,2,1,3,4,1,2,400,1,2,4,1,2,581,1,Training
82,2,2,3,4,1,2,400,1,3,1,1,3,637,1,Training
82,2,3,3,4,1,2,400,1,3,1,1,3,459,1,Training
82,2,4,3,4,1,2,400,1,1,3,1,1,458,1,Training
82,2,5,3,4,1,2,400,1,4,2,1,4,497,1,Training
82,2,6,3,4,1,2,400,1,2,4,1,2,530,1,Training
82,2,7,3,4,1,2,400,1,3,1,1,3,501,1,Training
82,2,8,3,4,1,2,400,1,4,2,1,4,494,1,Training
82,2,9,3,4,1,2,400,1,4,2,1,4,422,1,Training
82,2,10,3,4,1,2,400,1,2,4,1,2,470,1,Training
82,2,11,3,4,1,2,400,1,4,2,1,4,369,1,Training
82,2,12,3,4,1,2,400,1,3,3,0,3,526,1,Training
82,2,13,3,4,1,2,400,1,4,2,1,4,406,1,Training
82,2,14,3,4,1,2,400,1,3,1,1,3,445,1,Training
82,2,15,3,4,1,2,400,1,3,1,1,3,461,1,Training
82,2,16,3,4,1,2,400,1,2,4,1,2,425,1,Training
82,2,17,3,4,1,2,400,1,2,4,1,2,451,1,Training
82,2,18,3,4,1,2,400,1,2,4,1,2,329,1,Training
82,2,19,3,4,1,2,400,1,3,1,1,3,475,1,Training
82,2,20,3,4,1,2,400,1,4,2,1,4,442,1,Training
82,3,1,3,4,1,2,400,1,1,1,0,2,499,0,Training
82,3,2,3,4,1,2,400,1,3,2,0,3,435,1,Training
82,3,3,3,4,1,2,400,1,4,2,1,4,348,1,Training
82,3,4,3,4,1,2,400,1,4,2,1,4,428,1,Training
82,3,5,3,4,1,2,400,1,3,1,1,3,654,1,Training
82,3,6,3,4,1,2,400,1,3,1,1,3,515,1,Training
82,3,7,3,4,1,2,400,1,1,3,1,1,473,1,Training
82,3,8,3,4,1,2,400,1,4,2,1,4,505,1,Training
82,3,9,3,4,1,2,400,1,4,2,1,4,411,1,Training
82,3,10,3,4,1,2,400,1,1,3,1,1,549,1,Training
82,3,11,3,4,1,2,400,1,1,3,1,1,411,1,Training
82,3,12,3,4,1,2,400,1,2,4,1,3,440,0,Training
82,3,13,3,4,1,2,400,1,3,1,1,3,426,1,Training
82,3,14,3,4,1,2,400,1,3,3,0,3,423,1,Training
82,3,15,3,4,1,2,400,1,1,3,1,1,413,1,Training
82,3,16,3,4,1,2,400,1,4,2,1,4,443,1,Training
82,3,17,3,4,1,2,400,1,1,3,1,2,514,0,Training
82,3,18,3,4,1,2,400,1,2,4,1,2,393,1,Training
82,3,19,3,4,1,2,400,1,1,3,1,1,448,1,Training
82,3,20,3,4,1,2,400,1,4,2,1,4,479,1,Training
82,4,1,3,4,1,2,400,1,2,4,1,2,511,1,Training
82,4,2,3,4,1,2,400,1,2,4,1,2,480,1,Training
82,4,3,3,4,1,2,400,1,4,2,1,4,369,1,Training
82,4,4,3,4,1,2,400,1,4,2,1,4,506,1,Training
82,4,5,3,4,1,2,400,1,4,2,1,4,398,1,Training
82,4,6,3,4,1,2,400,1,1,3,1,1,442,1,Training
82,4,7,3,4,1,2,400,1,1,3,1,1,423,1,Training
82,4,8,3,4,1,2,400,1,4,1,0,4,509,1,Training
82,4,9,3,4,1,2,400,1,4,2,1,4,410,1,Training
82,4,10,3,4,1,2,400,1,2,4,1,2,433,1,Training
82,4,11,3,4,1,2,400,1,1,3,1,1,306,1,Training
82,4,12,3,4,1,2,400,1,2,4,1,2,300,1,Training
82,4,13,3,4,1,2,400,1,3,1,1,3,515,1,Training
82,4,14,3,4,1,2,400,1,4,2,1,4,284,1,Training
82,4,15,3,4,1,2,400,1,3,1,1,2,476,0,Training
82,4,16,3,4,1,2,400,1,4,2,1,4,556,1,Training
82,4,17,3,4,1,2,400,1,3,1,1,3,508,1,Training
82,4,18,3,4,1,2,400,1,4,2,1,4,394,1,Training
82,4,19,3,4,1,2,400,1,3,4,0,3,508,1,Training
82,4,20,3,4,1,2,400,1,4,2,1,4,409,1,Training
82,5,1,3,4,1,2,400,1,3,1,1,4,554,0,Training
82,5,2,3,4,1,2,400,1,3,1,1,3,407,1,Training
82,5,3,3,4,1,2,400,1,4,2,1,4,370,1,Training
82,5,4,3,4,1,2,400,1,2,4,1,2,593,1,Training
82,5,5,3,4,1,2,400,1,4,2,1,4,510,1,Training
82,5,6,3,4,1,2,400,1,2,4,1,2,498,1,Training
82,5,7,3,4,1,2,400,1,4,2,1,4,365,1,Training
82,5,8,3,4,1,2,400,1,1,3,1,1,522,1,Training
82,5,9,3,4,1,2,400,1,4,2,1,4,364,1,Training
82,5,10,3,4,1,2,400,1,4,2,1,4,465,1,Training
82,5,11,3,4,1,2,400,1,2,2,0,2,491,1,Training
82,5,12,3,4,1,2,400,1,3,1,1,4,441,0,Training
82,5,13,3,4,1,2,400,1,3,2,0,3,501,1,Training
82,5,14,3,4,1,2,400,1,1,3,1,2,503,0,Training
82,5,15,3,4,1,2,400,1,4,2,1,4,499,1,Training
82,5,16,3,4,1,2,400,1,1,3,1,1,479,1,Training
82,5,17,3,4,1,2,400,1,4,3,0,4,480,1,Training
82,5,18,3,4,1,2,400,1,2,3,0,2,567,1,Training
82,5,19,3,4,1,2,400,1,4,2,1,4,449,1,Training
82,5,20,3,4,1,2,400,1,2,4,1,2,508,1,Training
82,6,1,3,4,1,2,400,1,1,3,1,1,474,1,Training
82,6,2,3,4,1,2,400,1,4,2,1,4,445,1,Training
82,6,3,3,4,1,2,400,1,1,3,1,1,451,1,Training
82,6,4,3,4,1,2,400,1,3,1,1,3,546,1,Training
82,6,5,3,4,1,2,400,1,1,3,1,1,492,1,Training
82,6,6,3,4,1,2,400,1,4,2,1,4,462,1,Training
82,6,7,3,4,1,2,400,1,3,1,1,3,414,1,Training
82,6,8,3,4,1,2,400,1,4,2,1,4,450,1,Training
82,6,9,3,4,1,2,400,1,3,1,1,3,507,1,Training
82,6,10,3,4,1,2,400,1,1,3,1,1,462,1,Training
82,6,11,3,4,1,2,400,1,1,3,1,1,433,1,Training
82,6,12,3,4,1,2,400,1,1,3,1,1,380,1,Training
82,6,13,3,4,1,2,400,1,4,2,1,4,384,1,Training
82,6,14,3,4,1,2,400,1,2,4,1,2,523,1,Training
82,6,15,3,4,1,2,400,1,2,4,1,2,512,1,Training
82,6,16,3,4,1,2,400,1,3,1,1,3,466,1,Training
82,6,17,3,4,1,2,400,1,4,2,1,4,393,1,Training
82,6,18,3,4,1,2,400,1,4,2,1,4,359,1,Training
82,6,19,3,4,1,2,400,1,1,3,1,1,352,1,Training
82,6,20,3,4,1,2,400,1,4,2,1,4,416,1,Training
82,7,1,3,4,1,2,400,1,2,4,1,2,494,1,Training
82,7,2,3,4,1,2,400,1,4,2,1,4,431,1,Training
82,7,3,3,4,1,2,400,1,1,3,1,1,405,1,Training
82,7,4,3,4,1,2,400,1,2,4,1,2,505,1,Training
82,7,5,3,4,1,2,400,1,1,3,1,1,426,1,Training
82,7,6,3,4,1,2,400,1,1,3,1,1,476,1,Training
82,7,7,3,4,1,2,400,1,4,2,1,4,564,1,Training
82,7,8,3,4,1,2,400,1,4,2,1,4,392,1,Training
82,7,9,3,4,1,2,400,1,2,4,1,2,384,1,Training
82,7,10,3,4,1,2,400,1,1,3,1,1,448,1,Training
82,7,11,3,4,1,2,400,1,1,3,1,1,319,1,Training
82,7,12,3,4,1,2,400,1,4,4,0,4,363,1,Training
82,7,13,3,4,1,2,400,1,2,4,1,1,477,0,Training
82,7,14,3,4,1,2,400,1,2,4,1,2,484,1,Training
82,7,15,3,4,1,2,400,1,4,2,1,4,475,1,Training
82,7,16,3,4,1,2,400,1,1,3,1,1,456,1,Training
82,7,17,3,4,1,2,400,1,2,4,1,2,446,1,Training
82,7,18,3,4,1,2,400,1,4,2,1,4,422,1,Training
82,7,19,3,4,1,2,400,1,1,1,0,1,428,1,Training
82,7,20,3,4,1,2,400,1,4,2,1,4,436,1,Training
82,8,1,3,4,1,2,400,1,3,1,1,3,553,1,Training
82,8,2,3,4,1,2,400,1,4,2,1,4,406,1,Training
82,8,3,3,4,1,2,400,1,1,3,1,1,485,1,Training
82,8,4,3,4,1,2,400,1,3,2,0,3,444,1,Training
82,8,5,3,4,1,2,400,1,4,2,1,4,399,1,Training
82,8,6,3,4,1,2,400,1,2,4,1,2,467,1,Training
82,8,7,3,4,1,2,400,1,2,4,1,2,478,1,Training
82,8,8,3,4,1,2,400,1,2,4,1,2,458,1,Training
82,8,9,3,4,1,2,400,1,1,3,1,1,481,1,Training
82,8,10,3,4,1,2,400,1,1,3,1,1,458,1,Training
82,8,11,3,4,1,2,400,1,1,3,1,1,351,1,Training
82,8,12,3,4,1,2,400,1,4,2,1,4,493,1,Training
82,8,13,3,4,1,2,400,1,1,1,0,1,534,1,Training
82,8,14,3,4,1,2,400,1,4,2,1,4,468,1,Training
82,8,15,3,4,1,2,400,1,2,4,1,2,477,1,Training
82,8,16,3,4,1,2,400,1,2,4,1,2,457,1,Training
82,8,17,3,4,1,2,400,1,1,3,1,1,426,1,Training
82,8,18,3,4,1,2,400,1,3,1,1,3,530,1,Training
82,8,19,3,4,1,2,400,1,4,2,1,4,403,1,Training
82,8,20,3,4,1,2,400,1,1,3,1,1,380,1,Training
82,9,1,3,4,1,2,400,1,1,3,1,1,398,1,Training
82,9,2,3,4,1,2,400,1,1,3,1,1,344,1,Training
82,9,3,3,4,1,2,400,1,1,3,1,1,382,1,Training
82,9,4,3,4,1,2,400,1,4,2,1,4,395,1,Training
82,9,5,3,4,1,2,400,1,3,1,1,3,487,1,Training
82,9,6,3,4,1,2,400,1,3,1,1,3,451,1,Training
82,9,7,3,4,1,2,400,1,1,3,1,1,392,1,Training
82,9,8,3,4,1,2,400,1,1,3,1,1,431,1,Training
82,9,9,3,4,1,2,400,1,4,2,1,4,471,1,Training
82,9,10,3,4,1,2,400,1,3,1,1,3,545,1,Training
82,9,11,3,4,1,2,400,1,2,4,1,3,454,0,Training
82,9,12,3,4,1,2,400,1,4,2,1,4,484,1,Training
82,9,13,3,4,1,2,400,1,1,3,1,1,523,1,Training
82,9,14,3,4,1,2,400,1,1,3,1,1,434,1,Training
82,9,15,3,4,1,2,400,1,1,3,1,1,392,1,Training
82,9,16,3,4,1,2,400,1,4,4,0,4,491,1,Training
82,9,17,3,4,1,2,400,1,3,1,1,3,465,1,Training
82,9,18,3,4,1,2,400,1,2,4,1,2,390,1,Training
82,9,19,3,4,1,2,400,1,4,2,1,4,525,1,Training
82,9,20,3,4,1,2,400,1,3,1,1,3,422,1,Training
82,10,1,3,4,1,2,400,1,2,4,1,2,475,1,Training
82,10,2,3,4,1,2,400,1,3,1,1,3,445,1,Training
82,10,3,3,4,1,2,400,1,2,4,1,2,446,1,Training
82,10,4,3,4,1,2,400,1,1,3,1,1,427,1,Training
82,10,5,3,4,1,2,400,1,3,1,1,4,440,0,Training
82,10,6,3,4,1,2,400,1,3,1,1,3,390,1,Training
82,10,7,3,4,1,2,400,1,4,3,0,4,438,1,Training
82,10,8,3,4,1,2,400,1,2,4,1,2,498,1,Training
82,10,9,3,4,1,2,400,1,1,3,1,1,253,1,Training
82,10,10,3,4,1,2,400,1,2,4,1,2,440,1,Training
82,10,11,3,4,1,2,400,1,4,3,0,4,414,1,Training
82,10,12,3,4,1,2,400,1,1,3,1,2,440,0,Training
82,10,13,3,4,1,2,400,1,2,4,1,2,341,1,Training
82,10,14,3,4,1,2,400,1,2,2,0,2,423,1,Training
82,10,15,3,4,1,2,400,1,4,2,1,4,471,1,Training
82,10,16,3,4,1,2,400,1,1,3,1,1,422,1,Training
82,10,17,3,4,1,2,400,1,3,1,1,3,456,1,Training
82,10,18,3,4,1,2,400,1,3,1,1,3,517,1,Training
82,10,19,3,4,1,2,400,1,4,2,1,4,472,1,Training
82,10,20,3,4,1,2,400,1,1,3,1,1,469,1,Training
82,11,1,3,4,1,2,400,1,4,1,0,4,443,1,Training
82,11,2,3,4,1,2,400,1,2,4,1,2,404,1,Training
82,11,3,3,4,1,2,400,1,1,3,1,1,373,1,Training
82,11,4,3,4,1,2,400,1,3,1,1,3,527,1,Training
82,11,5,3,4,1,2,400,1,2,4,1,2,491,1,Training
82,11,6,3,4,1,2,400,1,2,4,1,2,481,1,Training
82,11,7,3,4,1,2,400,1,3,1,1,3,470,1,Training
82,11,8,3,4,1,2,400,1,3,1,1,3,548,1,Training
82,11,9,3,4,1,2,400,1,3,1,1,3,333,1,Training
82,11,10,3,4,1,2,400,1,3,1,1,3,327,1,Training
82,11,11,3,4,1,2,400,1,4,2,1,4,437,1,Training
82,11,12,3,4,1,2,400,1,3,1,1,3,472,1,Training
82,11,13,3,4,1,2,400,1,2,4,1,2,413,1,Training
82,11,14,3,4,1,2,400,1,3,1,1,2,366,0,Training
82,11,15,3,4,1,2,400,1,1,3,1,1,544,1,Training
82,11,16,3,4,1,2,400,1,2,4,1,2,352,1,Training
82,11,17,3,4,1,2,400,1,1,3,1,3,389,0,Training
82,11,18,3,4,1,2,400,1,1,3,1,1,295,1,Training
82,11,19,3,4,1,2,400,1,2,4,1,2,443,1,Training
82,11,20,3,4,1,2,400,1,4,2,1,4,524,1,Training
82,12,1,3,4,1,2,400,1,2,4,1,2,446,1,Training
82,12,2,3,4,1,2,400,1,1,3,1,1,278,1,Training
82,12,3,3,4,1,2,400,1,4,2,1,4,370,1,Training
82,12,4,3,4,1,2,400,1,4,2,1,4,547,1,Training
82,12,5,3,4,1,2,400,1,4,2,1,4,462,1,Training
82,12,6,3,4,1,2,400,1,1,1,0,1,513,1,Training
82,12,7,3,4,1,2,400,1,2,4,1,2,408,1,Training
82,12,8,3,4,1,2,400,1,1,3,1,1,351,1,Training
82,12,9,3,4,1,2,400,1,2,4,1,1,553,0,Training
82,12,10,3,4,1,2,400,1,2,4,1,2,372,1,Training
82,12,11,3,4,1,2,400,1,2,4,1,2,382,1,Training
82,12,12,3,4,1,2,400,1,3,1,1,3,521,1,Training
82,12,13,3,4,1,2,400,1,3,1,1,3,336,1,Training
82,12,14,3,4,1,2,400,1,3,1,1,3,314,1,Training
82,12,15,3,4,1,2,400,1,4,2,1,4,336,1,Training
82,12,16,3,4,1,2,400,1,1,3,1,1,439,1,Training
82,12,17,3,4,1,2,400,1,4,2,1,3,536,0,Training
82,12,18,3,4,1,2,400,1,1,3,1,1,359,1,Training
82,12,19,3,4,1,2,400,1,1,3,1,1,485,1,Training
82,12,20,3,4,1,2,400,1,3,1,1,3,484,1,Training
82,13,1,3,4,1,2,400,1,2,4,1,2,504,1,Training
82,13,2,3,4,1,2,400,1,1,3,1,1,295,1,Training
82,13,3,3,4,1,2,400,1,4,2,1,4,432,1,Training
82,13,4,3,4,1,2,400,1,4,2,1,4,429,1,Training
82,13,5,3,4,1,2,400,1,4,2,1,4,422,1,Training
82,13,6,3,4,1,2,400,1,3,4,0,3,488,1,Training
82,13,7,3,4,1,2,400,1,1,3,1,1,337,1,Training
82,13,8,3,4,1,2,400,1,2,4,1,2,340,1,Training
82,13,9,3,4,1,2,400,1,3,1,1,3,459,1,Training
82,13,10,3,4,1,2,400,1,4,2,1,4,404,1,Training
82,13,11,3,4,1,2,400,1,4,2,1,4,476,1,Training
82,13,12,3,4,1,2,400,1,2,3,0,2,518,1,Training
82,13,13,3,4,1,2,400,1,1,3,1,1,335,1,Training
82,13,14,3,4,1,2,400,1,3,1,1,4,438,0,Training
82,13,15,3,4,1,2,400,1,4,1,0,4,283,1,Training
82,13,16,3,4,1,2,400,1,2,4,1,2,568,1,Training
82,13,17,3,4,1,2,400,1,2,4,1,2,375,1,Training
82,13,18,3,4,1,2,400,1,3,1,1,3,473,1,Training
82,13,19,3,4,1,2,400,1,4,2,1,4,428,1,Training
82,13,20,3,4,1,2,400,1,2,4,1,2,471,1,Training
82,14,1,3,4,1,2,400,1,3,2,0,3,471,1,Training
82,14,2,3,4,1,2,400,1,2,4,1,2,517,1,Training
82,14,3,3,4,1,2,400,1,4,2,1,4,485,1,Training
82,14,4,3,4,1,2,400,1,1,3,1,1,370,1,Training
82,14,5,3,4,1,2,400,1,3,1,1,3,444,1,Training
82,14,6,3,4,1,2,400,1,1,3,1,1,548,1,Training
82,14,7,3,4,1,2,400,1,4,2,1,4,475,1,Training
82,14,8,3,4,1,2,400,1,4,2,1,4,464,1,Training
82,14,9,3,4,1,2,400,1,1,3,1,1,601,1,Training
82,14,10,3,4,1,2,400,1,4,2,1,4,543,1,Training
82,14,11,3,4,1,2,400,1,4,2,1,4,451,1,Training
82,14,12,3,4,1,2,400,1,4,2,1,4,392,1,Training
82,14,13,3,4,1,2,400,1,1,3,1,1,477,1,Training
82,14,14,3,4,1,2,400,1,2,4,1,2,501,1,Training
82,14,15,3,4,1,2,400,1,4,2,1,4,459,1,Training
82,14,16,3,4,1,2,400,1,4,2,1,4,437,1,Training
82,14,17,3,4,1,2,400,1,3,1,1,3,581,1,Training
82,14,18,3,4,1,2,400,1,2,4,1,2,582,1,Training
82,14,19,3,4,1,2,400,1,1,3,1,1,556,1,Training
82,14,20,3,4,1,2,400,1,4,2,1,4,371,1,Training
82,15,1,3,4,1,2,400,1,1,3,1,1,461,1,Training
82,15,2,3,4,1,2,400,1,1,3,1,1,408,1,Training
82,15,3,3,4,1,2,400,1,3,1,1,4,395,0,Training
82,15,4,3,4,1,2,400,1,3,1,1,3,393,1,Training
82,15,5,3,4,1,2,400,1,1,1,0,1,484,1,Training
82,15,6,3,4,1,2,400,1,1,3,1,1,378,1,Training
82,15,7,3,4,1,2,400,1,1,3,1,1,393,1,Training
82,15,8,3,4,1,2,400,1,3,1,1,3,460,1,Training
82,15,9,3,4,1,2,400,1,1,3,1,1,544,1,Training
82,15,10,3,4,1,2,400,1,3,1,1,3,422,1,Training
82,15,11,3,4,1,2,400,1,1,3,1,1,446,1,Training
82,15,12,3,4,1,2,400,1,4,2,1,4,502,1,Training
82,15,13,3,4,1,2,400,1,3,1,1,4,377,0,Training
82,15,14,3,4,1,2,400,1,3,1,1,3,399,1,Training
82,15,15,3,4,1,2,400,1,1,3,1,1,465,1,Training
82,15,16,3,4,1,2,400,1,2,4,1,2,341,1,Training
82,15,17,3,4,1,2,400,1,3,1,1,3,577,1,Training
82,15,18,3,4,1,2,400,1,4,1,0,4,488,1,Training
82,15,19,3,4,1,2,400,1,1,3,1,1,574,1,Training
82,15,20,3,4,1,2,400,1,1,3,1,1,510,1,Training
82,16,1,3,4,1,2,400,1,3,1,1,3,448,1,Training
82,16,2,3,4,1,2,400,1,1,3,1,1,429,1,Training
82,16,3,3,4,1,2,400,1,1,3,1,1,407,1,Training
82,16,4,3,4,1,2,400,1,2,4,1,2,479,1,Training
82,16,5,3,4,1,2,400,1,2,4,1,2,605,1,Training
82,16,6,3,4,1,2,400,1,1,3,1,1,381,1,Training
82,16,7,3,4,1,2,400,1,3,1,1,3,566,1,Training
82,16,8,3,4,1,2,400,1,1,3,1,1,456,1,Training
82,16,9,3,4,1,2,400,1,4,2,1,4,504,1,Training
82,16,10,3,4,1,2,400,1,4,4,0,4,510,1,Training
82,16,11,3,4,1,2,400,1,2,4,1,2,475,1,Training
82,16,12,3,4,1,2,400,1,4,2,1,4,466,1,Training
82,16,13,3,4,1,2,400,1,2,4,1,2,571,1,Training
82,16,14,3,4,1,2,400,1,1,3,1,2,382,0,Training
82,16,15,3,4,1,2,400,1,1,3,1,1,422,1,Training
82,16,16,3,4,1,2,400,1,2,4,1,2,395,1,Training
82,16,17,3,4,1,2,400,1,4,2,1,4,411,1,Training
82,16,18,3,4,1,2,400,1,2,4,1,2,349,1,Training
82,16,19,3,4,1,2,400,1,3,1,1,3,441,1,Training
82,16,20,3,4,1,2,400,1,4,2,1,4,361,1,Training
82,18,1,3,4,1,2,400,1,4,2,1,1,383,0,Skill
82,18,2,3,4,1,2,400,1,4,1,0,4,643,1,Skill
82,18,3,3,4,1,2,400,1,2,1,0,2,545,1,Skill
82,18,4,3,4,1,2,400,1,2,3,0,2,400,1,Skill
82,18,5,3,4,1,2,400,1,2,3,0,2,391,1,Skill
82,18,6,3,4,1,2,400,1,4,3,0,4,430,1,Skill
82,18,7,3,4,1,2,400,1,1,3,1,1,474,1,Skill
82,18,8,3,4,1,2,400,1,2,2,0,2,463,1,Skill
82,18,9,3,4,1,2,400,1,4,1,0,4,460,1,Skill
82,18,10,3,4,1,2,400,1,4,3,0,4,384,1,Skill
82,18,11,3,4,1,2,400,1,2,1,0,2,462,1,Skill
82,18,12,3,4,1,2,400,1,1,4,0,1,302,1,Skill
82,18,13,3,4,1,2,400,1,3,3,0,3,681,1,Skill
82,18,14,3,4,1,2,400,1,3,4,0,3,482,1,Skill
82,18,15,3,4,1,2,400,1,3,2,0,3,433,1,Skill
82,18,16,3,4,1,2,400,1,1,3,1,1,474,1,Skill
82,18,17,3,4,1,2,400,1,3,2,0,3,503,1,Skill
82,18,18,3,4,1,2,400,1,2,1,0,2,441,1,Skill
82,18,19,3,4,1,2,400,1,4,3,0,4,483,1,Skill
82,18,20,3,4,1,2,400,1,1,4,0,1,500,1,Skill
82,19,1,3,4,1,2,400,1,4,4,0,4,425,1,Skill
82,19,2,3,4,1,2,400,1,2,3,0,2,472,1,Skill
82,19,3,3,4,1,2,400,1,2,2,0,2,437,1,Skill
82,19,4,3,4,1,2,400,1,4,4,0,4,411,1,Skill
82,19,5,3,4,1,2,400,1,2,1,0,2,536,1,Skill
82,19,6,3,4,1,2,400,1,2,4,1,2,361,1,Skill
82,19,7,3,4,1,2,400,1,1,3,1,1,447,1,Skill
82,19,8,3,4,1,2,400,1,2,1,0,2,403,1,Skill
82,19,9,3,4,1,2,400,1,1,3,1,1,345,1,Skill
82,19,10,3,4,1,2,400,1,3,1,1,3,541,1,Skill
82,19,11,3,4,1,2,400,1,2,2,0,2,501,1,Skill
82,19,12,3,4,1,2,400,1,2,4,1,2,466,1,Skill
82,19,13,3,4,1,2,400,1,3,2,0,4,460,0,Skill
82,19,14,3,4,1,2,400,1,2,3,0,2,461,1,Skill
82,19,15,3,4,1,2,400,1,2,2,0,2,352,1,Skill
82,19,16,3,4,1,2,400,1,2,1,0,2,357,1,Skill
82,19,17,3,4,1,2,400,1,4,4,0,4,438,1,Skill
82,19,18,3,4,1,2,400,1,1,2,0,1,548,1,Skill
82,19,19,3,4,1,2,400,1,4,1,0,4,568,1,Skill
82,19,20,3,4,1,2,400,1,3,3,0,3,524,1,Skill
82,20,1,3,4,1,2,400,1,3,3,0,3,478,1,Skill
82,20,2,3,4,1,2,400,1,1,2,0,1,504,1,Skill
82,20,3,3,4,1,2,400,1,4,4,0,4,465,1,Skill
82,20,4,3,4,1,2,400,1,4,1,0,4,525,1,Skill
82,20,5,3,4,1,2,400,1,2,1,0,2,494,1,Skill
82,20,6,3,4,1,2,400,1,2,3,0,2,505,1,Skill
82,20,7,3,4,1,2,400,1,2,4,1,2,376,1,Skill
82,20,8,3,4,1,2,400,1,1,2,0,1,365,1,Skill
82,20,9,3,4,1,2,400,1,1,1,0,1,627,1,Skill
82,20,10,3,4,1,2,400,1,3,4,0,3,482,1,Skill
82,20,11,3,4,1,2,400,1,2,4,1,2,384,1,Skill
82,20,12,3,4,1,2,400,1,2,2,0,1,436,0,Skill
82,20,13,3,4,1,2,400,1,2,4,1,2,451,1,Skill
82,20,14,3,4,1,2,400,1,3,4,0,3,461,1,Skill
82,20,15,3,4,1,2,400,1,1,2,0,1,435,1,Skill
82,20,16,3,4,1,2,400,1,4,3,0,4,482,1,Skill
82,20,17,3,4,1,2,400,1,4,4,0,4,435,1,Skill
82,20,18,3,4,1,2,400,1,4,3,0,4,330,1,Skill
82,20,19,3,4,1,2,400,1,4,3,0,4,379,1,Skill
82,20,20,3,4,1,2,400,1,3,4,0,3,465,1,Skill
82,21,1,3,4,1,2,400,1,2,3,0,2,522,1,Skill
82,21,2,3,4,1,2,400,1,3,1,1,3,458,1,Skill
82,21,3,3,4,1,2,400,1,4,1,0,4,426,1,Skill
82,21,4,3,4,1,2,400,1,4,1,0,4,404,1,Skill
82,21,5,3,4,1,2,400,1,2,1,0,2,469,1,Skill
82,21,6,3,4,1,2,400,1,3,2,0,3,376,1,Skill
82,21,7,3,4,1,2,400,1,3,1,1,3,412,1,Skill
82,21,8,3,4,1,2,400,1,1,2,0,1,393,1,Skill
82,21,9,3,4,1,2,400,1,4,4,0,3,376,0,Skill
82,21,10,3,4,1,2,400,1,2,3,0,2,500,1,Skill
82,21,11,3,4,1,2,400,1,4,1,0,4,441,1,Skill
82,21,12,3,4,1,2,400,1,1,2,0,1,556,1,Skill
82,21,13,3,4,1,2,400,1,3,4,0,4,433,0,Skill
82,21,14,3,4,1,2,400,1,4,3,0,4,373,1,Skill
82,21,15,3,4,1,2,400,1,4,1,0,4,503,1,Skill
82,21,16,3,4,1,2,400,1,1,4,0,2,456,0,Skill
82,21,17,3,4,1,2,400,1,1,3,1,1,613,1,Skill
82,21,18,3,4,1,2,400,1,4,3,0,4,436,1,Skill
82,21,19,3,4,1,2,400,1,4,4,0,4,391,1,Skill
82,21,20,3,4,1,2,400,1,1,4,0,1,450,1,Skill
82,17,1,3,4,1,2,400,1,4,2,1,4,1051,1,Inference
82,17,2,3,4,1,2,400,1,1,3,1,1,989,1,Inference
82,17,3,3,4,1,2,400,1,3,1,1,2,822,0,Inference
82,17,4,3,4,1,2,400,1,2,4,1,4,552,0,Inference
82,17,5,3,4,1,2,400,1,3,1,1,3,490,1,Inference
82,17,6,3,4,1,2,400,1,1,3,1,4,234,0,Inference
82,17,7,3,4,1,2,400,1,2,4,1,2,236,1,Inference
82,17,8,3,4,1,2,400,1,4,2,1,1,260,0,Inference
82,17,9,3,4,1,2,400,1,3,1,1,3,267,1,Inference
82,17,10,3,4,1,2,400,1,1,3,1,2,262,0,Inference
82,17,11,3,4,1,2,400,1,2,4,1,4,259,0,Inference
82,17,12,3,4,1,2,400,1,4,2,1,3,229,0,Inference
80,1,1,1,3,2,4,-400,1,2,4,0,2,2359,1,Training
80,1,2,1,3,2,4,-400,1,2,3,1,2,1350,1,Training
80,1,3,1,3,2,4,-400,1,3,2,1,4,1422,0,Training
80,1,4,1,3,2,4,-400,1,4,4,1,4,2614,1,Training
80,1,5,1,3,2,4,-400,1,1,1,1,1,896,1,Training
80,1,6,1,3,2,4,-400,1,1,1,1,1,487,1,Training
80,1,7,1,3,2,4,-400,1,1,1,1,1,330,1,Training
80,1,8,1,3,2,4,-400,1,2,3,1,2,437,1,Training
80,1,9,1,3,2,4,-400,1,1,1,1,1,533,1,Training
80,1,10,1,3,2,4,-400,1,3,2,1,3,681,1,Training
80,1,11,1,3,2,4,-400,1,1,1,1,1,542,1,Training
80,1,12,1,3,2,4,-400,1,1,1,1,1,387,1,Training
80,1,13,1,3,2,4,-400,1,2,3,1,2,474,1,Training
80,1,14,1,3,2,4,-400,1,1,1,1,1,382,1,Training
80,1,15,1,3,2,4,-400,1,2,3,1,1,792,0,Training
80,1,16,1,3,2,4,-400,1,4,4,1,4,496,1,Training
80,1,17,1,3,2,4,-400,1,4,4,1,4,412,1,Training
80,1,18,1,3,2,4,-400,1,1,1,1,1,545,1,Training
80,1,19,1,3,2,4,-400,1,2,3,1,2,474,1,Training
80,1,20,1,3,2,4,-400,1,3,2,1,3,527,1,Training
80,2,1,1,3,2,4,-400,1,1,1,1,1,465,1,Training
80,2,2,1,3,2,4,-400,1,4,4,1,4,406,1,Training
80,2,3,1,3,2,4,-400,1,1,1,1,1,400,1,Training
80,2,4,1,3,2,4,-400,1,4,4,1,4,461,1,Training
80,2,5,1,3,2,4,-400,1,2,3,1,2,622,1,Training
80,2,6,1,3,2,4,-400,1,1,1,1,1,374,1,Training
80,2,7,1,3,2,4,-400,1,2,3,1,2,457,1,Training
80,2,8,1,3,2,4,-400,1,4,4,1,4,438,1,Training
80,2,9,1,3,2,4,-400,1,2,3,1,2,489,1,Training
80,2,10,1,3,2,4,-400,1,4,4,1,4,408,1,Training
80,2,11,1,3,2,4,-400,1,2,3,1,2,663,1,Training
80,2,12,1,3,2,4,-400,1,3,2,1,3,764,1,Training
80,2,13,1,3,2,4,-400,1,4,4,1,4,497,1,Training
80,2,14,1,3,2,4,-400,1,4,4,1,4,519,1,Training
80,2,15,1,3,2,4,-400,1,1,1,1,1,380,1,Training
80,2,16,1,3,2,4,-400,1,3,2,1,3,578,1,Training
80,2,17,1,3,2,4,-400,1,1,1,1,1,529,1,Training
80,2,18,1,3,2,4,-400,1,2,3,1,2,545,1,Training
80,2,19,1,3,2,4,-400,1,1,1,1,1,363,1,Training
80,2,20,1,3,2,4,-400,1,2,3,1,2,413,1,Training
80,3,1,1,3,2,4,-400,1,2,3,1,2,422,1,Training
80,3,2,1,3,2,4,-400,1,1,1,1,1,329,1,Training
80,3,3,1,3,2,4,-400,1,3,2,1,3,552,1,Training
80,3,4,1,3,2,4,-400,1,1,1,1,1,397,1,Training
80,3,5,1,3,2,4,-400,1,3,4,0,3,491,1,Training
80,3,6,1,3,2,4,-400,1,1,1,1,2,448,0,Training
80,3,7,1,3,2,4,-400,1,2,3,1,2,479,1,Training
80,3,8,1,3,2,4,-400,1,3,2,1,2,519,0,Training
80,3,9,1,3,2,4,-400,1,4,4,1,4,772,1,Training
80,3,10,1,3,2,4,-400,1,2,3,1,2,562,1,Training
80,3,11,1,3,2,4,-400,1,2,3,1,2,329,1,Training
80,3,12,1,3,2,4,-400,1,3,2,1,3,542,1,Training
80,3,13,1,3,2,4,-400,1,1,1,1,2,419,0,Training
80,3,14,1,3,2,4,-400,1,3,2,1,3,423,1,Training
80,3,15,1,3,2,4,-400,1,2,3,1,2,397,1,Training
80,3,16,1,3,2,4,-400,1,4,4,1,4,593,1,Training
80,3,17,1,3,2,4,-400,1,1,1,1,1,295,1,Training
80,3,18,1,3,2,4,-400,1,2,3,1,2,340,1,Training
80,3,19,1,3,2,4,-400,1,4,4,1,4,439,1,Training
80,3,20,1,3,2,4,-400,1,2,3,1,2,314,1,Training
80,4,1,1,3,2,4,-400,1,3,2,1,3,518,1,Training
80,4,2,1,3,2,4,-400,1,4,4,1,4,342,1,Training
80,4,3,1,3,2,4,-400,1,1,1,1,1,82,1,Training
80,4,4,1,3,2,4,-400,1,2,3,1,2,316,1,Training
80,4,5,1,3,2,4,-400,1,2,3,1,2,120,1,Training
80,4,6,1,3,2,4,-400,1,2,3,1,2,-106,1,Training
80,4,7,1,3,2,4,-400,1,1,1,1,1,40,1,Training
80,4,8,1,3,2,4,-400,1,1,1,1,1,-159,1,Training
80,4,9,1,3,2,4,-400,1,1,1,1,1,157,1,Training
80,4,10,1,3,2,4,-400,1,2,3,1,2,51,1,Training
80,4,11,1,3,2,4,-400,1,3,2,1,3,25,1,Training
80,4,12,1,3,2,4,-400,1,2,3,1,1,63,0,Training
80,4,13,1,3,2,4,-400,1,4,4,1,4,150,1,Training
80,4,14,1,3,2,4,-400,1,1,1,1,1,36,1,Training
80,4,15,1,3,2,4,-400,1,1,1,1,1,-157,1,Training
80,4,16,1,3,2,4,-400,1,1,1,1,1,-82,1,Training
80,4,17,1,3,2,4,-400,1,2,1,0,1,-183,0,Training
80,4,18,1,3,2,4,-400,1,1,1,1,1,384,1,Training
80,4,19,1,3,2,4,-400,1,3,2,1,3,502,1,Training
80,4,20,1,3,2,4,-400,1,3,2,1,3,274,1,Training
80,5,1,1,3,2,4,-400,1,2,1,0,1,130,0,Training
80,5,2,1,3,2,4,-400,1,2,3,1,2,318,1,Training
80,5,3,1,3,2,4,-400,1,4,4,1,4,292,1,Training
80,5,4,1,3,2,4,-400,1,1,1,1,1,268,1,Training
80,5,5,1,3,2,4,-400,1,2,3,1,2,406,1,Training
80,5,6,1,3,2,4,-400,1,2,3,1,2,285,1,Training
80,5,7,1,3,2,4,-400,1,4,4,1,4,350,1,Training
80,5,8,1,3,2,4,-400,1,4,4,1,4,293,1,Training
80,5,9,1,3,2,4,-400,1,3,2,1,3,304,1,Training
80,5,10,1,3,2,4,-400,1,1,1,1,1,277,1,Training
80,5,11,1,3,2,4,-400,1,4,4,1,4,271,1,Training
80,5,12,1,3,2,4,-400,1,2,3,1,2,708,1,Training
80,5,13,1,3,2,4,-400,1,4,4,1,4,323,1,Training
80,5,14,1,3,2,4,-400,1,2,3,1,2,202,1,Training
80,5,15,1,3,2,4,-400,1,4,4,1,4,386,1,Training
80,5,16,1,3,2,4,-400,1,4,4,1,4,242,1,Training
80,5,17,1,3,2,4,-400,1,4,4,1,4,244,1,Training
80,5,18,1,3,2,4,-400,1,3,2,1,3,317,1,Training
80,5,19,1,3,2,4,-400,1,3,2,1,3,309,1,Training
80,5,20,1,3,2,4,-400,1,2,3,1,2,251,1,Training
80,6,1,1,3,2,4,-400,1,1,1,1,1,362,1,Training
80,6,2,1,3,2,4,-400,1,3,2,1,3,128,1,Training
80,6,3,1,3,2,4,-400,1,4,4,1,4,263,1,Training
80,6,4,1,3,2,4,-400,1,2,3,1,2,185,1,Training
80,6,5,1,3,2,4,-400,1,1,1,1,1,156,1,Training
80,6,6,1,3,2,4,-400,1,1,1,1,1,-164,1,Training
80,6,7,1,3,2,4,-400,1,2,3,1,2,18,1,Training
80,6,8,1,3,2,4,-400,1,3,2,1,3,80,1,Training
80,6,9,1,3,2,4,-400,1,4,4,1,4,26,1,Training
80,6,10,1,3,2,4,-400,1,1,1,1,2,-56,0,Training
80,6,11,1,3,2,4,-400,1,3,2,1,3,24,1,Training
80,6,12,1,3,2,4,-400,1,3,2,1,3,23,1,Training
80,6,13,1,3,2,4,-400,1,3,2,1,3,35,1,Training
80,6,14,1,3,2,4,-400,1,4,4,1,4,103,1,Training
80,6,15,1,3,2,4,-400,1,3,2,1,3,78,1,Training
80,6,16,1,3,2,4,-400,1,1,1,1,1,65,1,Training
80,6,17,1,3,2,4,-400,1,1,1,1,1,-84,1,Training
80,6,18,1,3,2,4,-400,1,3,1,0,1,-32,0,Training
80,6,19,1,3,2,4,-400,1,2,3,1,2,227,1,Training
80,6,20,1,3,2,4,-400,1,4,1,0,4,-74,1,Training
80,7,1,1,3,2,4,-400,1,4,1,0,1,252,0,Training
80,7,2,1,3,2,4,-400,1,2,3,1,2,229,1,Training
80,7,3,1,3,2,4,-400,1,1,1,1,1,556,1,Training
80,7,4,1,3,2,4,-400,1,1,1,1,1,298,1,Training
80,7,5,1,3,2,4,-400,1,1,1,1,1,-109,1,Training
80,7,6,1,3,2,4,-400,1,1,1,1,1,355,1,Training
80,7,7,1,3,2,4,-400,1,4,4,1,4,76,1,Training
80,7,8,1,3,2,4,-400,1,1,1,1,1,183,1,Training
80,7,9,1,3,2,4,-400,1,4,3,0,2,309,0,Training
80,7,10,1,3,2,4,-400,1,3,1,0,1,289,0,Training
80,7,11,1,3,2,4,-400,1,1,1,1,1,525,1,Training
80,7,12,1,3,2,4,-400,1,2,3,1,2,220,1,Training
80,7,13,1,3,2,4,-400,1,3,2,1,3,227,1,Training
80,7,14,1,3,2,4,-400,1,3,2,1,3,32,1,Training
80,7,15,1,3,2,4,-400,1,4,4,1,4,343,1,Training
80,7,16,1,3,2,4,-400,1,1,1,1,1,285,1,Training
80,7,17,1,3,2,4,-400,1,3,2,1,3,213,1,Training
80,7,18,1,3,2,4,-400,1,4,4,1,4,298,1,Training
80,7,19,1,3,2,4,-400,1,2,3,1,1,415,0,Training
80,7,20,1,3,2,4,-400,1,3,2,1,3,232,1,Training
80,8,1,1,3,2,4,-400,1,2,3,1,2,343,1,Training
80,8,2,1,3,2,4,-400,1,2,3,1,2,289,1,Training
80,8,3,1,3,2,4,-400,1,1,1,1,1,269,1,Training
80,8,4,1,3,2,4,-400,1,1,1,1,1,257,1,Training
80,8,5,1,3,2,4,-400,1,4,4,1,4,229,1,Training
80,8,6,1,3,2,4,-400,1,1,1,1,1,828,1,Training
80,8,7,1,3,2,4,-400,1,3,2,1,3,217,1,Training
80,8,8,1,3,2,4,-400,1,3,2,1,3,310,1,Training
80,8,9,1,3,2,4,-400,1,2,3,1,2,270,1,Training
80,8,10,1,3,2,4,-400,1,2,3,1,2,328,1,Training
80,8,11,1,3,2,4,-400,1,3,2,1,3,35,1,Training
80,8,12,1,3,2,4,-400,1,4,4,1,4,-43,1,Training
80,8,13,1,3,2,4,-400,1,3,2,1,3,-61,1,Training
80,8,14,1,3,2,4,-400,1,4,4,1,4,44,1,Training
80,8,15,1,3,2,4,-400,1,1,1,1,1,-177,1,Training
80,8,16,1,3,2,4,-400,1,3,2,1,3,83,1,Training
80,8,17,1,3,2,4,-400,1,3,2,1,3,29,1,Training
80,8,18,1,3,2,4,-400,1,2,3,1,3,-153,0,Training
80,8,19,1,3,2,4,-400,1,2,3,1,2,468,1,Training
80,8,20,1,3,2,4,-400,1,2,3,1,2,87,1,Training
80,9,1,1,3,2,4,-400,1,1,1,1,1,13,1,Training
80,9,2,1,3,2,4,-400,1,3,1,0,1,-390,0,Training
80,9,3,1,3,2,4,-400,1,1,1,1,1,-8,1,Training
80,9,4,1,3,2,4,-400,1,1,1,1,1,299,1,Training
80,9,5,1,3,2,4,-400,1,1,1,1,1,251,1,Training
80,9,6,1,3,2,4,-400,1,4,4,1,3,66,0,Training
80,9,7,1,3,2,4,-400,1,3,2,1,3,24,1,Training
80,9,8,1,3,2,4,-400,1,4,4,1,4,-87,1,Training
80,9,9,1,3,2,4,-400,1,3,2,1,3,37,1,Training
80,9,10,1,3,2,4,-400,1,4,4,1,4,16,1,Training
80,9,11,1,3,2,4,-400,1,4,4,1,4,-69,1,Training
80,9,12,1,3,2,4,-400,1,1,1,1,1,108,1,Training
80,9,13,1,3,2,4,-400,1,2,3,1,2,98,1,Training
80,9,14,1,3,2,4,-400,1,2,3,1,2,-93,1,Training
80,9,15,1,3,2,4,-400,1,4,4,1,4,79,1,Training
80,9,16,1,3,2,4,-400,1,3,2,1,3,64,1,Training
80,9,17,1,3,2,4,-400,1,1,1,1,1,49,1,Training
80,9,18,1,3,2,4,-400,1,4,4,1,4,54,1,Training
80,9,19,1,3,2,4,-400,1,2,3,1,2,29,1,Training
80,9,20,1,3,2,4,-400,1,2,1,0,1,-6,0,Training
80,10,1,1,3,2,4,-400,1,1,1,1,1,172,1,Training
80,10,2,1,3,2,4,-400,1,4,4,1,4,12,1,Training
80,10,3,1,3,2,4,-400,1,2,3,1,1,48,0,Training
80,10,4,1,3,2,4,-400,1,3,2,1,4,29,0,Training
80,10,5,1,3,2,4,-400,1,3,2,1,3,-14,1,Training
80,10,6,1,3,2,4,-400,1,1,1,1,1,34,1,Training
80,10,7,1,3,2,4,-400,1,2,3,1,2,41,1,Training
80,10,8,1,3,2,4,-400,1,2,3,1,2,33,1,Training
80,10,9,1,3,2,4,-400,1,3,2,1,3,26,1,Training
80,10,10,1,3,2,4,-400,1,2,3,1,2,-27,1,Training
80,10,11,1,3,2,4,-400,1,2,3,1,2,295,1,Training
80,10,12,1,3,2,4,-400,1,2,3,1,2,361,1,Training
80,10,13,1,3,2,4,-400,1,2,3,1,2,344,1,Training
80,10,14,1,3,2,4,-400,1,1,1,1,1,12,1,Training
80,10,15,1,3,2,4,-400,1,2,3,1,2,26,1,Training
80,10,16,1,3,2,4,-400,1,1,1,1,1,76,1,Training
80,10,17,1,3,2,4,-400,1,3,2,1,3,209,1,Training
80,10,18,1,3,2,4,-400,1,3,4,0,4,371,0,Training
80,10,19,1,3,2,4,-400,1,3,2,1,3,198,1,Training
80,10,20,1,3,2,4,-400,1,4,4,1,4,330,1,Training
80,11,1,1,3,2,4,-400,1,3,2,1,3,266,1,Training
80,11,2,1,3,2,4,-400,1,1,1,1,1,68,1,Training
80,11,3,1,3,2,4,-400,1,1,1,1,1,-70,1,Training
80,11,4,1,3,2,4,-400,1,3,2,1,3,69,1,Training
80,11,5,1,3,2,4,-400,1,2,3,1,2,330,1,Training
80,11,6,1,3,2,4,-400,1,3,2,1,2,316,0,Training
80,11,7,1,3,2,4,-400,1,4,4,1,4,472,1,Training
80,11,8,1,3,2,4,-400,1,3,1,0,1,63,0,Training
80,11,9,1,3,2,4,-400,1,2,3,1,2,444,1,Training
80,11,10,1,3,2,4,-400,1,2,3,1,2,-146,1,Training
80,11,11,1,3,2,4,-400,1,3,2,1,3,83,1,Training
80,11,12,1,3,2,4,-400,1,3,2,1,3,97,1,Training
80,11,13,1,3,2,4,-400,1,3,2,1,3,120,1,Training
80,11,14,1,3,2,4,-400,1,2,3,1,2,236,1,Training
80,11,15,1,3,2,4,-400,1,3,4,0,4,116,0,Training
80,11,16,1,3,2,4,-400,1,2,3,1,2,612,1,Training
80,11,17,1,3,2,4,-400,1,2,3,1,2,378,1,Training
80,11,18,1,3,2,4,-400,1,1,1,1,1,159,1,Training
80,11,19,1,3,2,4,-400,1,1,1,1,1,4,1,Training
80,11,20,1,3,2,4,-400,1,4,4,1,4,319,1,Training
80,12,1,1,3,2,4,-400,1,2,3,1,2,1091,1,Training
80,12,2,1,3,2,4,-400,1,1,4,0,4,160,0,Training
80,12,3,1,3,2,4,-400,1,2,3,1,2,554,1,Training
80,12,4,1,3,2,4,-400,1,1,1,1,1,209,1,Training
80,12,5,1,3,2,4,-400,1,4,4,1,4,419,1,Training
80,12,6,1,3,2,4,-400,1,1,1,1,1,786,1,Training
80,12,7,1,3,2,4,-400,1,4,4,1,4,2763,1,Training
80,12,8,1,3,2,4,-400,1,3,2,1,3,173,1,Training
80,12,9,1,3,2,4,-400,1,2,3,1,2,101,1,Training
80,12,10,1,3,2,4,-400,1,2,3,1,2,-187,1,Training
80,12,11,1,3,2,4,-400,1,3,2,1,4,106,0,Training
80,12,12,1,3,2,4,-400,1,4,4,1,4,1,1,Training
80,12,13,1,3,2,4,-400,1,3,3,0,2,5,0,Training
80,12,14,1,3,2,4,-400,1,2,3,1,2,-115,1,Training
80,12,15,1,3,2,4,-400,1,1,1,1,1,64,1,Training
80,12,16,1,3,2,4,-400,1,4,4,1,4,101,1,Training
80,12,17,1,3,2,4,-400,1,3,2,1,3,28,1,Training
80,12,18,1,3,2,4,-400,1,4,4,1,1,-42,0,Training
80,12,19,1,3,2,4,-400,1,2,1,0,1,51,0,Training
80,12,20,1,3,2,4,-400,1,2,3,1,2,263,1,Training
80,13,1,1,3,2,4,-400,1,2,3,1,2,342,1,Training
80,13,2,1,3,2,4,-400,1,4,4,1,4,164,1,Training
80,13,3,1,3,2,4,-400,1,1,1,1,1,484,1,Training
80,13,4,1,3,2,4,-400,1,1,1,1,1,84,1,Training
80,13,5,1,3,2,4,-400,1,2,3,1,2,50,1,Training
80,13,6,1,3,2,4,-400,1,4,4,1,4,173,1,Training
80,13,7,1,3,2,4,-400,1,3,2,1,3,45,1,Training
80,13,8,1,3,2,4,-400,1,4,4,1,4,-4,1,Training
80,13,9,1,3,2,4,-400,1,2,3,1,2,283,1,Training
80,13,10,1,3,2,4,-400,1,1,1,1,1,133,1,Training
80,13,11,1,3,2,4,-400,1,2,3,1,2,180,1,Training
80,13,12,1,3,2,4,-400,1,3,2,1,3,84,1,Training
80,13,13,1,3,2,4,-400,1,4,4,1,4,256,1,Training
80,13,14,1,3,2,4,-400,1,1,1,1,1,70,1,Training
80,13,15,1,3,2,4,-400,1,3,2,1,3,7,1,Training
80,13,16,1,3,2,4,-400,1,3,2,1,3,23,1,Training
80,13,17,1,3,2,4,-400,1,3,4,0,4,-83,0,Training
80,13,18,1,3,2,4,-400,1,2,3,1,2,501,1,Training
80,13,19,1,3,2,4,-400,1,2,3,1,2,-43,1,Training
80,13,20,1,3,2,4,-400,1,1,1,1,1,-34,1,Training
80,14,1,1,3,2,4,-400,1,4,4,1,4,498,1,Training
80,14,2,1,3,2,4,-400,1,2,3,1,2,202,1,Training
80,14,3,1,3,2,4,-400,1,3,2,1,3,-24,1,Training
80,14,4,1,3,2,4,-400,1,4,4,1,3,-40,0,Training
80,14,5,1,3,2,4,-400,1,4,4,1,4,0,1,Training
80,14,6,1,3,2,4,-400,1,4,4,1,4,-188,1,Training
80,14,7,1,3,2,4,-400,1,2,3,1,1,69,0,Training
80,14,8,1,3,2,4,-400,1,4,4,1,4,69,1,Training
80,14,9,1,3,2,4,-400,1,1,1,1,1,27,1,Training
80,14,10,1,3,2,4,-400,1,1,1,1,1,-88,1,Training
80,14,11,1,3,2,4,-400,1,4,4,1,4,135,1,Training
80,14,12,1,3,2,4,-400,1,3,2,1,1,-39,0,Training
80,14,13,1,3,2,4,-400,1,4,4,1,4,-72,1,Training
80,14,14,1,3,2,4,-400,1,4,4,1,3,97,0,Training
80,14,15,1,3,2,4,-400,1,4,1,0,1,52,0,Training
80,14,16,1,3,2,4,-400,1,1,1,1,1,4,1,Training
80,14,17,1,3,2,4,-400,1,2,2,0,3,15,0,Training
80,14,18,1,3,2,4,-400,1,4,4,1,4,-28,1,Training
80,14,19,1,3,2,4,-400,1,4,4,1,4,345,1,Training
80,14,20,1,3,2,4,-400,1,3,2,1,3,989,1,Training
80,15,1,1,3,2,4,-400,1,3,2,1,3,454,1,Training
80,15,2,1,3,2,4,-400,1,3,2,1,3,427,1,Training
80,15,3,1,3,2,4,-400,1,2,3,1,1,339,0,Training
80,15,4,1,3,2,4,-400,1,1,1,1,1,279,1,Training
80,15,5,1,3,2,4,-400,1,3,2,1,3,-35,1,Training
80,15,6,1,3,2,4,-400,1,2,3,1,2,148,1,Training
80,15,7,1,3,2,4,-400,1,4,4,1,3,15,0,Training
80,15,8,1,3,2,4,-400,1,1,2,0,3,-51,0,Training
80,15,9,1,3,2,4,-400,1,2,3,1,2,83,1,Training
80,15,10,1,3,2,4,-400,1,4,2,0,4,620,1,Training
80,15,11,1,3,2,4,-400,1,4,4,1,4,836,1,Training
80,15,12,1,3,2,4,-400,1,2,3,1,2,124,1,Training
80,15,13,1,3,2,4,-400,1,4,4,1,4,276,1,Training
80,15,14,1,3,2,4,-400,1,2,3,1,2,834,1,Training
80,15,15,1,3,2,4,-400,1,4,4,1,4,624,1,Training
80,15,16,1,3,2,4,-400,1,4,4,1,4,290,1,Training
80,15,17,1,3,2,4,-400,1,1,1,1,1,256,1,Training
80,15,18,1,3,2,4,-400,1,2,3,1,2,593,1,Training
80,15,19,1,3,2,4,-400,1,3,2,1,3,662,1,Training
80,15,20,1,3,2,4,-400,1,2,3,1,2,1944,1,Training
80,16,1,1,3,2,4,-400,1,4,4,1,4,570,1,Training
80,16,2,1,3,2,4,-400,1,3,2,1,3,116,1,Training
80,16,3,1,3,2,4,-400,1,4,4,1,4,12,1,Training
80,16,4,1,3,2,4,-400,1,3,1,0,1,12,0,Training
80,16,5,1,3,2,4,-400,1,2,3,1,2,450,1,Training
80,16,6,1,3,2,4,-400,1,3,2,1,3,572,1,Training
80,16,7,1,3,2,4,-400,1,2,3,1,2,156,1,Training
80,16,8,1,3,2,4,-400,1,1,1,1,1,152,1,Training
80,16,9,1,3,2,4,-400,1,4,4,1,2,312,0,Training
80,16,10,1,3,2,4,-400,1,4,4,1,4,293,1,Training
80,16,11,1,3,2,4,-400,1,4,4,1,4,144,1,Training
80,16,12,1,3,2,4,-400,1,3,2,1,3,393,1,Training
80,16,13,1,3,2,4,-400,1,1,1,1,1,378,1,Training
80,16,14,1,3,2,4,-400,1,2,3,1,2,357,1,Training
80,16,15,1,3,2,4,-400,1,3,2,1,3,582,1,Training
80,16,16,1,3,2,4,-400,1,2,1,0,1,118,0,Training
80,16,17,1,3,2,4,-400,1,4,4,1,4,51,1,Training
80,16,18,1,3,2,4,-400,1,3,2,1,2,178,0,Training
80,16,19,1,3,2,4,-400,1,1,1,1,1,208,1,Training
80,16,20,1,3,2,4,-400,1,1,3,0,2,179,0,Training
80,18,1,1,3,2,4,-400,1,4,2,0,3,69,0,Skill
80,18,2,1,3,2,4,-400,1,1,3,0,2,96,0,Skill
80,18,3,1,3,2,4,-400,1,1,4,0,4,85,0,Skill
80,18,4,1,3,2,4,-400,1,4,3,0,3,695,0,Skill
80,18,5,1,3,2,4,-400,1,3,4,0,4,37,0,Skill
80,18,6,1,3,2,4,-400,1,2,1,0,1,189,0,Skill
80,18,7,1,3,2,4,-400,1,4,4,1,4,63,1,Skill
80,18,8,1,3,2,4,-400,1,3,1,0,1,13,0,Skill
80,18,9,1,3,2,4,-400,1,2,3,1,2,34,1,Skill
80,18,10,1,3,2,4,-400,1,1,3,0,1,78,1,Skill
80,18,11,1,3,2,4,-400,1,2,1,0,3,-47,0,Skill
80,18,12,1,3,2,4,-400,1,2,4,0,4,52,0,Skill
80,18,13,1,3,2,4,-400,1,1,2,0,3,15,0,Skill
80,18,14,1,3,2,4,-400,1,1,1,1,1,-77,1,Skill
80,18,15,1,3,2,4,-400,1,1,4,0,3,12,0,Skill
80,18,16,1,3,2,4,-400,1,1,2,0,3,34,0,Skill
80,18,17,1,3,2,4,-400,1,4,4,1,4,-43,1,Skill
80,18,18,1,3,2,4,-400,1,2,3,1,2,49,1,Skill
80,18,19,1,3,2,4,-400,1,3,4,0,4,165,0,Skill
80,18,20,1,3,2,4,-400,1,4,2,0,3,35,0,Skill
80,19,1,1,3,2,4,-400,1,1,4,0,1,772,1,Skill
80,19,2,1,3,2,4,-400,1,2,3,1,1,536,0,Skill
80,19,3,1,3,2,4,-400,1,4,4,1,4,390,1,Skill
80,19,4,1,3,2,4,-400,1,4,2,0,4,317,1,Skill
80,19,5,1,3,2,4,-400,1,3,3,0,3,529,1,Skill
80,19,6,1,3,2,4,-400,1,1,4,0,4,431,0,Skill
80,19,7,1,3,2,4,-400,1,2,3,1,1,580,0,Skill
80,19,8,1,3,2,4,-400,1,2,3,1,1,355,0,Skill
80,19,9,1,3,2,4,-400,1,4,3,0,4,476,1,Skill
80,19,10,1,3,2,4,-400,1,4,2,0,3,289,0,Skill
80,19,11,1,3,2,4,-400,1,3,2,1,3,539,1,Skill
80,19,12,1,3,2,4,-400,1,4,2,0,4,432,1,Skill
80,19,13,1,3,2,4,-400,1,2,4,0,1,2278,0,Skill
80,19,14,1,3,2,4,-400,1,3,4,0,3,560,1,Skill
80,19,15,1,3,2,4,-400,1,2,4,0,1,1298,0,Skill
80,19,16,1,3,2,4,-400,1,3,4,0,3,472,1,Skill
80,19,17,1,3,2,4,-400,1,1,4,0,1,5279,1,Skill
80,19,18,1,3,2,4,-400,1,3,3,0,3,437,1,Skill
80,19,19,1,3,2,4,-400,1,4,2,0,3,432,0,Skill
80,19,20,1,3,2,4,-400,1,2,2,0,3,0,0,Skill
80,20,1,1,3,2,4,-400,1,3,1,0,3,493,1,Skill
80,20,2,1,3,2,4,-400,1,3,2,1,3,325,1,Skill
80,20,3,1,3,2,4,-400,1,2,4,0,4,258,0,Skill
80,20,4,1,3,2,4,-400,1,3,1,0,3,336,1,Skill
80,20,5,1,3,2,4,-400,1,1,2,0,1,596,1,Skill
80,20,6,1,3,2,4,-400,1,2,4,0,2,836,1,Skill
80,20,7,1,3,2,4,-400,1,3,2,1,3,876,1,Skill
80,20,8,1,3,2,4,-400,1,1,3,0,1,531,1,Skill
80,20,9,1,3,2,4,-400,1,1,3,0,3,373,0,Skill
80,20,10,1,3,2,4,-400,1,3,1,0,3,1357,1,Skill
80,20,11,1,3,2,4,-400,1,1,3,0,1,953,1,Skill
80,20,12,1,3,2,4,-400,1,2,1,0,2,592,1,Skill
80,20,13,1,3,2,4,-400,1,1,2,0,3,350,0,Skill
80,20,14,1,3,2,4,-400,1,1,1,1,1,181,1,Skill
80,20,15,1,3,2,4,-400,1,2,3,1,2,594,1,Skill
80,20,16,1,3,2,4,-400,1,3,2,1,3,324,1,Skill
80,20,17,1,3,2,4,-400,1,2,1,0,1,86,0,Skill
80,20,18,1,3,2,4,-400,1,4,4,1,4,1672,1,Skill
80,20,19,1,3,2,4,-400,1,2,1,0,2,1964,1,Skill
80,20,20,1,3,2,4,-400,1,2,2,0,2,1253,1,Skill
80,21,1,1,3,2,4,-400,1,3,3,0,3,1859,1,Skill
80,21,2,1,3,2,4,-400,1,1,1,1,1,454,1,Skill
80,21,3,1,3,2,4,-400,1,1,1,1,1,337,1,Skill
80,21,4,1,3,2,4,-400,1,3,2,1,3,118,1,Skill
80,21,5,1,3,2,4,-400,1,3,3,0,2,144,0,Skill
80,21,6,1,3,2,4,-400,1,1,1,1,1,364,1,Skill
80,21,7,1,3,2,4,-400,1,1,2,0,1,572,1,Skill
80,21,8,1,3,2,4,-400,1,4,4,1,4,430,1,Skill
80,21,9,1,3,2,4,-400,1,3,2,1,3,2383,1,Skill
80,21,10,1,3,2,4,-400,1,3,1,0,1,184,0,Skill
80,21,11,1,3,2,4,-400,1,3,2,1,3,341,1,Skill
80,21,12,1,3,2,4,-400,1,4,2,0,4,449,1,Skill
80,21,13,1,3,2,4,-400,1,2,4,0,2,1322,1,Skill
80,21,14,1,3,2,4,-400,1,4,2,0,4,656,1,Skill
80,21,15,1,3,2,4,-400,1,1,2,0,1,488,1,Skill
80,21,16,1,3,2,4,-400,1,4,1,0,4,1730,1,Skill
80,21,17,1,3,2,4,-400,1,3,3,0,1,87,0,Skill
80,21,18,1,3,2,4,-400,1,1,2,0,1,501,1,Skill
80,21,19,1,3,2,4,-400,1,1,4,0,3,559,0,Skill
80,21,20,1,3,2,4,-400,1,2,4,0,1,735,0,Skill
80,17,1,1,3,2,4,-400,1,2,3,1,2,612,1,Inference
80,17,2,1,3,2,4,-400,1,3,2,1,3,414,1,Inference
80,17,3,1,3,2,4,-400,1,1,1,1,1,411,1,Inference
80,17,4,1,3,2,4,-400,1,4,4,1,4,341,1,Inference
80,17,5,1,3,2,4,-400,1,1,1,1,1,494,1,Inference
80,17,6,1,3,2,4,-400,1,2,3,1,2,378,1,Inference
80,17,7,1,3,2,4,-400,1,3,2,1,3,531,1,Inference
80,17,8,1,3,2,4,-400,1,4,4,1,4,348,1,Inference
80,17,9,1,3,2,4,-400,1,3,2,1,3,481,1,Inference
80,17,10,1,3,2,4,-400,1,1,1,1,1,491,1,Inference
80,17,11,1,3,2,4,-400,1,4,4,1,4,537,1,Inference
80,17,12,1,3,2,4,-400,1,2,3,1,2,446,1,Inference
79,1,1,3,1,4,2,400,1,1,3,1,1,910,1,Training
79,1,2,3,1,4,2,400,1,4,2,1,4,689,1,Training
79,1,3,3,1,4,2,400,1,2,1,1,2,471,1,Training
79,1,4,3,1,4,2,400,1,3,4,1,3,424,1,Training
79,1,5,3,1,4,2,400,1,2,1,1,2,588,1,Training
79,1,6,3,1,4,2,400,1,1,1,0,1,563,1,Training
79,1,7,3,1,4,2,400,1,2,1,1,2,497,1,Training
79,1,8,3,1,4,2,400,1,3,4,1,3,391,1,Training
79,1,9,3,1,4,2,400,1,2,1,1,2,510,1,Training
79,1,10,3,1,4,2,400,1,4,2,1,4,486,1,Training
79,1,11,3,1,4,2,400,1,2,1,1,2,565,1,Training
79,1,12,3,1,4,2,400,1,3,4,1,3,483,1,Training
79,1,13,3,1,4,2,400,1,2,1,1,2,498,1,Training
79,1,14,3,1,4,2,400,1,2,1,1,2,563,1,Training
79,1,15,3,1,4,2,400,1,1,3,1,1,324,1,Training
79,1,16,3,1,4,2,400,1,2,1,1,2,467,1,Training
79,1,17,3,1,4,2,400,1,1,4,0,1,543,1,Training
79,1,18,3,1,4,2,400,1,3,4,1,3,343,1,Training
79,1,19,3,1,4,2,400,1,1,3,1,1,448,1,Training
79,1,20,3,1,4,2,400,1,4,2,1,3,473,0,Training
79,2,1,3,1,4,2,400,1,4,2,1,4,511,1,Training
79,2,2,3,1,4,2,400,1,3,3,0,4,499,0,Training
79,2,3,3,1,4,2,400,1,4,2,1,4,476,1,Training
79,2,4,3,1,4,2,400,1,3,4,1,3,483,1,Training
79,2,5,3,1,4,2,400,1,3,4,1,3,599,1,Training
79,2,6,3,1,4,2,400,1,3,4,1,3,641,1,Training
79,2,7,3,1,4,2,400,1,1,3,1,1,462,1,Training
79,2,8,3,1,4,2,400,1,3,4,1,3,572,1,Training
79,2,9,3,1,4,2,400,1,4,2,1,4,429,1,Training
79,2,10,3,1,4,2,400,1,1,3,1,1,388,1,Training
79,2,11,3,1,4,2,400,1,1,3,1,1,334,1,Training
79,2,12,3,1,4,2,400,1,4,2,1,1,426,0,Training
79,2,13,3,1,4,2,400,1,3,2,0,3,476,1,Training
79,2,14,3,1,4,2,400,1,3,4,1,1,402,0,Training
79,2,15,3,1,4,2,400,1,4,2,1,4,412,1,Training
79,2,16,3,1,4,2,400,1,4,2,1,4,456,1,Training
79,2,17,3,1,4,2,400,1,2,4,0,3,526,0,Training
79,2,18,3,1,4,2,400,1,3,4,1,3,387,1,Training
79,2,19,3,1,4,2,400,1,1,3,1,1,483,1,Training
79,2,20,3,1,4,2,400,1,3,4,1,3,517,1,Training
79,3,1,3,1,4,2,400,1,2,1,1,2,493,1,Training
79,3,2,3,1,4,2,400,1,4,2,1,3,472,0,Training
79,3,3,3,1,4,2,400,1,2,1,1,3,511,0,Training
79,3,4,3,1,4,2,400,1,1,3,1,1,493,1,Training
79,3,5,3,1,4,2,400,1,1,3,1,1,435,1,Training
79,3,6,3,1,4,2,400,1,2,1,1,2,524,1,Training
79,3,7,3,1,4,2,400,1,1,3,1,1,437,1,Training
79,3,8,3,1,4,2,400,1,2,1,1,2,618,1,Training
79,3,9,3,1,4,2,400,1,4,2,1,4,500,1,Training
79,3,10,3,1,4,2,400,1,2,1,1,2,575,1,Training
79,3,11,3,1,4,2,400,1,1,3,1,1,480,1,Training
79,3,12,3,1,4,2,400,1,1,3,1,1,416,1,Training
79,3,13,3,1,4,2,400,1,4,2,1,4,587,1,Training
79,3,14,3,1,4,2,400,1,4,2,1,4,461,1,Training
79,3,15,3,1,4,2,400,1,4,2,1,4,398,1,Training
79,3,16,3,1,4,2,400,1,3,1,0,3,475,1,Training
79,3,17,3,1,4,2,400,1,1,3,1,1,497,1,Training
79,3,18,3,1,4,2,400,1,1,3,1,1,468,1,Training
79,3,19,3,1,4,2,400,1,4,2,1,4,462,1,Training
79,3,20,3,1,4,2,400,1,2,1,1,1,423,0,Training
79,4,1,3,1,4,2,400,1,2,1,1,2,455,1,Training
79,4,2,3,1,4,2,400,1,4,2,1,4,470,1,Training
79,4,3,3,1,4,2,400,1,2,1,1,2,479,1,Training
79,4,4,3,1,4,2,400,1,3,3,0,3,468,1,Training
79,4,5,3,1,4,2,400,1,1,3,1,1,402,1,Training
79,4,6,3,1,4,2,400,1,3,4,1,3,526,1,Training
79,4,7,3,1,4,2,400,1,2,1,1,2,467,1,Training
79,4,8,3,1,4,2,400,1,4,2,1,4,461,1,Training
79,4,9,3,1,4,2,400,1,4,2,1,4,387,1,Training
79,4,10,3,1,4,2,400,1,2,1,1,2,486,1,Training
79,4,11,3,1,4,2,400,1,2,1,1,2,453,1,Training
79,4,12,3,1,4,2,400,1,2,1,1,1,485,0,Training
79,4,13,3,1,4,2,400,1,4,2,1,4,556,1,Training
79,4,14,3,1,4,2,400,1,1,3,1,1,530,1,Training
79,4,15,3,1,4,2,400,1,1,3,1,1,380,1,Training
79,4,16,3,1,4,2,400,1,4,2,1,4,464,1,Training
79,4,17,3,1,4,2,400,1,3,2,0,3,471,1,Training
79,4,18,3,1,4,2,400,1,4,2,1,4,527,1,Training
79,4,19,3,1,4,2,400,1,4,2,1,4,463,1,Training
79,4,20,3,1,4,2,400,1,1,3,1,1,433,1,Training
79,5,1,3,1,4,2,400,1,2,1,1,3,586,0,Training
79,5,2,3,1,4,2,400,1,3,4,1,3,391,1,Training
79,5,3,3,1,4,2,400,1,1,3,1,1,373,1,Training
79,5,4,3,1,4,2,400,1,3,4,1,3,507,1,Training
79,5,5,3,1,4,2,400,1,1,3,1,1,508,1,Training
79,5,6,3,1,4,2,400,1,3,4,1,3,481,1,Training
79,5,7,3,1,4,2,400,1,4,2,1,4,351,1,Training
79,5,8,3,1,4,2,400,1,2,1,1,2,445,1,Training
79,5,9,3,1,4,2,400,1,4,2,1,4,432,1,Training
79,5,10,3,1,4,2,400,1,4,2,1,4,447,1,Training
79,5,11,3,1,4,2,400,1,4,2,1,4,493,1,Training
79,5,12,3,1,4,2,400,1,4,2,1,4,423,1,Training
79,5,13,3,1,4,2,400,1,4,2,1,4,408,1,Training
79,5,14,3,1,4,2,400,1,1,3,1,1,486,1,Training
79,5,15,3,1,4,2,400,1,4,2,1,4,479,1,Training
79,5,16,3,1,4,2,400,1,1,3,1,1,494,1,Training
79,5,17,3,1,4,2,400,1,1,3,1,1,444,1,Training
79,5,18,3,1,4,2,400,1,3,4,1,3,480,1,Training
79,5,19,3,1,4,2,400,1,4,3,0,4,463,1,Training
79,5,20,3,1,4,2,400,1,3,4,1,3,474,1,Training
79,6,1,3,1,4,2,400,1,3,4,1,3,422,1,Training
79,6,2,3,1,4,2,400,1,4,3,0,4,464,1,Training
79,6,3,3,1,4,2,400,1,2,1,1,2,459,1,Training
79,6,4,3,1,4,2,400,1,1,3,1,1,332,1,Training
79,6,5,3,1,4,2,400,1,3,4,1,3,424,1,Training
79,6,6,3,1,4,2,400,1,4,2,1,4,442,1,Training
79,6,7,3,1,4,2,400,1,1,3,1,1,378,1,Training
79,6,8,3,1,4,2,400,1,3,4,1,3,423,1,Training
79,6,9,3,1,4,2,400,1,3,4,1,3,423,1,Training
79,6,10,3,1,4,2,400,1,4,2,1,4,434,1,Training
79,6,11,3,1,4,2,400,1,2,1,1,2,494,1,Training
79,6,12,3,1,4,2,400,1,3,4,1,3,602,1,Training
79,6,13,3,1,4,2,400,1,3,4,1,3,380,1,Training
79,6,14,3,1,4,2,400,1,1,3,1,1,479,1,Training
79,6,15,3,1,4,2,400,1,4,2,1,4,502,1,Training
79,6,16,3,1,4,2,400,1,3,4,1,3,436,1,Training
79,6,17,3,1,4,2,400,1,2,1,1,2,389,1,Training
79,6,18,3,1,4,2,400,1,2,1,1,2,372,1,Training
79,6,19,3,1,4,2,400,1,4,2,1,4,458,1,Training
79,6,20,3,1,4,2,400,1,3,4,1,3,396,1,Training
79,7,1,3,1,4,2,400,1,4,2,1,4,535,1,Training
79,7,2,3,1,4,2,400,1,1,3,1,1,433,1,Training
79,7,3,3,1,4,2,400,1,2,1,1,1,485,0,Training
79,7,4,3,1,4,2,400,1,4,2,1,4,450,1,Training
79,7,5,3,1,4,2,400,1,3,4,1,2,477,0,Training
79,7,6,3,1,4,2,400,1,3,4,1,3,450,1,Training
79,7,7,3,1,4,2,400,1,4,2,1,4,485,1,Training
79,7,8,3,1,4,2,400,1,2,1,1,2,513,1,Training
79,7,9,3,1,4,2,400,1,3,4,1,3,543,1,Training
79,7,10,3,1,4,2,400,1,4,4,0,4,505,1,Training
79,7,11,3,1,4,2,400,1,1,3,1,1,414,1,Training
79,7,12,3,1,4,2,400,1,4,2,1,4,410,1,Training
79,7,13,3,1,4,2,400,1,3,3,0,3,551,1,Training
79,7,14,3,1,4,2,400,1,4,2,1,4,527,1,Training
79,7,15,3,1,4,2,400,1,2,1,1,2,484,1,Training
79,7,16,3,1,4,2,400,1,1,3,1,4,379,0,Training
79,7,17,3,1,4,2,400,1,3,4,1,3,512,1,Training
79,7,18,3,1,4,2,400,1,1,3,1,1,505,1,Training
79,7,19,3,1,4,2,400,1,1,3,1,1,442,1,Training
79,7,20,3,1,4,2,400,1,2,1,1,2,460,1,Training
79,8,1,3,1,4,2,400,1,4,2,1,4,372,1,Training
79,8,2,3,1,4,2,400,1,2,1,1,2,484,1,Training
79,8,3,3,1,4,2,400,1,3,4,1,3,423,1,Training
79,8,4,3,1,4,2,400,1,3,4,1,3,349,1,Training
79,8,5,3,1,4,2,400,1,1,3,1,1,433,1,Training
79,8,6,3,1,4,2,400,1,4,2,1,4,444,1,Training
79,8,7,3,1,4,2,400,1,2,1,1,2,467,1,Training
79,8,8,3,1,4,2,400,1,2,1,1,2,385,1,Training
79,8,9,3,1,4,2,400,1,4,2,1,4,404,1,Training
79,8,10,3,1,4,2,400,1,4,2,1,4,445,1,Training
79,8,11,3,1,4,2,400,1,4,2,1,4,399,1,Training
79,8,12,3,1,4,2,400,1,1,3,1,1,404,1,Training
79,8,13,3,1,4,2,400,1,1,2,0,1,314,1,Training
79,8,14,3,1,4,2,400,1,1,3,1,1,330,1,Training
