sid,Block,Trial,Condition,Digit,Picture,Response,Correct_Response,Accuracy,RT
9,1,1,3,5,3,",",",",C,1381
9,1,2,3,4,4,M,M,C,1169
9,1,3,3,5,3,",",",",C,1118
9,1,4,3,5,3,",",",",C,642
9,1,5,3,6,6,.,.,C,1438
9,1,6,3,4,4,M,M,C,514
9,1,7,3,4,4,M,M,C,834
9,1,8,3,4,4,M,M,C,478
9,1,9,3,2,5,X,X,C,962
9,1,10,3,4,4,M,M,C,1266
9,1,11,3,3,1,C,C,C,1106
9,1,12,3,1,2,Z,Z,C,1342
9,1,13,3,3,1,C,C,C,625
9,1,14,3,4,4,M,M,C,674
9,1,15,3,4,4,M,M,C,562
9,1,16,3,5,3,",",",",C,558
9,1,17,3,1,2,Z,Z,C,770
9,1,18,3,2,5,X,X,C,626
9,1,19,3,5,3,",",",",C,674
9,1,20,3,5,3,",",",",C,530
9,1,21,3,6,6,.,.,C,370
9,1,22,3,5,3,",",",",C,546
9,1,23,3,1,2,Z,Z,C,626
9,1,24,3,6,6,.,.,C,482
9,1,25,3,2,5,X,X,C,690
9,1,26,3,1,2,Z,Z,C,498
9,1,27,3,2,5,X,X,C,386
9,1,28,3,6,6,.,.,C,322
9,1,29,3,5,3,",",",",C,386
9,1,30,3,2,5,X,X,C,721
9,1,31,3,5,3,",",",",C,466
9,1,32,3,3,1,C,C,C,1202
9,1,33,3,1,2,Z,Z,C,1090
9,1,34,3,5,3,",",",",C,594
9,1,35,3,1,2,Z,Z,C,658
9,1,36,3,1,2,Z,Z,C,530
9,1,37,3,5,3,",",",",C,674
9,1,38,3,3,1,C,C,C,946
9,1,39,3,3,1,C,C,C,578
9,1,40,3,3,1,C,C,C,498
9,1,41,3,4,4,M,M,C,658
9,1,42,3,1,2,Z,Z,C,578
9,1,43,3,1,2,Z,Z,C,526
9,1,44,3,4,4,M,M,C,801
9,1,45,3,3,1,C,C,C,738
9,1,46,3,6,6,.,.,C,638
9,1,47,3,5,3,",",",",C,785
9,1,48,3,4,4,M,M,C,642
9,1,49,3,4,4,M,M,C,510
9,1,50,3,3,1,C,C,C,674
9,2,1,3,5,3,",",",",C,618
9,2,2,3,6,6,.,.,C,673
9,2,3,3,6,6,.,.,C,482
9,2,4,3,6,6,.,.,C,498
9,2,5,3,3,1,C,C,C,398
9,2,6,3,1,2,Z,Z,C,594
9,2,7,3,5,3,",",",",C,785
9,2,8,3,1,2,Z,Z,C,818
9,2,9,3,3,1,C,C,C,546
9,2,10,3,2,5,X,X,C,622
9,2,11,3,2,5,X,X,C,498
9,2,12,3,1,2,Z,Z,C,526
9,2,13,3,5,3,",",",",C,546
9,2,14,3,3,1,C,C,C,482
9,2,15,3,1,2,Z,Z,C,642
9,2,16,3,3,1,C,C,C,450
9,2,17,3,1,2,Z,Z,C,770
9,2,18,3,1,2,Z,Z,C,594
9,2,19,3,4,4,M,M,C,926
9,2,20,3,2,5,X,X,C,706
9,2,21,3,4,4,M,M,C,594
9,2,22,3,6,6,M,.,I,430
9,2,23,3,1,2,Z,Z,C,658
9,2,24,3,3,1,C,C,C,626
9,2,25,3,1,2,Z,Z,C,546
9,2,26,3,3,1,C,C,C,786
9,2,27,3,2,5,X,X,C,722
9,2,28,3,6,6,.,.,C,850
9,2,29,3,1,2,Z,Z,C,642
9,2,30,3,4,4,M,M,C,638
9,2,31,3,1,2,Z,Z,C,770
9,2,32,3,4,4,M,M,C,610
9,2,33,3,5,3,",",",",C,706
9,2,34,3,4,4,M,M,C,782
9,2,35,3,5,3,",",",",C,626
9,2,36,3,6,6,.,.,C,594
9,2,37,3,4,4,M,M,C,818
9,2,38,3,1,2,Z,Z,C,802
9,2,39,3,3,1,C,C,C,1218
9,2,40,3,6,6,.,.,C,722
9,2,41,3,2,5,X,X,C,610
9,2,42,3,4,4,M,M,C,591
9,2,43,3,5,3,",",",",C,494
9,2,44,3,2,5,X,X,C,1154
9,2,45,3,4,4,M,M,C,1025
9,2,46,3,6,6,.,.,C,626
9,2,47,3,5,3,",",",",C,529
9,2,48,3,5,3,",",",",C,626
9,2,49,3,1,2,Z,Z,C,626
9,2,50,3,3,1,C,C,C,610
9,3,1,3,1,2,Z,Z,C,550
9,3,2,3,5,3,",",",",C,465
9,3,3,3,1,2,Z,Z,C,501
9,3,4,3,2,5,C,X,I,482
9,3,5,3,4,4,M,M,C,594
9,3,6,3,4,4,M,M,C,705
9,3,7,3,3,1,C,C,C,830
9,3,8,3,3,1,C,C,C,578
9,3,9,3,2,5,X,X,C,577
9,3,10,3,3,1,C,C,C,562
9,3,11,3,1,2,Z,Z,C,514
9,3,12,3,4,4,M,M,C,594
9,3,13,3,4,4,M,M,C,398
9,3,14,3,2,5,X,X,C,562
9,3,15,3,5,3,",",",",C,562
9,3,16,3,2,5,X,X,C,546
9,3,17,3,6,6,.,.,C,801
9,3,18,3,4,4,M,M,C,530
9,3,19,3,2,5,X,X,C,578
9,3,20,3,6,6,.,.,C,610
9,3,21,3,2,5,X,X,C,546
9,3,22,3,6,6,.,.,C,642
9,3,23,3,2,5,X,X,C,526
9,3,24,3,6,6,.,.,C,594
9,3,25,3,5,3,",",",",C,610
9,3,26,3,2,5,X,X,C,654
9,3,27,3,6,6,.,.,C,498
9,3,28,3,6,6,.,.,C,542
9,3,29,3,4,4,M,M,C,594
9,3,30,3,2,5,X,X,C,418
9,3,31,3,3,1,C,C,C,606
9,3,32,3,4,4,M,M,C,562
9,3,33,3,3,1,C,C,C,546
9,3,34,3,4,4,M,M,C,450
9,3,35,3,2,5,X,X,C,577
9,3,36,3,2,5,X,X,C,562
9,3,37,3,2,5,X,X,C,514
9,3,38,3,6,6,.,.,C,546
9,3,39,3,3,1,C,C,C,610
9,3,40,3,5,3,",",",",C,530
9,3,41,3,1,2,Z,Z,C,546
9,3,42,3,2,5,X,X,C,1090
9,3,43,3,3,1,C,C,C,786
9,3,44,3,5,3,",",",",C,578
9,3,45,3,6,6,.,.,C,497
9,3,46,3,3,1,C,C,C,606
9,3,47,3,6,6,.,.,C,450
9,3,48,3,3,1,X,C,I,466
9,3,49,3,4,4,M,M,C,634
9,3,50,3,3,1,C,C,C,546
9,4,1,3,1,2,Z,Z,C,582
9,4,2,3,3,1,C,C,C,610
9,4,3,3,6,6,.,.,C,578
9,4,4,3,1,2,Z,Z,C,642
9,4,5,3,2,5,X,X,C,610
9,4,6,3,2,5,X,X,C,610
9,4,7,3,4,4,M,M,C,546
9,4,8,3,5,3,",",",",C,706
9,4,9,3,3,1,C,C,C,658
9,4,10,3,5,3,",",",",C,494
9,4,11,3,6,6,.,.,C,562
9,4,12,3,6,6,.,.,C,434
9,4,13,3,6,6,.,.,C,386
9,4,14,3,6,6,.,.,C,434
9,4,15,3,1,2,Z,Z,C,946
9,4,16,3,5,3,",",",",C,594
9,4,17,3,1,2,Z,Z,C,498
9,4,18,3,6,6,.,.,C,546
9,4,19,3,5,3,",",",",C,478
9,4,20,3,6,6,.,.,C,770
9,4,21,3,1,2,Z,Z,C,498
9,4,22,3,2,5,X,X,C,642
9,4,23,3,6,6,.,.,C,526
9,4,24,3,2,5,X,X,C,594
9,4,25,3,6,6,.,.,C,722
9,4,26,3,1,2,Z,Z,C,530
9,4,27,3,1,2,Z,Z,C,434
9,4,28,3,4,4,M,M,C,530
9,4,29,3,4,4,M,M,C,418
9,4,30,3,5,3,",",",",C,494
9,4,31,3,3,1,X,C,I,545
9,4,32,3,4,4,M,M,C,558
9,4,33,3,4,4,M,M,C,469
9,4,34,3,5,3,",",",",C,562
9,4,35,3,4,4,M,M,C,546
9,4,36,3,1,2,Z,Z,C,530
9,4,37,3,4,4,M,M,C,610
9,4,38,3,5,3,",",",",C,626
9,4,39,3,5,3,",",",",C,530
9,4,40,3,6,6,.,.,C,354
9,4,41,3,6,6,.,.,C,386
9,4,42,3,2,5,X,X,C,590
9,4,43,3,2,5,X,X,C,434
9,4,44,3,2,5,X,X,C,338
9,4,45,3,6,6,.,.,C,449
9,4,46,3,2,5,X,X,C,498
9,4,47,3,3,1,C,C,C,530
9,4,48,3,1,2,Z,Z,C,526
9,4,49,3,6,6,",",.,I,434
9,4,50,3,4,4,M,M,C,577
9,5,1,3,1,2,Z,Z,C,602
9,5,2,3,4,4,M,M,C,593
9,5,3,3,5,3,",",",",C,482
9,5,4,3,2,5,X,X,C,690
9,5,5,3,1,2,Z,Z,C,529
9,5,6,3,6,6,.,.,C,530
9,5,7,3,1,2,Z,Z,C,530
9,5,8,3,4,4,M,M,C,526
9,5,9,3,5,3,",",",",C,594
9,5,10,3,1,2,Z,Z,C,498
9,5,11,3,5,3,",",",",C,546
9,5,12,3,4,4,M,M,C,533
9,5,13,3,4,4,M,M,C,402
9,5,14,3,4,4,M,M,C,513
9,5,15,3,5,3,",",",",C,578
9,5,16,3,5,3,",",",",C,578
9,5,17,3,6,6,.,.,C,514
9,5,18,3,6,6,.,.,C,450
9,5,19,3,3,1,X,C,I,562
9,5,20,3,2,5,X,X,C,590
9,5,21,3,3,1,C,C,C,574
9,5,22,3,2,5,X,X,C,594
9,5,23,3,6,6,.,.,C,562
9,5,24,3,2,5,X,X,C,530
9,5,25,3,6,6,.,.,C,498
9,5,26,3,3,1,C,C,C,738
9,5,27,3,4,4,M,M,C,482
9,5,28,3,6,6,.,.,C,530
9,5,29,3,1,2,Z,Z,C,542
9,5,30,3,1,2,Z,Z,C,590
9,5,31,3,5,3,",",",",C,514
9,5,32,3,6,6,.,.,C,482
9,5,33,3,2,5,X,X,C,546
9,5,34,3,3,1,C,C,C,574
9,5,35,3,3,1,C,C,C,898
9,5,36,3,4,4,M,M,C,498
9,5,37,3,2,5,X,X,C,546
9,5,38,3,2,5,X,X,C,498
9,5,39,3,3,1,C,C,C,610
9,5,40,3,3,1,C,C,C,498
9,5,41,3,2,5,X,X,C,674
9,5,42,3,1,2,Z,Z,C,510
9,5,43,3,4,4,.,M,I,382
9,5,44,3,4,4,M,M,C,654
9,5,45,3,4,4,M,M,C,414
9,5,46,3,2,5,X,X,C,546
9,5,47,3,6,6,.,.,C,578
9,5,48,3,5,3,",",",",C,562
9,5,49,3,6,6,.,.,C,513
9,5,50,3,6,6,.,.,C,426
9,6,1,3,6,6,.,.,C,778
9,6,2,3,1,2,Z,Z,C,562
9,6,3,3,2,5,X,X,C,654
9,6,4,3,4,4,M,M,C,642
9,6,5,3,1,2,Z,Z,C,482
9,6,6,3,2,5,X,X,C,706
9,6,7,3,4,4,M,M,C,562
9,6,8,3,5,3,",",",",C,578
9,6,9,3,6,6,.,.,C,450
9,6,10,3,3,1,X,C,I,754
9,6,11,3,1,2,Z,Z,C,626
9,6,12,3,5,3,",",",",C,786
9,6,13,3,6,6,.,.,C,514
9,6,14,3,2,5,X,X,C,498
9,6,15,3,6,6,.,.,C,578
9,6,16,3,3,1,C,C,C,722
9,6,17,3,2,5,X,X,C,734
9,6,18,3,3,1,C,C,C,786
9,6,19,3,4,4,M,M,C,606
9,6,20,3,1,2,Z,Z,C,578
9,6,21,3,6,6,.,.,C,610
9,6,22,3,3,1,C,C,C,1058
9,6,23,3,1,2,Z,Z,C,578
9,6,24,3,6,6,.,.,C,514
9,6,25,3,3,1,C,C,C,738
9,6,26,3,2,5,X,X,C,546
9,6,27,3,6,6,.,.,C,514
9,6,28,3,4,4,M,M,C,555
9,6,29,3,6,6,.,.,C,722
9,6,30,3,4,4,M,M,C,754
9,6,31,3,4,4,M,M,C,514
9,6,32,3,3,1,C,C,C,898
9,6,33,3,2,5,X,X,C,690
9,6,34,3,6,6,.,.,C,690
9,6,35,3,4,4,M,M,C,561
9,6,36,3,6,6,.,.,C,593
9,6,37,3,6,6,.,.,C,562
9,6,38,3,6,6,.,.,C,498
9,6,39,3,1,2,Z,Z,C,546
9,6,40,3,3,1,C,C,C,654
9,6,41,3,2,5,X,X,C,514
9,6,42,3,3,1,C,C,C,1154
9,6,43,3,2,5,X,X,C,658
9,6,44,3,5,3,",",",",C,638
9,6,45,3,1,2,Z,Z,C,606
9,6,46,3,3,1,C,C,C,722
9,6,47,3,2,5,X,X,C,738
9,6,48,3,2,5,X,X,C,626
9,6,49,3,3,1,C,C,C,770
9,6,50,3,3,1,C,C,C,570
9,7,1,3,5,3,",",",",C,642
9,7,2,3,1,2,Z,Z,C,654
9,7,3,3,1,2,Z,Z,C,466
9,7,4,3,5,3,",",",",C,626
9,7,5,3,2,5,X,X,C,642
9,7,6,3,5,3,",",",",C,706
9,7,7,3,2,5,X,X,C,802
9,7,8,3,1,2,Z,Z,C,718
9,7,9,3,5,3,",",",",C,594
9,7,10,3,1,2,Z,Z,C,578
9,7,11,3,3,1,C,C,C,786
9,7,12,3,3,1,C,C,C,594
9,7,13,3,4,4,M,M,C,610
9,7,14,3,5,3,",",",",C,878
9,7,15,3,3,1,C,C,C,594
9,7,16,3,1,2,Z,Z,C,530
9,7,17,3,6,6,M,.,I,641
9,7,18,3,4,4,M,M,C,606
9,7,19,3,3,1,C,C,C,850
9,7,20,3,2,5,X,X,C,718
9,7,21,3,3,1,C,C,C,802
9,7,22,3,6,6,.,.,C,606
9,7,23,3,5,3,",",",",C,546
9,7,24,3,2,5,X,X,C,642
9,7,25,3,4,4,M,M,C,626
9,7,26,3,6,6,.,.,C,770
9,7,27,3,2,5,X,X,C,802
9,7,28,3,4,4,M,M,C,510
9,7,29,3,6,6,.,.,C,754
9,7,30,3,6,6,.,.,C,705
9,7,31,3,1,2,Z,Z,C,622
9,7,32,3,2,5,X,X,C,658
9,7,33,3,6,6,.,.,C,514
9,7,34,3,1,2,Z,Z,C,734
9,7,35,3,3,1,C,C,C,594
9,7,36,3,2,5,X,X,C,674
9,7,37,3,5,3,",",",",C,574
9,7,38,3,6,6,.,.,C,542
9,7,39,3,1,2,Z,Z,C,786
9,7,40,3,5,3,",",",",C,546
9,7,41,3,6,6,.,.,C,562
9,7,42,3,4,4,M,M,C,833
9,7,43,3,1,2,Z,Z,C,594
9,7,44,3,1,2,Z,Z,C,1313
9,7,45,3,1,2,Z,Z,C,562
9,7,46,3,1,2,Z,Z,C,578
9,7,47,3,4,4,M,M,C,526
9,7,48,3,2,5,X,X,C,578
9,7,49,3,3,1,C,C,C,702
9,7,50,3,5,3,",",",",C,529
9,8,1,3,6,6,.,.,C,566
9,8,2,3,4,4,M,M,C,481
9,8,3,3,4,4,M,M,C,415
9,8,4,3,3,1,C,C,C,882
9,8,5,3,3,1,C,C,C,561
9,8,6,3,4,4,M,M,C,658
9,8,7,3,6,6,.,.,C,482
9,8,8,3,6,6,.,.,C,562
9,8,9,3,5,3,",",",",C,562
9,8,10,3,4,4,M,M,C,546
9,8,11,3,6,6,.,.,C,578
9,8,12,3,5,3,",",",",C,610
9,8,13,3,3,1,C,C,C,610
9,8,14,3,2,5,X,X,C,530
9,8,15,3,4,4,M,M,C,385
9,8,16,3,6,6,.,.,C,658
9,8,17,3,5,3,",",",",C,466
9,8,18,3,2,5,X,X,C,594
9,8,19,3,4,4,M,M,C,530
9,8,20,3,5,3,",",",",C,654
9,8,21,3,3,1,C,C,C,562
9,8,22,3,4,4,M,M,C,513
9,8,23,3,3,1,X,C,I,530
9,8,24,3,6,6,.,.,C,558
9,8,25,3,3,1,C,C,C,594
9,8,26,3,6,6,.,.,C,546
9,8,27,3,6,6,.,.,C,434
9,8,28,3,5,3,",",",",C,546
9,8,29,3,1,2,Z,Z,C,574
9,8,30,3,1,2,Z,Z,C,562
9,8,31,3,4,4,M,M,C,529
9,8,32,3,1,2,Z,Z,C,565
9,8,33,3,2,5,X,X,C,610
9,8,34,3,5,3,",",",",C,562
9,8,35,3,3,1,C,C,C,690
9,8,36,3,2,5,X,X,C,497
9,8,37,3,4,4,M,M,C,514
9,8,38,3,1,2,Z,Z,C,530
9,8,39,3,2,5,X,X,C,578
9,8,40,3,5,3,",",",",C,610
9,8,41,3,2,5,X,X,C,609
9,8,42,3,5,3,",",",",C,610
9,8,43,3,2,5,X,X,C,658
9,8,44,3,1,2,Z,Z,C,594
9,8,45,3,4,4,M,M,C,594
9,8,46,3,1,2,Z,Z,C,574
9,8,47,3,2,5,X,X,C,562
9,8,48,3,1,2,Z,Z,C,594
9,8,49,3,6,6,.,.,C,706
9,8,50,3,4,4,M,M,C,625
9,9,1,3,3,1,C,C,C,731
9,9,2,3,3,1,C,C,C,545
9,9,3,3,1,2,Z,Z,C,530
9,9,4,3,2,5,X,X,C,658
9,9,5,3,5,3,",",",",C,562
9,9,6,3,6,6,.,.,C,562
9,9,7,3,1,2,Z,Z,C,594
9,9,8,3,4,4,M,M,C,514
9,9,9,3,6,6,.,.,C,446
9,9,10,3,1,2,Z,Z,C,574
9,9,11,3,1,2,Z,Z,C,386
9,9,12,3,5,3,",",",",C,594
9,9,13,3,6,6,.,.,C,482
9,9,14,3,2,5,X,X,C,546
9,9,15,3,1,2,Z,Z,C,674
9,9,16,3,5,3,",",",",C,544
9,9,17,3,6,6,.,.,C,542
9,9,18,3,4,4,M,M,C,558
9,9,19,3,2,5,X,X,C,594
9,9,20,3,1,2,Z,Z,C,506
9,9,21,3,2,5,X,X,C,514
9,9,22,3,1,2,Z,Z,C,478
9,9,23,3,4,4,M,M,C,817
9,9,24,3,6,6,.,.,C,498
9,9,25,3,5,3,",",",",C,604
9,9,26,3,2,5,X,X,C,578
9,9,27,3,5,3,",",",",C,546
9,9,28,3,1,2,Z,Z,C,514
9,9,29,3,1,2,Z,Z,C,482
9,9,30,3,5,3,",",",",C,545
9,9,31,3,1,2,Z,Z,C,498
9,9,32,3,3,1,C,C,C,690
9,9,33,3,2,5,X,X,C,610
9,9,34,3,3,1,C,C,C,1074
9,9,35,3,4,4,M,M,C,529
9,9,36,3,1,2,Z,Z,C,626
9,9,37,3,3,1,C,C,C,594
9,9,38,3,2,5,X,X,C,610
9,9,39,3,6,6,.,.,C,626
9,9,40,3,3,1,C,C,C,578
9,9,41,3,1,2,Z,Z,C,605
9,9,42,3,2,5,X,X,C,594
9,9,43,3,3,1,C,C,C,574
9,9,44,3,1,2,Z,Z,C,546
9,9,45,3,5,3,",",",",C,626
9,9,46,3,2,5,X,X,C,562
9,9,47,3,1,2,Z,Z,C,517
9,9,48,3,5,3,",",",",C,546
9,9,49,3,5,3,",",",",C,547
9,9,50,3,5,3,",",",",C,546
9,10,1,3,4,4,M,M,C,507
9,10,2,3,1,2,Z,Z,C,578
9,10,3,3,1,2,Z,Z,C,529
9,10,4,3,5,3,",",",",C,498
9,10,5,3,2,5,X,X,C,1282
9,10,6,3,1,2,Z,Z,C,562
9,10,7,3,2,5,X,X,C,626
9,10,8,3,3,1,C,C,C,530
9,10,9,3,1,2,Z,Z,C,546
9,10,10,3,1,2,Z,Z,C,530
9,10,11,3,5,3,",",",",C,562
9,10,12,3,3,1,C,C,C,546
9,10,13,3,3,1,X,C,I,590
9,10,14,3,4,4,M,M,C,609
9,10,15,3,1,2,Z,Z,C,642
9,10,16,3,6,6,.,.,C,1074
9,10,17,3,5,3,",",",",C,686
9,10,18,3,6,6,.,.,C,545
9,10,19,3,5,3,",",",",C,394
9,10,20,3,6,6,.,.,C,530
9,10,21,3,3,1,C,C,C,682
9,10,22,3,2,5,X,X,C,674
9,10,23,3,2,5,X,X,C,578
9,10,24,3,5,3,",",",",C,546
9,10,25,3,4,4,M,M,C,530
9,10,26,3,4,4,M,M,C,498
9,10,27,3,3,1,X,C,I,593
9,10,28,3,4,4,M,M,C,545
9,10,29,3,5,3,",",",",C,514
9,10,30,3,5,3,",",",",C,626
9,10,31,3,6,6,.,.,C,642
9,10,32,3,6,6,.,.,C,434
9,10,33,3,6,6,.,.,C,382
9,10,34,3,6,6,.,.,C,366
9,10,35,3,3,1,C,C,C,578
9,10,36,3,3,1,C,C,C,466
9,10,37,3,1,2,Z,Z,C,593
9,10,38,3,2,5,X,X,C,578
9,10,39,3,5,3,",",",",C,542
9,10,40,3,6,6,.,.,C,594
9,10,41,3,4,4,M,M,C,530
9,10,42,3,3,1,C,C,C,674
9,10,43,3,3,1,C,C,C,466
9,10,44,3,1,2,Z,Z,C,610
9,10,45,3,1,2,Z,Z,C,514
9,10,46,3,2,5,X,X,C,530
9,10,47,3,5,3,",",",",C,590
9,10,48,3,1,2,Z,Z,C,674
9,10,49,3,6,6,.,.,C,546
9,10,50,3,2,5,X,X,C,546
9,11,1,3,2,5,X,X,C,555
9,11,2,3,3,1,C,C,C,574
9,11,3,3,2,5,X,X,C,514
9,11,4,3,1,2,Z,Z,C,592
9,11,5,3,3,1,C,C,C,434
9,11,6,3,4,4,M,M,C,482
9,11,7,3,4,4,M,M,C,485
9,11,8,3,5,3,",",",",C,494
9,11,9,3,4,4,M,M,C,526
9,11,10,3,3,1,C,C,C,530
9,11,11,3,6,6,.,.,C,734
9,11,12,3,4,4,M,M,C,526
9,11,13,3,3,1,C,C,C,578
9,11,14,3,5,3,",",",",C,514
9,11,15,3,2,5,X,X,C,578
9,11,16,3,5,3,",",",",C,674
9,11,17,3,4,4,M,M,C,654
9,11,18,3,6,6,.,.,C,546
9,11,19,3,4,4,.,M,I,562
9,11,20,3,5,3,",",",",C,542
9,11,21,3,1,2,Z,Z,C,578
9,11,22,3,6,6,.,.,C,546
9,11,23,3,4,4,M,M,C,898
9,11,24,3,4,4,M,M,C,386
9,11,25,3,5,3,",",",",C,478
9,11,26,3,3,1,C,C,C,882
9,11,27,3,2,5,X,X,C,721
9,11,28,3,3,1,C,C,C,750
9,11,29,3,1,2,Z,Z,C,578
9,11,30,3,3,1,C,C,C,562
9,11,31,3,1,2,Z,Z,C,638
9,11,32,3,2,5,X,X,C,578
9,11,33,3,1,2,Z,Z,C,610
9,11,34,3,4,4,M,M,C,562
9,11,35,3,2,5,X,X,C,578
9,11,36,3,2,5,X,X,C,658
9,11,37,3,2,5,X,X,C,626
9,11,38,3,2,5,X,X,C,578
9,11,39,3,5,3,",",",",C,594
9,11,40,3,6,6,.,.,C,562
9,11,41,3,2,5,X,X,C,530
9,11,42,3,1,2,Z,Z,C,618
9,11,43,3,1,2,Z,Z,C,802
9,11,44,3,4,4,M,M,C,594
9,11,45,3,1,2,Z,Z,C,594
9,11,46,3,1,2,Z,Z,C,786
9,11,47,3,5,3,",",",",C,610
9,11,48,3,2,5,X,X,C,1842
9,11,49,3,1,2,Z,Z,C,654
9,11,50,3,1,2,Z,Z,C,930
9,12,1,3,3,1,C,C,C,658
9,12,2,3,2,5,X,X,C,593
9,12,3,3,2,5,X,X,C,562
9,12,4,3,6,6,.,.,C,626
9,12,5,3,2,5,X,X,C,613
9,12,6,3,3,1,C,C,C,690
9,12,7,3,6,6,.,.,C,510
9,12,8,3,1,2,Z,Z,C,594
9,12,9,3,2,5,X,X,C,594
9,12,10,3,1,2,Z,Z,C,546
9,12,11,3,1,2,Z,Z,C,546
9,12,12,3,6,6,.,.,C,418
9,12,13,3,4,4,M,M,C,946
9,12,14,3,6,6,.,.,C,382
9,12,15,3,6,6,.,.,C,450
9,12,16,3,3,1,X,C,I,498
9,12,17,3,6,6,.,.,C,702
9,12,18,3,4,4,M,M,C,546
9,12,19,3,6,6,.,.,C,562
9,12,20,3,5,3,",",",",C,530
9,12,21,3,6,6,.,.,C,514
9,12,22,3,6,6,.,.,C,402
9,12,23,3,2,5,X,X,C,658
9,12,24,3,5,3,",",",",C,706
9,12,25,3,6,6,.,.,C,498
9,12,26,3,4,4,M,M,C,722
9,12,27,3,6,6,.,.,C,466
9,12,28,3,3,1,C,C,C,801
9,12,29,3,4,4,M,M,C,802
9,12,30,3,6,6,.,.,C,450
9,12,31,3,6,6,.,.,C,418
9,12,32,3,5,3,",",",",C,558
9,12,33,3,2,5,X,X,C,1346
9,12,34,3,6,6,.,.,C,866
9,12,35,3,2,5,X,X,C,578
9,12,36,3,6,6,.,.,C,514
9,12,37,3,5,3,",",",",C,522
9,12,38,3,6,6,.,.,C,418
9,12,39,3,3,1,C,C,C,578
9,12,40,3,1,2,Z,Z,C,578
9,12,41,3,5,3,",",",",C,558
9,12,42,3,3,1,C,C,C,590
9,12,43,3,4,4,M,M,C,578
9,12,44,3,1,2,Z,Z,C,530
9,12,45,3,4,4,M,M,C,670
9,12,46,3,3,1,C,C,C,642
9,12,47,3,1,2,Z,Z,C,530
9,12,48,3,3,1,C,C,C,834
9,12,49,3,6,6,.,.,C,562
9,12,50,3,6,6,.,.,C,497
9,13,1,3,2,5,X,X,C,854
9,13,2,3,5,3,",",",",C,625
9,13,3,3,4,4,M,M,C,546
9,13,4,3,1,2,Z,Z,C,546
9,13,5,3,5,3,",",",",C,530
9,13,6,3,6,6,.,.,C,610
9,13,7,3,2,5,X,X,C,626
9,13,8,3,4,4,M,M,C,610
9,13,9,3,4,4,M,M,C,594
9,13,10,3,1,2,Z,Z,C,546
9,13,11,3,6,6,.,.,C,626
9,13,12,3,3,1,C,C,C,690
9,13,13,3,6,6,.,.,C,514
9,13,14,3,3,1,C,C,C,638
9,13,15,3,5,3,",",",",C,526
9,13,16,3,6,6,.,.,C,514
9,13,17,3,5,3,",",",",C,482
9,13,18,3,4,4,M,M,C,609
9,13,19,3,6,6,.,.,C,434
9,13,20,3,1,2,Z,Z,C,578
9,13,21,3,5,3,",",",",C,530
9,13,22,3,6,6,.,.,C,546
9,13,23,3,3,1,C,C,C,546
9,13,24,3,2,5,C,X,I,546
9,13,25,3,4,4,.,M,I,766
9,13,26,3,2,5,X,X,C,702
9,13,27,3,1,2,Z,Z,C,610
9,13,28,3,3,1,C,C,C,610
9,13,29,3,1,2,Z,Z,C,610
9,13,30,3,4,4,M,M,C,626
9,13,31,3,6,6,.,.,C,930
9,13,32,3,4,4,M,M,C,638
9,13,33,3,1,2,Z,Z,C,558
9,13,34,3,2,5,X,X,C,882
9,13,35,3,4,4,M,M,C,562
9,13,36,3,1,2,Z,Z,C,674
9,13,37,3,1,2,Z,Z,C,510
9,13,38,3,4,4,M,M,C,978
9,13,39,3,4,4,M,M,C,514
9,13,40,3,6,6,.,.,C,610
9,13,41,3,2,5,X,X,C,642
9,13,42,3,1,2,Z,Z,C,818
9,13,43,3,6,6,.,.,C,753
9,13,44,3,1,2,Z,Z,C,622
9,13,45,3,3,1,C,C,C,946
9,13,46,3,2,5,X,X,C,578
9,13,47,3,4,4,M,M,C,546
9,13,48,3,1,2,.,Z,I,514
9,13,49,3,5,3,",",",",C,558
9,13,50,3,5,3,",",",",C,530
9,14,1,3,3,1,C,C,C,586
9,14,2,3,2,5,X,X,C,561
9,14,3,3,1,2,Z,Z,C,546
9,14,4,3,5,3,",",",",C,530
9,14,5,3,1,2,Z,Z,C,626
9,14,6,3,5,3,",",",",C,530
9,14,7,3,6,6,.,.,C,561
9,14,8,3,3,1,C,C,C,402
9,14,9,3,3,1,C,C,C,386
9,14,10,3,4,4,M,M,C,573
9,14,11,3,1,2,Z,Z,C,626
9,14,12,3,4,4,M,M,C,594
9,14,13,3,4,4,M,M,C,486
9,14,14,3,4,4,M,M,C,642
9,14,15,3,4,4,M,M,C,305
9,14,16,3,4,4,M,M,C,353
9,14,17,3,3,1,C,C,C,609
9,14,18,3,3,1,C,C,C,418
9,14,19,3,6,6,.,.,C,706
9,14,20,3,3,1,C,C,C,610
9,14,21,3,4,4,M,M,C,514
9,14,22,3,2,5,X,X,C,562
9,14,23,3,5,3,",",",",C,562
9,14,24,3,1,2,Z,Z,C,546
9,14,25,3,5,3,",",",",C,562
9,14,26,3,5,3,",",",",C,557
9,14,27,3,4,4,M,M,C,545
9,14,28,3,4,4,M,M,C,577
9,14,29,3,3,1,Z,C,I,642
9,14,30,3,4,4,M,M,C,574
9,14,31,3,1,2,Z,Z,C,530
9,14,32,3,1,2,Z,Z,C,546
9,14,33,3,6,6,.,.,C,593
9,14,34,3,1,2,Z,Z,C,738
9,14,35,3,1,2,Z,Z,C,529
9,14,36,3,1,2,Z,Z,C,434
9,14,37,3,2,5,X,X,C,530
9,14,38,3,1,2,Z,Z,C,562
9,14,39,3,4,4,M,M,C,414
9,14,40,3,2,5,X,X,C,462
9,14,41,3,4,4,M,M,C,578
9,14,42,3,2,5,X,X,C,578
9,14,43,3,4,4,M,M,C,369
9,14,44,3,2,5,X,X,C,354
9,14,45,3,4,4,M,M,C,513
9,14,46,3,6,6,.,.,C,530
9,14,47,3,2,5,X,X,C,526
9,14,48,3,1,2,Z,Z,C,578
9,14,49,3,6,6,.,.,C,546
9,14,50,3,3,1,C,C,C,562
9,15,1,3,3,1,C,C,C,646
9,15,2,3,2,5,X,X,C,593
9,15,3,3,1,2,Z,Z,C,658
9,15,4,3,5,3,",",",",C,546
9,15,5,3,1,2,Z,Z,C,578
9,15,6,3,1,2,Z,Z,C,546
9,15,7,3,4,4,M,M,C,558
9,15,8,3,4,4,M,M,C,498
9,15,9,3,1,2,.,Z,I,610
9,15,10,3,5,3,",",",",C,1038
9,15,11,3,1,2,Z,Z,C,802
9,15,12,3,3,1,C,C,C,882
9,15,13,3,5,3,",",",",C,674
9,15,14,3,4,4,M,M,C,865
9,15,15,3,6,6,.,.,C,562
9,15,16,3,6,6,.,.,C,514
9,15,17,3,1,2,Z,Z,C,801
9,15,18,3,5,3,",",",",C,594
9,15,19,3,4,4,M,M,C,590
9,15,20,3,6,6,.,.,C,482
9,15,21,3,3,1,X,C,I,594
9,15,22,3,4,4,M,M,C,637
9,15,23,3,5,3,",",",",C,594
9,15,24,3,6,6,.,.,C,514
9,15,25,3,2,5,X,X,C,898
9,15,26,3,3,1,C,C,C,610
9,15,27,3,3,1,C,C,C,626
9,15,28,3,3,1,C,C,C,610
9,15,29,3,2,5,X,X,C,670
9,15,30,3,1,2,Z,Z,C,578
9,15,31,3,3,1,C,C,C,626
9,15,32,3,6,6,.,.,C,589
9,15,33,3,2,5,X,X,C,578
9,15,34,3,5,3,",",",",C,562
9,15,35,3,3,1,C,C,C,514
9,15,36,3,3,1,C,C,C,542
9,15,37,3,6,6,",",.,I,546
9,15,38,3,4,4,M,M,C,513
9,15,39,3,3,1,C,C,C,610
9,15,40,3,3,1,C,C,C,418
9,15,41,3,2,5,X,X,C,562
9,15,42,3,1,2,Z,Z,C,578
9,15,43,3,5,3,",",",",C,562
9,15,44,3,4,4,M,M,C,578
9,15,45,3,5,3,",",",",C,542
9,15,46,3,5,3,",",",",C,606
9,15,47,3,4,4,M,M,C,498
9,15,48,3,3,1,C,C,C,610
9,15,49,3,3,1,C,C,C,465
9,15,50,3,4,4,M,M,C,573
8,1,1,2,5,5,Z,",",I,24842
8,1,2,2,6,2,.,.,C,3779
8,1,3,2,3,1,C,C,C,866
8,1,4,2,5,5,",",",",C,738
8,1,5,2,1,6,Z,Z,C,850
8,1,6,2,2,4,X,X,C,579
8,1,7,2,6,2,.,.,C,675
8,1,8,2,3,1,C,C,C,818
8,1,9,2,4,3,M,M,C,834
8,1,10,2,4,3,M,M,C,883
8,1,11,2,1,6,Z,Z,C,611
8,1,12,2,3,1,C,C,C,739
8,1,13,2,2,4,X,X,C,642
8,1,14,2,5,5,",",",",C,771
8,1,15,2,3,1,C,C,C,659
8,1,16,2,1,6,Z,Z,C,627
8,1,17,2,2,4,X,X,C,610
8,1,18,2,1,6,Z,Z,C,530
8,1,19,2,4,3,M,M,C,643
8,1,20,2,2,4,X,X,C,546
8,1,21,2,5,5,",",",",C,755
8,1,22,2,2,4,X,X,C,498
8,1,23,2,3,1,C,C,C,546
8,1,24,2,3,1,C,C,C,546
8,1,25,2,4,3,M,M,C,562
8,1,26,2,2,4,X,X,C,627
8,1,27,2,5,5,",",",",C,578
8,1,28,2,5,5,",",",",C,594
8,1,29,2,4,3,M,M,C,738
8,1,30,2,3,1,C,C,C,626
8,1,31,2,6,2,.,.,C,739
8,1,32,2,2,4,X,X,C,514
8,1,33,2,2,4,X,X,C,498
8,1,34,2,2,4,X,X,C,497
8,1,35,2,2,4,X,X,C,483
8,1,36,2,3,1,C,C,C,690
8,1,37,2,6,2,.,.,C,674
8,1,38,2,6,2,.,.,C,514
8,1,39,2,1,6,Z,Z,C,626
8,1,40,2,1,6,Z,Z,C,514
8,1,41,2,4,3,M,M,C,626
8,1,42,2,2,4,X,X,C,850
8,1,43,2,4,3,M,M,C,498
8,1,44,2,4,3,M,M,C,434
8,1,45,2,6,2,.,.,C,562
8,1,46,2,6,2,.,.,C,578
8,1,47,2,2,4,X,X,C,514
8,1,48,2,2,4,X,X,C,578
8,1,49,2,1,6,Z,Z,C,450
8,1,50,2,2,4,X,X,C,434
8,2,1,2,4,3,C,M,I,602
8,2,2,2,4,3,M,M,C,467
8,2,3,2,2,4,X,X,C,418
8,2,4,2,2,4,X,X,C,402
8,2,5,2,4,3,M,M,C,482
8,2,6,2,3,1,C,C,C,498
8,2,7,2,1,6,Z,Z,C,434
8,2,8,2,2,4,X,X,C,434
8,2,9,2,6,2,.,.,C,499
8,2,10,2,6,2,.,.,C,467
8,2,11,2,2,4,X,X,C,418
8,2,12,2,1,6,Z,Z,C,354
8,2,13,2,5,5,",",",",C,610
8,2,14,2,2,4,X,X,C,498
8,2,15,2,6,2,.,.,C,451
8,2,16,2,5,5,",",",",C,467
8,2,17,2,4,3,M,M,C,403
8,2,18,2,4,3,M,M,C,483
8,2,19,2,4,3,M,M,C,450
8,2,20,2,2,4,X,X,C,450
8,2,21,2,3,1,C,C,C,467
8,2,22,2,2,4,X,X,C,450
8,2,23,2,3,1,C,C,C,483
8,2,24,2,2,4,X,X,C,402
8,2,25,2,1,6,Z,Z,C,499
8,2,26,2,1,6,Z,Z,C,402
8,2,27,2,2,4,X,X,C,402
8,2,28,2,3,1,C,C,C,467
8,2,29,2,6,2,.,.,C,419
8,2,30,2,1,6,Z,Z,C,402
8,2,31,2,5,5,",",",",C,531
8,2,32,2,2,4,X,X,C,514
8,2,33,2,2,4,X,X,C,435
8,2,34,2,1,6,Z,Z,C,434
8,2,35,2,2,4,X,X,C,450
8,2,36,2,5,5,",",",",C,642
8,2,37,2,2,4,X,X,C,402
8,2,38,2,5,5,",",",",C,482
8,2,39,2,4,3,C,M,I,562
8,2,40,2,5,5,",",",",C,483
8,2,41,2,5,5,",",",",C,403
8,2,42,2,3,1,C,C,C,562
8,2,43,2,4,3,M,M,C,594
8,2,44,2,3,1,C,C,C,658
8,2,45,2,3,1,C,C,C,594
8,2,46,2,4,3,M,M,C,563
8,2,47,2,6,2,.,.,C,498
8,2,48,2,5,5,",",",",C,498
8,2,49,2,5,5,",",",",C,466
8,2,50,2,5,5,",",",",C,722
8,3,1,2,4,3,C,M,I,490
8,3,2,2,1,6,Z,Z,C,579
8,3,3,2,5,5,",",",",C,466
8,3,4,2,5,5,",",",",C,434
8,3,5,2,1,6,Z,Z,C,434
8,3,6,2,1,6,Z,Z,C,466
8,3,7,2,4,3,M,M,C,498
8,3,8,2,1,6,Z,Z,C,418
8,3,9,2,4,3,M,M,C,514
8,3,10,2,2,4,X,X,C,482
8,3,11,2,1,6,Z,Z,C,418
8,3,12,2,6,2,.,.,C,514
8,3,13,2,1,6,Z,Z,C,419
8,3,14,2,3,1,C,C,C,611
8,3,15,2,4,3,M,M,C,498
8,3,16,2,4,3,M,M,C,387
8,3,17,2,2,4,X,X,C,450
8,3,18,2,4,3,M,M,C,483
8,3,19,2,1,6,Z,Z,C,419
8,3,20,2,5,5,",",",",C,531
8,3,21,2,6,2,.,.,C,451
8,3,22,2,1,6,Z,Z,C,354
8,3,23,2,2,4,X,X,C,450
8,3,24,2,1,6,Z,Z,C,419
8,3,25,2,2,4,X,X,C,418
8,3,26,2,4,3,M,M,C,483
8,3,27,2,2,4,X,X,C,451
8,3,28,2,3,1,C,C,C,642
8,3,29,2,1,6,Z,Z,C,402
8,3,30,2,4,3,M,M,C,546
8,3,31,2,5,5,",",",",C,514
8,3,32,2,3,1,C,C,C,594
8,3,33,2,2,4,X,X,C,674
8,3,34,2,2,4,X,X,C,482
8,3,35,2,5,5,",",",",C,546
8,3,36,2,5,5,",",",",C,338
8,3,37,2,4,3,M,M,C,530
8,3,38,2,5,5,",",",",C,498
8,3,39,2,4,3,M,M,C,594
8,3,40,2,4,3,M,M,C,466
8,3,41,2,3,1,C,C,C,482
8,3,42,2,2,4,X,X,C,466
8,3,43,2,2,4,X,X,C,466
8,3,44,2,4,3,M,M,C,434
8,3,45,2,6,2,.,.,C,466
8,3,46,2,6,2,.,.,C,418
8,3,47,2,1,6,Z,Z,C,434
8,3,48,2,1,6,Z,Z,C,434
8,3,49,2,5,5,",",",",C,626
8,3,50,2,4,3,M,M,C,386
8,4,1,2,6,2,.,.,C,475
8,4,2,2,1,6,Z,Z,C,417
8,4,3,2,5,5,",",",",C,451
8,4,4,2,4,3,M,M,C,338
8,4,5,2,5,5,",",",",C,466
8,4,6,2,2,4,X,X,C,435
8,4,7,2,3,1,C,C,C,451
8,4,8,2,2,4,X,X,C,434
8,4,9,2,6,2,.,.,C,530
8,4,10,2,3,1,C,C,C,546
8,4,11,2,2,4,X,X,C,386
8,4,12,2,3,1,C,C,C,434
8,4,13,2,5,5,",",",",C,434
8,4,14,2,1,6,Z,Z,C,434
8,4,15,2,6,2,.,.,C,418
8,4,16,2,2,4,X,X,C,418
8,4,17,2,6,2,.,.,C,402
8,4,18,2,2,4,Z,X,I,402
8,4,19,2,5,5,",",",",C,483
8,4,20,2,5,5,",",",",C,370
8,4,21,2,1,6,Z,Z,C,386
8,4,22,2,5,5,",",",",C,402
8,4,23,2,6,2,.,.,C,386
8,4,24,2,6,2,.,.,C,434
8,4,25,2,2,4,X,X,C,418
8,4,26,2,1,6,Z,Z,C,370
8,4,27,2,3,1,C,C,C,498
8,4,28,2,1,6,Z,Z,C,387
8,4,29,2,4,3,M,M,C,547
8,4,30,2,4,3,M,M,C,354
8,4,31,2,6,2,.,.,C,386
8,4,32,2,3,1,C,C,C,498
8,4,33,2,3,1,C,C,C,418
8,4,34,2,1,6,Z,Z,C,370
8,4,35,2,3,1,C,C,C,402
8,4,36,2,3,1,X,C,I,306
8,4,37,2,2,4,C,X,I,419
8,4,38,2,3,1,C,C,C,402
8,4,39,2,4,3,M,M,C,435
8,4,40,2,6,2,.,.,C,403
8,4,41,2,3,1,C,C,C,387
8,4,42,2,6,2,.,.,C,355
8,4,43,2,3,1,C,C,C,403
8,4,44,2,4,3,C,M,I,403
8,4,45,2,1,6,Z,Z,C,435
8,4,46,2,3,1,C,C,C,595
8,4,47,2,2,4,X,X,C,482
8,4,48,2,1,6,Z,Z,C,370
8,4,49,2,6,2,.,.,C,402
8,4,50,2,3,1,C,C,C,467
8,5,1,2,4,3,C,M,I,475
8,5,2,2,3,1,C,C,C,466
8,5,3,2,2,4,X,X,C,450
8,5,4,2,3,1,C,C,C,498
8,5,5,2,4,3,M,M,C,338
8,5,6,2,2,4,X,X,C,386
8,5,7,2,5,5,",",",",C,690
8,5,8,2,4,3,C,M,I,451
8,5,9,2,2,4,X,X,C,578
8,5,10,2,3,1,C,C,C,371
8,5,11,2,3,1,C,C,C,403
8,5,12,2,3,1,C,C,C,547
8,5,13,2,2,4,X,X,C,435
8,5,14,2,6,2,.,.,C,371
8,5,15,2,1,6,Z,Z,C,514
8,5,16,2,4,3,M,M,C,563
8,5,17,2,4,3,M,M,C,387
8,5,18,2,6,2,.,.,C,499
8,5,19,2,6,2,.,.,C,386
8,5,20,2,2,4,X,X,C,418
8,5,21,2,2,4,X,X,C,354
8,5,22,2,5,5,",",",",C,514
8,5,23,2,1,6,Z,Z,C,402
8,5,24,2,6,2,.,.,C,355
8,5,25,2,3,1,C,C,C,498
8,5,26,2,3,1,C,C,C,339
8,5,27,2,6,2,.,.,C,371
8,5,28,2,6,2,.,.,C,387
8,5,29,2,2,4,X,X,C,466
8,5,30,2,3,1,C,C,C,434
8,5,31,2,4,3,M,M,C,546
8,5,32,2,1,6,Z,Z,C,435
8,5,33,2,5,5,",",",",C,450
8,5,34,2,5,5,",",",",C,402
8,5,35,2,1,6,Z,Z,C,402
8,5,36,2,6,2,.,.,C,386
8,5,37,2,6,2,.,.,C,450
8,5,38,2,6,2,.,.,C,450
8,5,39,2,2,4,X,X,C,434
8,5,40,2,1,6,Z,Z,C,386
8,5,41,2,3,1,C,C,C,387
8,5,42,2,5,5,",",",",C,450
8,5,43,2,5,5,",",",",C,370
8,5,44,2,1,6,Z,Z,C,338
8,5,45,2,2,4,X,X,C,339
8,5,46,2,6,2,",",.,I,354
8,5,47,2,4,3,M,M,C,531
8,5,48,2,5,5,",",",",C,418
8,5,49,2,1,6,Z,Z,C,434
8,5,50,2,3,1,C,C,C,498
8,6,1,2,1,6,Z,Z,C,395
8,6,2,2,2,4,X,X,C,338
8,6,3,2,5,5,",",",",C,498
8,6,4,2,2,4,X,X,C,451
8,6,5,2,4,3,M,M,C,483
8,6,6,2,3,1,C,C,C,467
8,6,7,2,2,4,X,X,C,402
8,6,8,2,1,6,Z,Z,C,434
8,6,9,2,1,6,Z,Z,C,370
8,6,10,2,6,2,.,.,C,451
8,6,11,2,5,5,",",",",C,355
8,6,12,2,2,4,X,X,C,402
8,6,13,2,3,1,C,C,C,450
8,6,14,2,3,1,C,C,C,386
8,6,15,2,3,1,C,C,C,370
8,6,16,2,2,4,X,X,C,434
8,6,17,2,6,2,.,.,C,402
8,6,18,2,5,5,",",",",C,386
8,6,19,2,3,1,C,C,C,466
8,6,20,2,5,5,",",",",C,370
8,6,21,2,4,3,C,M,I,402
8,6,22,2,4,3,M,M,C,467
8,6,23,2,6,2,.,.,C,402
8,6,24,2,6,2,.,.,C,418
8,6,25,2,5,5,",",",",C,402
8,6,26,2,2,4,X,X,C,482
8,6,27,2,1,6,Z,Z,C,354
8,6,28,2,1,6,Z,Z,C,386
8,6,29,2,4,3,M,M,C,435
8,6,30,2,3,1,X,C,I,546
8,6,31,2,6,2,.,.,C,482
8,6,32,2,2,4,X,X,C,403
8,6,33,2,4,3,M,M,C,674
8,6,34,2,6,2,.,.,C,434
8,6,35,2,3,1,C,C,C,514
8,6,36,2,3,1,C,C,C,386
8,6,37,2,5,5,",",",",C,403
8,6,38,2,3,1,C,C,C,467
8,6,39,2,5,5,",",",",C,403
8,6,40,2,1,6,Z,Z,C,419
8,6,41,2,6,2,.,.,C,403
8,6,42,2,2,4,X,X,C,402
8,6,43,2,6,2,.,.,C,403
8,6,44,2,1,6,Z,Z,C,371
8,6,45,2,1,6,Z,Z,C,371
8,6,46,2,3,1,C,C,C,403
8,6,47,2,2,4,X,X,C,403
8,6,48,2,1,6,Z,Z,C,435
8,6,49,2,5,5,",",",",C,451
8,6,50,2,4,3,M,M,C,611
8,7,1,2,2,4,X,X,C,458
8,7,2,2,4,3,M,M,C,434
8,7,3,2,2,4,X,X,C,386
8,7,4,2,1,6,X,Z,I,355
8,7,5,2,3,1,C,C,C,451
8,7,6,2,5,5,",",",",C,434
8,7,7,2,3,1,C,C,C,418
8,7,8,2,2,4,X,X,C,450
8,7,9,2,4,3,M,M,C,466
8,7,10,2,2,4,X,X,C,482
8,7,11,2,6,2,.,.,C,370
8,7,12,2,6,2,.,.,C,466
8,7,13,2,1,6,Z,Z,C,370
8,7,14,2,3,1,C,C,C,546
8,7,15,2,6,2,.,.,C,371
8,7,16,2,5,5,",",",",C,386
8,7,17,2,5,5,",",",",C,371
8,7,18,2,6,2,.,.,C,371
8,7,19,2,2,4,X,X,C,354
8,7,20,2,1,6,Z,Z,C,322
8,7,21,2,6,2,.,.,C,387
8,7,22,2,3,1,C,C,C,483
8,7,23,2,5,5,",",",",C,403
8,7,24,2,2,4,X,X,C,387
8,7,25,2,1,6,Z,Z,C,403
8,7,26,2,6,2,.,.,C,355
8,7,27,2,2,4,X,X,C,402
8,7,28,2,1,6,Z,Z,C,387
8,7,29,2,2,4,X,X,C,498
8,7,30,2,4,3,",",M,I,403
8,7,31,2,6,2,.,.,C,547
8,7,32,2,5,5,",",",",C,467
8,7,33,2,6,2,.,.,C,451
8,7,34,2,1,6,Z,Z,C,387
8,7,35,2,1,6,Z,Z,C,371
8,7,36,2,5,5,",",",",C,371
8,7,37,2,1,6,Z,Z,C,370
8,7,38,2,5,5,",",",",C,403
8,7,39,2,1,6,Z,Z,C,419
8,7,40,2,5,5,",",",",C,370
8,7,41,2,5,5,",",",",C,307
8,7,42,2,2,4,X,X,C,386
8,7,43,2,6,2,",",.,I,338
8,7,44,2,1,6,Z,Z,C,578
8,7,45,2,2,4,X,X,C,370
8,7,46,2,4,3,M,M,C,419
8,7,47,2,1,6,Z,Z,C,370
8,7,48,2,2,4,X,X,C,402
8,7,49,2,1,6,Z,Z,C,386
8,7,50,2,3,1,C,C,C,498
8,8,1,2,3,1,C,C,C,459
8,8,2,2,1,6,Z,Z,C,434
8,8,3,2,3,1,C,C,C,339
8,8,4,2,4,3,M,M,C,466
8,8,5,2,4,3,M,M,C,338
8,8,6,2,3,1,C,C,C,483
8,8,7,2,5,5,",",",",C,435
8,8,8,2,3,1,C,C,C,419
8,8,9,2,5,5,",",",",C,419
8,8,10,2,3,1,C,C,C,579
8,8,11,2,4,3,M,M,C,659
8,8,12,2,1,6,Z,Z,C,451
8,8,13,2,4,3,M,M,C,403
8,8,14,2,1,6,Z,Z,C,466
8,8,15,2,5,5,",",",",C,419
8,8,16,2,2,4,X,X,C,418
8,8,17,2,4,3,M,M,C,387
8,8,18,2,3,1,C,C,C,466
8,8,19,2,4,3,M,M,C,370
8,8,20,2,1,6,Z,Z,C,402
8,8,21,2,5,5,",",",",C,386
8,8,22,2,3,1,C,C,C,466
8,8,23,2,1,6,Z,Z,C,354
8,8,24,2,6,2,.,.,C,466
8,8,25,2,4,3,M,M,C,306
8,8,26,2,6,2,.,.,C,418
8,8,27,2,4,3,C,M,I,402
8,8,28,2,5,5,",",",",C,403
8,8,29,2,2,4,X,X,C,450
8,8,30,2,1,6,Z,Z,C,402
8,8,31,2,6,2,M,.,I,354
8,8,32,2,6,2,.,.,C,562
8,8,33,2,2,4,",",X,I,450
8,8,34,2,6,2,.,.,C,418
8,8,35,2,3,1,M,C,I,450
8,8,36,2,5,5,",",",",C,450
8,8,37,2,3,1,C,C,C,578
8,8,38,2,3,1,C,C,C,418
8,8,39,2,3,1,C,C,C,403
8,8,40,2,2,4,X,X,C,403
8,8,41,2,6,2,.,.,C,371
8,8,42,2,4,3,M,M,C,1074
8,8,43,2,5,5,",",",",C,531
8,8,44,2,5,5,",",",",C,339
8,8,45,2,5,5,",",",",C,594
8,8,46,2,6,2,.,.,C,531
8,8,47,2,3,1,C,C,C,530
8,8,48,2,4,3,M,M,C,419
8,8,49,2,3,1,C,C,C,482
8,8,50,2,2,4,X,X,C,435
8,9,1,2,1,6,Z,Z,C,458
8,9,2,2,1,6,Z,Z,C,370
8,9,3,2,5,5,",",",",C,450
8,9,4,2,3,1,C,C,C,466
8,9,5,2,1,6,Z,Z,C,418
8,9,6,2,6,2,M,.,I,498
8,9,7,2,2,4,X,X,C,643
8,9,8,2,4,3,M,M,C,482
8,9,9,2,6,2,.,.,C,434
8,9,10,2,2,4,X,X,C,402
8,9,11,2,3,1,C,C,C,435
8,9,12,2,5,5,",",",",C,418
8,9,13,2,4,3,C,M,I,434
8,9,14,2,1,6,Z,Z,C,403
8,9,15,2,3,1,C,C,C,450
8,9,16,2,2,4,X,X,C,451
8,9,17,2,5,5,",",",",C,467
8,9,18,2,1,6,Z,Z,C,370
8,9,19,2,5,5,",",",",C,354
8,9,20,2,5,5,",",",",C,371
8,9,21,2,4,3,M,M,C,434
8,9,22,2,3,1,C,C,C,483
8,9,23,2,4,3,M,M,C,483
8,9,24,2,3,1,C,C,C,579
8,9,25,2,5,5,",",",",C,387
8,9,26,2,6,2,.,.,C,419
8,9,27,2,5,5,",",",",C,355
8,9,28,2,5,5,",",",",C,403
8,9,29,2,6,2,.,.,C,435
8,9,30,2,6,2,.,.,C,371
8,9,31,2,2,4,",",X,I,370
8,9,32,2,2,4,X,X,C,403
8,9,33,2,2,4,X,X,C,354
8,9,34,2,1,6,Z,Z,C,418
8,9,35,2,1,6,Z,Z,C,435
8,9,36,2,4,3,M,M,C,450
8,9,37,2,2,4,X,X,C,434
8,9,38,2,1,6,Z,Z,C,434
8,9,39,2,6,2,.,.,C,386
8,9,40,2,1,6,Z,Z,C,402
8,9,41,2,1,6,Z,Z,C,386
8,9,42,2,3,1,C,C,C,578
8,9,43,2,1,6,Z,Z,C,402
8,9,44,2,5,5,",",",",C,514
8,9,45,2,3,1,C,C,C,514
8,9,46,2,5,5,",",",",C,466
8,9,47,2,2,4,X,X,C,450
8,9,48,2,3,1,C,C,C,434
8,9,49,2,3,1,C,C,C,402
8,9,50,2,2,4,X,X,C,418
8,10,1,2,3,1,C,C,C,443
8,10,2,2,6,2,.,.,C,530
8,10,3,2,2,4,X,X,C,291
8,10,4,2,5,5,M,",",I,323
8,10,5,2,3,1,C,C,C,483
8,10,6,2,2,4,X,X,C,434
8,10,7,2,5,5,",",",",C,514
8,10,8,2,6,2,.,.,C,498
8,10,9,2,3,1,C,C,C,467
8,10,10,2,2,4,X,X,C,306
8,10,11,2,1,6,Z,Z,C,386
8,10,12,2,2,4,X,X,C,386
8,10,13,2,5,5,",",",",C,371
8,10,14,2,3,1,X,C,I,402
8,10,15,2,1,6,Z,Z,C,514
8,10,16,2,2,4,X,X,C,370
8,10,17,2,6,2,",",.,I,498
8,10,18,2,3,1,C,C,C,434
8,10,19,2,5,5,",",",",C,562
8,10,20,2,1,6,Z,Z,C,402
8,10,21,2,6,2,.,.,C,435
8,10,22,2,2,4,X,X,C,402
8,10,23,2,1,6,Z,Z,C,402
8,10,24,2,4,3,M,M,C,450
8,10,25,2,1,6,Z,Z,C,418
8,10,26,2,4,3,M,M,C,434
8,10,27,2,1,6,Z,Z,C,418
8,10,28,2,4,3,C,M,I,402
8,10,29,2,4,3,M,M,C,435
8,10,30,2,1,6,Z,Z,C,402
8,10,31,2,1,6,Z,Z,C,387
8,10,32,2,2,4,X,X,C,402
8,10,33,2,5,5,M,",",I,355
8,10,34,2,3,1,C,C,C,738
8,10,35,2,1,6,Z,Z,C,466
8,10,36,2,5,5,",",",",C,499
8,10,37,2,1,6,Z,Z,C,418
8,10,38,2,5,5,",",",",C,419
8,10,39,2,3,1,C,C,C,467
8,10,40,2,6,2,.,.,C,482
8,10,41,2,2,4,X,X,C,402
8,10,42,2,5,5,",",",",C,418
8,10,43,2,1,6,Z,Z,C,435
8,10,44,2,1,6,Z,Z,C,419
8,10,45,2,5,5,",",",",C,419
8,10,46,2,5,5,",",",",C,371
8,10,47,2,4,3,M,M,C,483
8,10,48,2,1,6,Z,Z,C,435
8,10,49,2,3,1,C,C,C,435
8,10,50,2,2,4,X,X,C,355
8,11,1,2,6,1,M,.,I,890
8,11,2,2,1,2,Z,Z,C,930
8,11,3,2,3,5,X,C,I,1009
8,11,4,2,4,4,",",M,I,785
8,11,5,2,1,2,Z,Z,C,962
8,11,6,2,4,4,M,M,C,930
8,11,7,2,4,4,M,M,C,417
8,11,8,2,2,6,.,X,I,609
8,11,9,2,4,4,",",M,I,1089
8,11,10,2,2,6,C,X,I,1745
8,11,11,2,4,4,",",M,I,898
8,11,12,2,4,4,M,M,C,673
8,11,13,2,6,1,.,.,C,609
8,11,14,2,3,5,X,C,I,770
8,11,15,2,3,5,C,C,C,561
8,11,16,2,1,2,Z,Z,C,434
8,11,17,2,6,1,.,.,C,1090
8,11,18,2,1,2,Z,Z,C,530
8,11,19,2,1,2,Z,Z,C,482
8,11,20,2,3,5,C,C,C,1458
8,11,21,2,5,3,M,",",I,978
8,11,22,2,4,4,M,M,C,1506
8,11,23,2,4,4,M,M,C,609
8,11,24,2,5,3,M,",",I,578
8,11,25,2,5,3,",",",",C,642
8,11,26,2,2,6,C,X,I,2066
8,11,27,2,4,4,M,M,C,1185
8,11,28,2,4,4,M,M,C,498
8,11,29,2,2,6,X,X,C,1521
8,11,30,2,3,5,",",C,I,1041
8,11,31,2,1,2,Z,Z,C,866
8,11,32,2,4,4,",",M,I,786
8,11,33,2,3,5,C,C,C,1153
8,11,34,2,1,2,Z,Z,C,722
8,11,35,2,1,2,Z,Z,C,370
8,11,36,2,1,2,Z,Z,C,402
8,11,37,2,3,5,C,C,C,1714
8,11,38,2,1,2,Z,Z,C,706
8,11,39,2,1,2,Z,Z,C,290
8,11,40,2,2,6,M,X,I,1025
8,11,41,2,4,4,M,M,C,673
8,11,42,2,6,1,.,.,C,657
8,11,43,2,1,2,Z,Z,C,562
8,11,44,2,2,6,X,X,C,370
8,11,45,2,2,6,X,X,C,434
8,11,46,2,1,2,Z,Z,C,594
8,11,47,2,4,4,M,M,C,754
8,11,48,2,6,1,",",.,I,354
8,11,49,2,1,2,Z,Z,C,593
8,11,50,2,2,6,M,X,I,897
8,12,1,2,3,5,C,C,C,1578
8,12,2,2,5,3,M,",",I,578
8,12,3,2,2,6,X,X,C,754
8,12,4,2,5,3,",",",",C,578
8,12,5,2,6,1,.,.,C,1314
8,12,6,2,1,2,Z,Z,C,466
8,12,7,2,3,5,C,C,C,1666
8,12,8,2,3,5,C,C,C,834
8,12,9,2,1,2,Z,Z,C,562
8,12,10,2,1,2,Z,Z,C,450
8,12,11,2,5,3,",",",",C,706
8,12,12,2,5,3,",",",",C,578
8,12,13,2,6,1,.,.,C,914
8,12,14,2,2,6,X,X,C,754
8,12,15,2,2,6,X,X,C,482
8,12,16,2,5,3,",",",",C,562
8,12,17,2,6,1,.,.,C,978
8,12,18,2,5,3,",",",",C,658
8,12,19,2,2,6,X,X,C,1089
8,12,20,2,4,4,M,M,C,961
8,12,21,2,2,6,M,X,I,482
8,12,22,2,1,2,Z,Z,C,610
8,12,23,2,6,1,.,.,C,1010
8,12,24,2,5,3,",",",",C,786
8,12,25,2,5,3,",",",",C,626
8,12,26,2,2,6,X,X,C,658
8,12,27,2,2,6,X,X,C,450
8,12,28,2,6,1,.,.,C,610
8,12,29,2,3,5,C,C,C,1090
8,12,30,2,5,3,",",",",C,834
8,12,31,2,6,1,.,.,C,690
8,12,32,2,5,3,",",",",C,578
8,12,33,2,2,6,X,X,C,721
8,12,34,2,1,2,Z,Z,C,562
8,12,35,2,1,2,Z,Z,C,481
8,12,36,2,4,4,M,M,C,978
8,12,37,2,3,5,X,C,I,834
8,12,38,2,2,6,X,X,C,1042
8,12,39,2,2,6,X,X,C,450
8,12,40,2,1,2,Z,Z,C,514
8,12,41,2,4,4,M,M,C,929
8,12,42,2,2,6,X,X,C,497
8,12,43,2,1,2,Z,Z,C,466
8,12,44,2,4,4,M,M,C,962
8,12,45,2,3,5,X,C,I,578
8,12,46,2,2,6,X,X,C,1057
8,12,47,2,2,6,X,X,C,722
8,12,48,2,2,6,X,X,C,385
8,12,49,2,3,5,C,C,C,1089
8,12,50,2,3,5,C,C,C,578
8,13,1,2,6,1,.,.,C,1017
8,13,2,2,4,4,M,M,C,593
8,13,3,2,1,2,Z,Z,C,546
8,13,4,2,6,1,.,.,C,786
8,13,5,2,4,4,M,M,C,658
8,13,6,2,3,5,C,C,C,754
8,13,7,2,5,3,",",",",C,610
8,13,8,2,3,5,C,C,C,770
8,13,9,2,3,5,C,C,C,610
8,13,10,2,4,4,M,M,C,578
8,13,11,2,4,4,M,M,C,386
8,13,12,2,3,5,C,C,C,834
8,13,13,2,3,5,",",C,I,578
8,13,14,2,6,1,.,.,C,866
8,13,15,2,5,3,",",",",C,642
8,13,16,2,6,1,.,.,C,1057
8,13,17,2,2,6,X,X,C,705
8,13,18,2,6,1,X,.,I,401
8,13,19,2,5,3,",",",",C,706
8,13,20,2,4,4,M,M,C,578
8,13,21,2,3,5,C,C,C,930
8,13,22,2,3,5,C,C,C,370
8,13,23,2,6,1,.,.,C,834
8,13,24,2,5,3,",",",",C,641
8,13,25,2,6,1,.,.,C,545
8,13,26,2,4,4,M,M,C,705
8,13,27,2,1,2,Z,Z,C,546
8,13,28,2,4,4,Z,M,I,386
8,13,29,2,1,2,Z,Z,C,562
8,13,30,2,6,1,.,.,C,578
8,13,31,2,4,4,M,M,C,609
8,13,32,2,2,6,X,X,C,961
8,13,33,2,6,1,.,.,C,642
8,13,34,2,6,1,.,.,C,738
8,13,35,2,5,3,",",",",C,610
8,13,36,2,6,1,",",.,I,466
8,13,37,2,2,6,X,X,C,882
8,13,38,2,6,1,.,.,C,578
8,13,39,2,3,5,C,C,C,977
8,13,40,2,2,6,X,X,C,625
8,13,41,2,1,2,Z,Z,C,1010
8,13,42,2,1,2,Z,Z,C,914
8,13,43,2,6,1,.,.,C,706
8,13,44,2,1,2,Z,Z,C,978
8,13,45,2,2,6,X,X,C,770
8,13,46,2,6,1,.,.,C,562
8,13,47,2,5,3,",",",",C,753
8,13,48,2,6,1,.,.,C,881
8,13,49,2,4,4,M,M,C,561
8,13,50,2,4,4,M,M,C,1986
8,14,1,2,3,5,C,C,C,889
8,14,2,2,6,1,.,.,C,577
8,14,3,2,3,5,C,C,C,1074
8,14,4,2,5,3,",",",",C,498
8,14,5,2,3,5,C,C,C,658
8,14,6,2,1,2,Z,Z,C,450
8,14,7,2,2,6,X,X,C,386
8,14,8,2,6,1,.,.,C,594
8,14,9,2,5,3,",",",",C,433
8,14,10,2,3,5,C,C,C,753
8,14,11,2,1,2,Z,Z,C,530
8,14,12,2,2,6,X,X,C,1090
8,14,13,2,3,5,",",C,I,530
8,14,14,2,6,1,.,.,C,642
8,14,15,2,4,4,M,M,C,866
8,14,16,2,3,5,C,C,C,658
8,14,17,2,2,6,X,X,C,530
8,14,18,2,5,3,",",",",C,546
8,14,19,2,1,2,Z,Z,C,482
8,14,20,2,4,4,M,M,C,738
8,14,21,2,6,1,.,.,C,642
8,14,22,2,1,2,Z,Z,C,514
8,14,23,2,5,3,",",",",C,466
8,14,24,2,1,2,Z,Z,C,514
8,14,25,2,1,2,Z,Z,C,418
8,14,26,2,5,3,",",",",C,529
8,14,27,2,4,4,M,M,C,482
8,14,28,2,6,1,.,.,C,546
8,14,29,2,5,3,",",",",C,498
8,14,30,2,3,5,C,C,C,818
8,14,31,2,2,6,X,X,C,1122
8,14,32,2,2,6,X,X,C,482
8,14,33,2,1,2,Z,Z,C,466
8,14,34,2,2,6,X,X,C,402
8,14,35,2,4,4,M,M,C,1137
8,14,36,2,4,4,M,M,C,546
8,14,37,2,2,6,X,X,C,546
8,14,38,2,5,3,",",",",C,594
8,14,39,2,6,1,.,.,C,626
8,14,40,2,1,2,Z,Z,C,498
8,14,41,2,1,2,Z,Z,C,513
8,14,42,2,5,3,",",",",C,498
8,14,43,2,5,3,",",",",C,481
8,14,44,2,2,6,X,X,C,514
8,14,45,2,2,6,X,X,C,562
8,14,46,2,6,1,.,.,C,546
8,14,47,2,3,5,C,C,C,1282
8,14,48,2,6,1,.,.,C,914
8,14,49,2,1,2,Z,Z,C,642
8,14,50,2,6,1,.,.,C,594
8,15,1,2,5,3,",",",",C,585
8,15,2,2,4,4,M,M,C,465
8,15,3,2,1,2,Z,Z,C,546
8,15,4,2,4,4,M,M,C,561
8,15,5,2,4,4,M,M,C,498
8,15,6,2,2,6,X,X,C,562
8,15,7,2,5,3,",",",",C,546
8,15,8,2,2,6,X,X,C,610
8,15,9,2,2,6,X,X,C,562
8,15,10,2,3,5,C,C,C,386
8,15,11,2,5,3,",",",",C,530
8,15,12,2,2,6,X,X,C,1154
8,15,13,2,5,3,",",",",C,625
8,15,14,2,5,3,",",",",C,610
8,15,15,2,4,4,M,M,C,706
8,15,16,2,5,3,",",",",C,482
8,15,17,2,4,4,M,M,C,546
8,15,18,2,6,1,.,.,C,498
8,15,19,2,3,5,C,C,C,657
8,15,20,2,3,5,C,C,C,594
8,15,21,2,6,1,X,.,I,401
8,15,22,2,5,3,",",",",C,514
8,15,23,2,4,4,M,M,C,418
8,15,24,2,4,4,M,M,C,466
8,15,25,2,1,2,Z,Z,C,514
8,15,26,2,2,6,X,X,C,722
8,15,27,2,2,6,X,X,C,818
8,15,28,2,6,1,.,.,C,578
8,15,29,2,4,4,M,M,C,1185
8,15,30,2,2,6,X,X,C,562
8,15,31,2,1,2,Z,Z,C,546
8,15,32,2,1,2,Z,Z,C,530
8,15,33,2,2,6,X,X,C,594
8,15,34,2,4,4,M,M,C,658
8,15,35,2,3,5,C,C,C,674
8,15,36,2,2,6,X,X,C,625
8,15,37,2,2,6,X,X,C,529
8,15,38,2,4,4,M,M,C,642
8,15,39,2,2,6,C,X,I,530
8,15,40,2,5,3,",",",",C,450
8,15,41,2,6,1,.,.,C,354
8,15,42,2,4,4,M,M,C,370
8,15,43,2,6,1,C,.,I,658
8,15,44,2,4,4,M,M,C,833
8,15,45,2,3,5,C,C,C,625
8,15,46,2,1,2,Z,Z,C,578
8,15,47,2,3,5,C,C,C,658
8,15,48,2,3,5,C,C,C,418
8,15,49,2,2,6,X,X,C,610
8,15,50,2,1,2,Z,Z,C,498
7,1,1,1,1,4,Z,Z,C,986
7,1,2,1,4,6,M,M,C,2930
7,1,3,1,5,1,C,",",I,1090
7,1,4,1,4,6,M,M,C,1412
7,1,5,1,6,5,.,.,C,771
7,1,6,1,6,5,M,.,I,754
7,1,7,1,4,6,M,M,C,1298
7,1,8,1,3,3,C,C,C,1186
7,1,9,1,1,4,Z,Z,C,771
7,1,10,1,5,1,",",",",C,1266
7,1,11,1,1,4,Z,Z,C,610
7,1,12,1,1,4,Z,Z,C,562
7,1,13,1,2,2,X,X,C,1171
7,1,14,1,6,5,.,.,C,723
7,1,15,1,2,2,X,X,C,899
7,1,16,1,2,2,X,X,C,531
7,1,17,1,2,2,X,X,C,451
7,1,18,1,5,1,",",",",C,867
7,1,19,1,1,4,Z,Z,C,578
7,1,20,1,5,1,",",",",C,995
7,1,21,1,5,1,",",",",C,611
7,1,22,1,2,2,X,X,C,691
7,1,23,1,2,2,X,X,C,434
7,1,24,1,4,6,M,M,C,963
7,1,25,1,2,2,X,X,C,627
7,1,26,1,4,6,M,M,C,850
7,1,27,1,1,4,Z,Z,C,627
7,1,28,1,5,1,",",",",C,658
7,1,29,1,3,3,X,C,I,690
7,1,30,1,1,4,Z,Z,C,625
7,1,31,1,4,6,M,M,C,1251
7,1,32,1,3,3,C,C,C,1218
7,1,33,1,6,5,.,.,C,626
7,1,34,1,3,3,C,C,C,1027
7,1,35,1,6,5,.,.,C,883
7,1,36,1,1,4,Z,Z,C,707
7,1,37,1,2,2,X,X,C,835
7,1,38,1,6,5,.,.,C,1011
7,1,39,1,5,1,",",",",C,947
7,1,40,1,1,4,Z,Z,C,515
7,1,41,1,4,6,M,M,C,1235
7,1,42,1,3,3,X,C,I,1458
7,1,43,1,1,4,Z,Z,C,786
7,1,44,1,4,6,M,M,C,1107
7,1,45,1,4,6,M,M,C,642
7,1,46,1,6,5,.,.,C,675
7,1,47,1,1,4,Z,Z,C,515
7,1,48,1,1,4,Z,Z,C,562
7,1,49,1,5,1,",",",",C,1235
7,1,50,1,5,1,",",",",C,691
7,2,1,1,4,6,M,M,C,1291
7,2,2,1,2,2,X,X,C,658
7,2,3,1,1,4,Z,Z,C,483
7,2,4,1,6,5,.,.,C,643
7,2,5,1,3,3,C,C,C,819
7,2,6,1,6,5,.,.,C,706
7,2,7,1,5,1,",",",",C,1154
7,2,8,1,1,4,Z,Z,C,547
7,2,9,1,1,4,Z,Z,C,515
7,2,10,1,4,6,M,M,C,787
7,2,11,1,6,5,.,.,C,643
7,2,12,1,6,5,.,.,C,626
7,2,13,1,6,5,.,.,C,499
7,2,14,1,3,3,X,C,I,787
7,2,15,1,4,6,M,M,C,1250
7,2,16,1,6,5,.,.,C,738
7,2,17,1,1,4,Z,Z,C,515
7,2,18,1,4,6,M,M,C,659
7,2,19,1,1,4,Z,Z,C,418
7,2,20,1,2,2,X,X,C,611
7,2,21,1,4,6,M,M,C,915
7,2,22,1,5,1,",",",",C,723
7,2,23,1,4,6,M,M,C,883
7,2,24,1,2,2,X,X,C,579
7,2,25,1,4,6,M,M,C,530
7,2,26,1,6,5,.,.,C,595
7,2,27,1,1,4,Z,Z,C,546
7,2,28,1,6,5,.,.,C,851
7,2,29,1,2,2,X,X,C,706
7,2,30,1,2,2,X,X,C,627
7,2,31,1,4,6,M,M,C,1154
7,2,32,1,6,5,.,.,C,642
7,2,33,1,3,3,C,C,C,898
7,2,34,1,3,3,C,C,C,530
7,2,35,1,3,3,C,C,C,642
7,2,36,1,3,3,C,C,C,562
7,2,37,1,6,5,.,.,C,643
7,2,38,1,2,2,X,X,C,578
7,2,39,1,4,6,M,M,C,1218
7,2,40,1,3,3,C,C,C,739
7,2,41,1,1,4,Z,Z,C,626
7,2,42,1,2,2,X,X,C,530
7,2,43,1,5,1,",",",",C,770
7,2,44,1,1,4,Z,Z,C,578
7,2,45,1,2,2,X,X,C,611
7,2,46,1,2,2,X,X,C,578
7,2,47,1,1,4,Z,Z,C,546
7,2,48,1,4,6,M,M,C,834
7,2,49,1,4,6,M,M,C,546
7,2,50,1,4,6,M,M,C,594
7,3,1,1,4,6,M,M,C,683
7,3,2,1,3,3,C,C,C,898
7,3,3,1,6,5,.,.,C,546
7,3,4,1,3,3,C,C,C,754
7,3,5,1,6,5,.,.,C,546
7,3,6,1,2,2,X,X,C,611
7,3,7,1,5,1,M,",",I,659
7,3,8,1,4,6,M,M,C,914
7,3,9,1,1,4,Z,Z,C,546
7,3,10,1,5,1,",",",",C,594
7,3,11,1,4,6,M,M,C,930
7,3,12,1,5,1,",",",",C,531
7,3,13,1,5,1,",",",",C,610
7,3,14,1,6,5,.,.,C,691
7,3,15,1,3,3,C,C,C,738
7,3,16,1,5,1,",",",",C,643
7,3,17,1,2,2,X,X,C,626
7,3,18,1,6,5,.,.,C,578
7,3,19,1,6,5,.,.,C,659
7,3,20,1,3,3,C,C,C,834
7,3,21,1,4,6,M,M,C,883
7,3,22,1,2,2,X,X,C,499
7,3,23,1,3,3,C,C,C,643
7,3,24,1,4,6,M,M,C,787
7,3,25,1,2,2,X,X,C,530
7,3,26,1,4,6,M,M,C,707
7,3,27,1,3,3,C,C,C,691
7,3,28,1,6,5,.,.,C,547
7,3,29,1,2,2,X,X,C,483
7,3,30,1,3,3,C,C,C,882
7,3,31,1,4,6,M,M,C,722
7,3,32,1,4,6,M,M,C,547
7,3,33,1,2,2,X,X,C,545
7,3,34,1,2,2,X,X,C,563
7,3,35,1,2,2,X,X,C,563
7,3,36,1,1,4,Z,Z,C,594
7,3,37,1,4,6,",",M,I,979
7,3,38,1,4,6,M,M,C,818
7,3,39,1,5,1,",",",",C,1011
7,3,40,1,6,5,.,.,C,562
7,3,41,1,1,4,Z,Z,C,659
7,3,42,1,1,4,Z,Z,C,547
7,3,43,1,2,2,X,X,C,595
7,3,44,1,4,6,M,M,C,930
7,3,45,1,6,5,.,.,C,547
7,3,46,1,5,1,",",",",C,547
7,3,47,1,1,4,Z,Z,C,466
7,3,48,1,6,5,.,.,C,690
7,3,49,1,6,5,.,.,C,483
7,3,50,1,6,5,.,.,C,451
7,4,1,1,4,6,M,M,C,715
7,4,2,1,5,1,",",",",C,770
7,4,3,1,6,5,.,.,C,514
7,4,4,1,4,6,M,M,C,450
7,4,5,1,1,4,Z,Z,C,465
7,4,6,1,6,5,.,.,C,546
7,4,7,1,6,5,.,.,C,466
7,4,8,1,5,1,",",",",C,547
7,4,9,1,1,4,Z,Z,C,546
7,4,10,1,4,6,M,M,C,898
7,4,11,1,6,5,.,.,C,498
7,4,12,1,5,1,",",",",C,514
7,4,13,1,1,4,Z,Z,C,450
7,4,14,1,1,4,Z,Z,C,466
7,4,15,1,4,6,M,M,C,930
7,4,16,1,5,1,",",",",C,595
7,4,17,1,3,3,X,C,I,514
7,4,18,1,5,1,",",",",C,722
7,4,19,1,3,3,C,C,C,738
7,4,20,1,5,1,",",",",C,546
7,4,21,1,5,1,",",",",C,722
7,4,22,1,4,6,M,M,C,659
7,4,23,1,2,2,X,X,C,579
7,4,24,1,6,5,.,.,C,579
7,4,25,1,3,3,C,C,C,707
7,4,26,1,6,5,M,.,I,739
7,4,27,1,1,4,Z,Z,C,690
7,4,28,1,5,1,",",",",C,531
7,4,29,1,2,2,X,X,C,611
7,4,30,1,3,3,C,C,C,643
7,4,31,1,6,5,.,.,C,498
7,4,32,1,3,3,C,C,C,899
7,4,33,1,1,4,Z,Z,C,483
7,4,34,1,1,4,Z,Z,C,483
7,4,35,1,3,3,C,C,C,914
7,4,36,1,6,5,.,.,C,563
7,4,37,1,3,3,C,C,C,707
7,4,38,1,6,5,.,.,C,563
7,4,39,1,6,5,.,.,C,515
7,4,40,1,5,1,",",",",C,515
7,4,41,1,5,1,",",",",C,594
7,4,42,1,1,4,Z,Z,C,594
7,4,43,1,1,4,Z,Z,C,531
7,4,44,1,6,5,.,.,C,547
7,4,45,1,2,2,X,X,C,547
7,4,46,1,5,1,",",",",C,595
7,4,47,1,5,1,",",",",C,787
7,4,48,1,3,3,C,C,C,1011
7,4,49,1,6,5,.,.,C,483
7,4,50,1,4,6,M,M,C,867
7,5,1,1,2,2,X,X,C,555
7,5,2,1,6,5,.,.,C,610
7,5,3,1,6,5,.,.,C,642
7,5,4,1,1,4,Z,Z,C,561
7,5,5,1,1,4,Z,Z,C,514
7,5,6,1,4,6,M,M,C,738
7,5,7,1,3,3,C,C,C,786
7,5,8,1,5,1,",",",",C,739
7,5,9,1,1,4,Z,Z,C,450
7,5,10,1,2,2,X,X,C,530
7,5,11,1,2,2,X,X,C,562
7,5,12,1,6,5,.,.,C,642
7,5,13,1,4,6,M,M,C,754
7,5,14,1,1,4,Z,Z,C,498
7,5,15,1,3,3,C,C,C,675
7,5,16,1,3,3,C,C,C,659
7,5,17,1,6,5,.,.,C,515
7,5,18,1,2,2,X,X,C,499
7,5,19,1,3,3,C,C,C,659
7,5,20,1,6,5,.,.,C,563
7,5,21,1,1,4,Z,Z,C,530
7,5,22,1,2,2,X,X,C,531
7,5,23,1,2,2,X,X,C,515
7,5,24,1,4,6,M,M,C,675
7,5,25,1,4,6,M,M,C,643
7,5,26,1,3,3,C,C,C,851
7,5,27,1,3,3,C,C,C,563
7,5,28,1,1,4,Z,Z,C,578
7,5,29,1,3,3,C,C,C,1043
7,5,30,1,1,4,Z,Z,C,531
7,5,31,1,4,6,M,M,C,674
7,5,32,1,3,3,C,C,C,787
7,5,33,1,1,4,Z,Z,C,514
7,5,34,1,3,3,C,C,C,691
7,5,35,1,2,2,X,X,C,611
7,5,36,1,6,5,.,.,C,547
7,5,37,1,2,2,X,X,C,723
7,5,38,1,2,2,X,X,C,547
7,5,39,1,1,4,Z,Z,C,531
7,5,40,1,6,5,.,.,C,483
7,5,41,1,1,4,Z,Z,C,467
7,5,42,1,3,3,C,C,C,723
7,5,43,1,2,2,X,X,C,499
7,5,44,1,4,6,M,M,C,530
7,5,45,1,2,2,X,X,C,466
7,5,46,1,4,6,M,M,C,611
7,5,47,1,2,2,X,X,C,578
7,5,48,1,1,4,Z,Z,C,482
7,5,49,1,2,2,X,X,C,498
7,5,50,1,2,2,X,X,C,451
7,6,1,1,2,2,X,X,C,539
7,6,2,1,4,6,M,M,C,658
7,6,3,1,3,3,C,C,C,754
7,6,4,1,1,4,Z,Z,C,530
7,6,5,1,2,2,X,X,C,515
7,6,6,1,1,4,Z,Z,C,530
7,6,7,1,3,3,C,C,C,611
7,6,8,1,1,4,Z,Z,C,498
7,6,9,1,4,6,M,M,C,657
7,6,10,1,3,3,C,C,C,689
7,6,11,1,6,5,.,.,C,594
7,6,12,1,5,1,",",",",C,611
7,6,13,1,5,1,",",",",C,819
7,6,14,1,3,3,C,C,C,643
7,6,15,1,5,1,",",",",C,515
7,6,16,1,4,6,M,M,C,563
7,6,17,1,1,4,Z,Z,C,531
7,6,18,1,5,1,",",",",C,531
7,6,19,1,5,1,",",",",C,706
7,6,20,1,4,6,M,M,C,723
7,6,21,1,6,5,.,.,C,611
7,6,22,1,5,1,",",",",C,706
7,6,23,1,5,1,",",",",C,595
7,6,24,1,5,1,",",",",C,547
7,6,25,1,2,2,X,X,C,755
7,6,26,1,2,2,X,X,C,595
7,6,27,1,4,6,M,M,C,659
7,6,28,1,6,5,.,.,C,851
7,6,29,1,6,5,.,.,C,515
7,6,30,1,4,6,M,M,C,1171
7,6,31,1,4,6,M,M,C,547
7,6,32,1,6,5,.,.,C,483
7,6,33,1,1,4,Z,Z,C,675
7,6,34,1,3,3,C,C,C,867
7,6,35,1,4,6,M,M,C,722
7,6,36,1,6,5,.,.,C,499
7,6,37,1,2,2,X,X,C,579
7,6,38,1,4,6,M,M,C,531
7,6,39,1,3,3,C,C,C,595
7,6,40,1,4,6,M,M,C,531
7,6,41,1,5,1,",",",",C,483
7,6,42,1,4,6,M,M,C,915
7,6,43,1,4,6,M,M,C,451
7,6,44,1,6,5,.,.,C,483
7,6,45,1,3,3,C,C,C,755
7,6,46,1,3,3,C,C,C,627
7,6,47,1,2,2,X,X,C,563
7,6,48,1,4,6,M,M,C,547
7,6,49,1,4,6,M,M,C,515
7,6,50,1,1,4,Z,Z,C,563
7,7,1,1,2,2,X,X,C,490
7,7,2,1,3,3,C,C,C,802
7,7,3,1,5,1,",",",",C,547
7,7,4,1,6,5,.,.,C,467
7,7,5,1,1,4,Z,Z,C,626
7,7,6,1,3,3,C,C,C,819
7,7,7,1,4,6,",",M,I,435
7,7,8,1,3,3,C,C,C,658
7,7,9,1,5,1,",",",",C,483
7,7,10,1,5,1,",",",",C,595
7,7,11,1,3,3,C,C,C,515
7,7,12,1,3,3,C,C,C,627
7,7,13,1,4,6,M,M,C,483
7,7,14,1,4,6,M,M,C,499
7,7,15,1,1,4,Z,Z,C,499
7,7,16,1,6,5,.,.,C,467
7,7,17,1,5,1,",",",",C,467
7,7,18,1,4,6,M,M,C,467
7,7,19,1,6,5,.,.,C,403
7,7,20,1,2,2,X,X,C,483
7,7,21,1,4,6,M,M,C,499
7,7,22,1,6,5,.,.,C,499
7,7,23,1,3,3,C,C,C,579
7,7,24,1,5,1,",",",",C,467
7,7,25,1,6,5,.,.,C,403
7,7,26,1,4,6,M,M,C,851
7,7,27,1,1,4,Z,Z,C,515
7,7,28,1,5,1,",",",",C,483
7,7,29,1,3,3,C,C,C,691
7,7,30,1,5,1,",",",",C,563
7,7,31,1,5,1,",",",",C,563
7,7,32,1,2,2,X,X,C,451
7,7,33,1,1,4,Z,Z,C,499
7,7,34,1,3,3,C,C,C,659
7,7,35,1,1,4,Z,Z,C,402
7,7,36,1,6,5,.,.,C,483
7,7,37,1,6,5,.,.,C,435
7,7,38,1,5,1,",",",",C,467
7,7,39,1,3,3,C,C,C,627
7,7,40,1,4,6,M,M,C,529
7,7,41,1,2,2,X,X,C,483
7,7,42,1,6,5,.,.,C,435
7,7,43,1,2,2,X,X,C,435
7,7,44,1,4,6,M,M,C,515
7,7,45,1,2,2,X,X,C,483
7,7,46,1,4,6,M,M,C,451
7,7,47,1,4,6,M,M,C,435
7,7,48,1,5,1,",",",",C,418
7,7,49,1,4,6,M,M,C,466
7,7,50,1,6,5,.,.,C,467
7,8,1,1,1,4,Z,Z,C,443
7,8,2,1,5,1,",",",",C,531
7,8,3,1,4,6,M,M,C,643
7,8,4,1,4,6,M,M,C,659
7,8,5,1,4,6,M,M,C,579
7,8,6,1,6,5,.,.,C,451
7,8,7,1,1,4,Z,Z,C,386
7,8,8,1,3,3,C,C,C,626
7,8,9,1,3,3,C,C,C,545
7,8,10,1,2,2,X,X,C,547
7,8,11,1,2,2,X,X,C,387
7,8,12,1,3,3,M,C,I,547
7,8,13,1,6,5,.,.,C,563
7,8,14,1,6,5,.,.,C,419
7,8,15,1,5,1,",",",",C,467
7,8,16,1,3,3,C,C,C,706
7,8,17,1,4,6,M,M,C,738
7,8,18,1,2,2,X,X,C,498
7,8,19,1,2,2,X,X,C,387
7,8,20,1,6,5,.,.,C,531
7,8,21,1,5,1,",",",",C,514
7,8,22,1,1,4,Z,Z,C,659
7,8,23,1,3,3,X,C,I,563
7,8,24,1,1,4,Z,Z,C,707
7,8,25,1,1,4,Z,Z,C,531
7,8,26,1,5,1,",",",",C,531
7,8,27,1,3,3,C,C,C,643
7,8,28,1,1,4,Z,Z,C,707
7,8,29,1,3,3,C,C,C,691
7,8,30,1,2,2,X,X,C,515
7,8,31,1,2,2,X,X,C,531
7,8,32,1,4,6,M,M,C,611
7,8,33,1,2,2,X,X,C,515
7,8,34,1,4,6,M,M,C,531
7,8,35,1,4,6,M,M,C,515
7,8,36,1,5,1,",",",",C,627
7,8,37,1,3,3,C,C,C,771
7,8,38,1,1,4,Z,Z,C,1027
7,8,39,1,6,5,.,.,C,531
7,8,40,1,1,4,Z,Z,C,451
7,8,41,1,2,2,X,X,C,707
7,8,42,1,1,4,Z,Z,C,675
7,8,43,1,4,6,M,M,C,595
7,8,44,1,5,1,",",",",C,531
7,8,45,1,1,4,Z,Z,C,531
7,8,46,1,5,1,",",",",C,499
7,8,47,1,3,3,C,C,C,643
7,8,48,1,2,2,X,X,C,499
7,8,49,1,1,4,Z,Z,C,498
7,8,50,1,3,3,C,C,C,723
7,9,1,1,6,5,.,.,C,603
7,9,2,1,2,2,X,X,C,546
7,9,3,1,5,1,",",",",C,579
7,9,4,1,5,1,",",",",C,435
7,9,5,1,5,1,",",",",C,451
7,9,6,1,1,4,Z,Z,C,467
7,9,7,1,4,6,M,M,C,707
7,9,8,1,2,2,X,X,C,499
7,9,9,1,1,4,Z,Z,C,483
7,9,10,1,4,6,M,M,C,579
7,9,11,1,6,5,.,.,C,499
7,9,12,1,1,4,Z,Z,C,499
7,9,13,1,3,3,C,C,C,723
7,9,14,1,3,3,C,C,C,627
7,9,15,1,1,4,Z,Z,C,643
7,9,16,1,3,3,C,C,C,451
7,9,17,1,3,3,C,C,C,707
7,9,18,1,5,1,",",",",C,563
7,9,19,1,1,4,Z,Z,C,499
7,9,20,1,2,2,X,X,C,531
7,9,21,1,3,3,C,C,C,531
7,9,22,1,5,1,",",",",C,579
7,9,23,1,6,5,.,.,C,563
7,9,24,1,1,4,Z,Z,C,563
7,9,25,1,2,2,X,X,C,499
7,9,26,1,1,4,Z,Z,C,499
7,9,27,1,4,6,M,M,C,627
7,9,28,1,1,4,Z,Z,C,467
7,9,29,1,5,1,",",",",C,483
7,9,30,1,4,6,M,M,C,531
7,9,31,1,1,4,Z,Z,C,419
7,9,32,1,1,4,Z,Z,C,339
7,9,33,1,5,1,",",",",C,433
7,9,34,1,6,5,.,.,C,547
7,9,35,1,5,1,",",",",C,483
7,9,36,1,1,4,Z,Z,C,435
7,9,37,1,4,6,M,M,C,659
7,9,38,1,6,5,.,.,C,690
7,9,39,1,2,2,X,X,C,467
7,9,40,1,1,4,Z,Z,C,515
7,9,41,1,1,4,Z,Z,C,499
7,9,42,1,1,4,Z,Z,C,467
7,9,43,1,2,2,X,X,C,467
7,9,44,1,5,1,",",",",C,531
7,9,45,1,2,2,X,X,C,483
7,9,46,1,2,2,X,X,C,451
7,9,47,1,2,2,X,X,C,386
7,9,48,1,4,6,M,M,C,579
7,9,49,1,6,5,.,.,C,531
7,9,50,1,6,5,.,.,C,579
7,10,1,1,5,1,",",",",C,507
7,10,2,1,5,1,",",",",C,450
7,10,3,1,2,2,X,X,C,499
7,10,4,1,5,1,",",",",C,483
7,10,5,1,2,2,X,X,C,659
7,10,6,1,3,3,C,C,C,611
7,10,7,1,2,2,X,X,C,547
7,10,8,1,5,1,",",",",C,531
7,10,9,1,2,2,X,X,C,483
7,10,10,1,3,3,C,C,C,579
7,10,11,1,1,4,Z,Z,C,547
7,10,12,1,3,3,C,C,C,547
7,10,13,1,2,2,X,X,C,515
7,10,14,1,4,6,M,M,C,483
7,10,15,1,6,5,.,.,C,611
7,10,16,1,3,3,C,C,C,755
7,10,17,1,5,1,",",",",C,563
7,10,18,1,3,3,C,C,C,915
7,10,19,1,3,3,C,C,C,691
7,10,20,1,6,5,.,.,C,531
7,10,21,1,1,4,Z,Z,C,547
7,10,22,1,2,2,X,X,C,499
7,10,23,1,2,2,X,X,C,531
7,10,24,1,1,4,Z,Z,C,611
7,10,25,1,4,6,M,M,C,627
7,10,26,1,5,1,",",",",C,531
7,10,27,1,2,2,X,X,C,467
7,10,28,1,6,5,.,.,C,626
7,10,29,1,4,6,M,M,C,531
7,10,30,1,6,5,M,.,I,515
7,10,31,1,1,4,Z,Z,C,498
7,10,32,1,3,3,C,C,C,641
7,10,33,1,3,3,C,C,C,1011
7,10,34,1,1,4,Z,Z,C,531
7,10,35,1,5,1,",",",",C,483
7,10,36,1,2,2,X,X,C,515
7,10,37,1,5,1,",",",",C,546
7,10,38,1,1,4,Z,Z,C,579
7,10,39,1,4,6,M,M,C,627
7,10,40,1,6,5,.,.,C,547
7,10,41,1,5,1,",",",",C,611
7,10,42,1,3,3,C,C,C,595
7,10,43,1,4,6,M,M,C,611
7,10,44,1,2,2,X,X,C,707
7,10,45,1,2,2,X,X,C,466
7,10,46,1,5,1,",",",",C,531
7,10,47,1,1,4,Z,Z,C,466
7,10,48,1,6,5,.,.,C,499
7,10,49,1,1,4,Z,Z,C,467
7,10,50,1,2,2,X,X,C,467
7,11,1,1,4,6,M,M,C,1162
7,11,2,1,3,3,C,C,C,881
7,11,3,1,3,3,C,C,C,577
7,11,4,1,5,1,",",",",C,754
7,11,5,1,5,1,",",",",C,978
7,11,6,1,6,5,.,.,C,658
7,11,7,1,1,4,Z,Z,C,642
7,11,8,1,5,1,",",",",C,610
7,11,9,1,6,5,.,.,C,642
7,11,10,1,1,4,Z,Z,C,642
7,11,11,1,3,3,C,C,C,610
7,11,12,1,3,3,C,C,C,530
7,11,13,1,5,1,",",",",C,642
7,11,14,1,4,6,M,M,C,962
7,11,15,1,3,3,C,C,C,786
7,11,16,1,5,1,",",",",C,1026
7,11,17,1,2,2,X,X,C,882
7,11,18,1,5,1,",",",",C,561
7,11,19,1,3,3,C,C,C,626
7,11,20,1,1,4,Z,Z,C,626
7,11,21,1,6,5,.,.,C,802
7,11,22,1,6,5,.,.,C,674
7,11,23,1,5,1,",",",",C,482
7,11,24,1,4,6,M,M,C,434
7,11,25,1,1,4,Z,Z,C,834
7,11,26,1,1,4,Z,Z,C,626
7,11,27,1,5,1,",",",",C,610
7,11,28,1,4,6,M,M,C,626
7,11,29,1,2,2,X,X,C,594
7,11,30,1,5,1,",",",",C,562
7,11,31,1,4,6,M,M,C,593
7,11,32,1,3,3,C,C,C,657
7,11,33,1,4,6,M,M,C,786
7,11,34,1,5,1,",",",",C,498
7,11,35,1,1,4,Z,Z,C,594
7,11,36,1,4,6,M,M,C,626
7,11,37,1,3,3,C,C,C,1026
7,11,38,1,4,6,M,M,C,546
7,11,39,1,5,1,",",",",C,578
7,11,40,1,1,4,Z,Z,C,690
7,11,41,1,3,3,C,C,C,866
7,11,42,1,3,3,C,C,C,562
7,11,43,1,4,6,M,M,C,578
7,11,44,1,2,2,X,X,C,834
7,11,45,1,6,5,.,.,C,674
7,11,46,1,4,6,M,M,C,577
7,11,47,1,6,5,.,.,C,594
7,11,48,1,3,3,C,C,C,690
7,11,49,1,1,4,Z,Z,C,674
7,11,50,1,1,4,Z,Z,C,690
7,12,1,1,4,6,M,M,C,730
7,12,2,1,4,6,M,M,C,450
7,12,3,1,3,3,C,C,C,770
7,12,4,1,2,2,X,X,C,562
7,12,5,1,4,6,M,M,C,513
7,12,6,1,4,6,M,M,C,450
7,12,7,1,5,1,",",",",C,546
7,12,8,1,4,6,M,M,C,578
7,12,9,1,2,2,X,X,C,530
7,12,10,1,2,2,X,X,C,642
7,12,11,1,3,3,C,C,C,480
7,12,12,1,2,2,X,X,C,546
7,12,13,1,5,1,",",",",C,1042
7,12,14,1,2,2,X,X,C,786
7,12,15,1,4,6,M,M,C,466
7,12,16,1,5,1,",",",",C,529
7,12,17,1,5,1,",",",",C,514
7,12,18,1,6,5,.,.,C,562
7,12,19,1,6,5,.,.,C,514
7,12,20,1,4,6,M,M,C,594
7,12,21,1,6,5,.,.,C,530
7,12,22,1,2,2,X,X,C,626
7,12,23,1,3,3,C,C,C,626
7,12,24,1,6,5,.,.,C,658
7,12,25,1,6,5,.,.,C,498
7,12,26,1,2,2,X,X,C,594
7,12,27,1,3,3,C,C,C,610
7,12,28,1,6,5,.,.,C,514
7,12,29,1,6,5,.,.,C,482
7,12,30,1,4,6,M,M,C,578
7,12,31,1,6,5,.,.,C,498
7,12,32,1,1,4,Z,Z,C,611
7,12,33,1,1,4,Z,Z,C,577
7,12,34,1,4,6,M,M,C,578
7,12,35,1,5,1,",",",",C,450
7,12,36,1,5,1,",",",",C,434
7,12,37,1,4,6,M,M,C,514
7,12,38,1,4,6,M,M,C,434
7,12,39,1,6,5,.,.,C,450
7,12,40,1,4,6,M,M,C,562
7,12,41,1,5,1,",",",",C,482
7,12,42,1,5,1,",",",",C,482
7,12,43,1,2,2,X,X,C,642
7,12,44,1,3,3,C,C,C,690
7,12,45,1,4,6,M,M,C,530
7,12,46,1,2,2,X,X,C,546
7,12,47,1,2,2,X,X,C,482
7,12,48,1,3,3,C,C,C,578
7,12,49,1,6,5,.,.,C,722
7,12,50,1,4,6,M,M,C,546
7,13,1,1,3,3,C,C,C,538
7,13,2,1,1,4,Z,Z,C,641
7,13,3,1,4,6,M,M,C,626
7,13,4,1,1,4,Z,Z,C,610
7,13,5,1,2,2,X,X,C,610
7,13,6,1,3,3,C,C,C,689
7,13,7,1,5,1,",",",",C,690
7,13,8,1,5,1,",",",",C,610
7,13,9,1,1,4,Z,Z,C,562
7,13,10,1,5,1,",",",",C,514
7,13,11,1,5,1,",",",",C,434
7,13,12,1,5,1,",",",",C,402
7,13,13,1,1,4,Z,Z,C,514
7,13,14,1,4,6,M,M,C,562
7,13,15,1,3,3,C,C,C,690
7,13,16,1,6,5,.,.,C,706
7,13,17,1,1,4,Z,Z,C,786
7,13,18,1,1,4,Z,Z,C,482
7,13,19,1,4,6,M,M,C,610
7,13,20,1,3,3,C,C,C,513
7,13,21,1,1,4,Z,Z,C,802
7,13,22,1,5,1,",",",",C,547
7,13,23,1,5,1,",",",",C,418
7,13,24,1,1,4,Z,Z,C,530
7,13,25,1,5,1,",",",",C,449
7,13,26,1,5,1,",",",",C,449
7,13,27,1,1,4,Z,Z,C,498
7,13,28,1,1,4,Z,Z,C,513
7,13,29,1,6,5,.,.,C,562
7,13,30,1,3,3,C,C,C,546
7,13,31,1,3,3,C,C,C,498
7,13,32,1,6,5,.,.,C,514
7,13,33,1,4,6,M,M,C,594
7,13,34,1,3,3,C,C,C,466
7,13,35,1,1,4,Z,Z,C,530
7,13,36,1,6,5,.,.,C,514
7,13,37,1,2,2,X,X,C,546
7,13,38,1,3,3,C,C,C,832
7,13,39,1,6,5,.,.,C,514
7,13,40,1,3,3,C,C,C,594
7,13,41,1,6,5,.,.,C,546
7,13,42,1,2,2,X,X,C,530
7,13,43,1,3,3,C,C,C,594
7,13,44,1,2,2,X,X,C,514
7,13,45,1,5,1,",",",",C,514
7,13,46,1,2,2,X,X,C,482
7,13,47,1,3,3,C,C,C,514
7,13,48,1,5,1,",",",",C,497
7,13,49,1,1,4,Z,Z,C,546
7,13,50,1,3,3,C,C,C,514
7,14,1,1,1,4,Z,Z,C,506
7,14,2,1,4,6,",",M,I,689
7,14,3,1,4,6,M,M,C,513
7,14,4,1,1,4,Z,Z,C,530
7,14,5,1,5,1,",",",",C,482
7,14,6,1,3,3,C,C,C,579
7,14,7,1,6,5,.,.,C,672
7,14,8,1,4,6,M,M,C,530
7,14,9,1,5,1,",",",",C,466
7,14,10,1,2,2,X,X,C,496
7,14,11,1,6,5,.,.,C,610
7,14,12,1,4,6,M,M,C,546
7,14,13,1,6,5,.,.,C,530
7,14,14,1,4,6,M,M,C,514
7,14,15,1,4,6,M,M,C,482
7,14,16,1,6,5,.,.,C,561
7,14,17,1,3,3,C,C,C,642
7,14,18,1,2,2,X,X,C,562
7,14,19,1,5,1,",",",",C,515
7,14,20,1,6,5,.,.,C,578
7,14,21,1,6,5,.,.,C,514
7,14,22,1,5,1,",",",",C,465
7,14,23,1,6,5,.,.,C,498
7,14,24,1,6,5,.,.,C,496
7,14,25,1,2,2,X,X,C,546
7,14,26,1,1,4,Z,Z,C,530
7,14,27,1,4,6,M,M,C,643
7,14,28,1,6,5,.,.,C,562
7,14,29,1,4,6,M,M,C,562
7,14,30,1,1,4,Z,Z,C,530
7,14,31,1,5,1,",",",",C,546
7,14,32,1,6,5,.,.,C,546
7,14,33,1,6,5,.,.,C,482
7,14,34,1,4,6,M,M,C,610
7,14,35,1,1,4,Z,Z,C,626
7,14,36,1,1,4,Z,Z,C,610
7,14,37,1,4,6,M,M,C,658
7,14,38,1,4,6,M,M,C,544
7,14,39,1,4,6,M,M,C,594
7,14,40,1,1,4,Z,Z,C,498
7,14,41,1,3,3,C,C,C,594
7,14,42,1,1,4,Z,Z,C,674
7,14,43,1,5,1,",",",",C,562
7,14,44,1,4,6,M,M,C,514
7,14,45,1,5,1,",",",",C,561
7,14,46,1,6,5,.,.,C,594
7,14,47,1,1,4,Z,Z,C,897
7,14,48,1,6,5,.,.,C,530
7,14,49,1,6,5,.,.,C,450
7,14,50,1,5,1,",",",",C,482
7,15,1,1,2,2,X,X,C,539
7,15,2,1,4,6,M,M,C,594
7,15,3,1,5,1,",",",",C,434
7,15,4,1,2,2,X,X,C,514
7,15,5,1,6,5,.,.,C,594
7,15,6,1,6,5,.,.,C,626
7,15,7,1,2,2,X,X,C,497
7,15,8,1,2,2,X,X,C,498
7,15,9,1,6,5,.,.,C,514
7,15,10,1,3,3,C,C,C,610
7,15,11,1,5,1,",",",",C,546
7,15,12,1,1,4,Z,Z,C,689
7,15,13,1,6,5,.,.,C,642
7,15,14,1,6,5,.,.,C,402
7,15,15,1,3,3,C,C,C,594
7,15,16,1,6,5,.,.,C,578
7,15,17,1,4,6,M,M,C,530
7,15,18,1,6,5,.,.,C,450
7,15,19,1,5,1,",",",",C,546
7,15,20,1,4,6,M,M,C,562
7,15,21,1,5,1,",",",",C,466
7,15,22,1,4,6,M,M,C,578
7,15,23,1,4,6,M,M,C,609
7,15,24,1,3,3,C,C,C,626
7,15,25,1,5,1,",",",",C,514
7,15,26,1,2,2,X,X,C,561
7,15,27,1,1,4,Z,Z,C,624
7,15,28,1,5,1,",",",",C,498
7,15,29,1,2,2,X,X,C,579
7,15,30,1,3,3,C,C,C,626
7,15,31,1,4,6,M,M,C,562
7,15,32,1,5,1,",",",",C,386
7,15,33,1,2,2,X,X,C,594
7,15,34,1,2,2,X,X,C,530
7,15,35,1,4,6,M,M,C,610
7,15,36,1,3,3,C,C,C,529
7,15,37,1,4,6,M,M,C,593
7,15,38,1,3,3,C,C,C,482
7,15,39,1,4,6,M,M,C,498
7,15,40,1,5,1,",",",",C,449
7,15,41,1,2,2,X,X,C,498
7,15,42,1,3,3,C,C,C,546
7,15,43,1,3,3,C,C,C,625
7,15,44,1,4,6,M,M,C,643
7,15,45,1,4,6,M,M,C,466
7,15,46,1,5,1,",",",",C,482
7,15,47,1,5,1,",",",",C,498
7,15,48,1,1,4,Z,Z,C,626
7,15,49,1,6,5,.,.,C,578
7,15,50,1,6,5,.,.,C,402
60,1,1,3,4,4,M,M,C,1369
60,1,2,3,6,1,.,.,C,1233
60,1,3,3,4,4,M,M,C,673
60,1,4,3,2,6,X,X,C,1121
60,1,5,3,4,4,M,M,C,769
60,1,6,3,6,1,.,.,C,978
60,1,7,3,1,2,Z,Z,C,1218
60,1,8,3,6,1,.,.,C,1602
60,1,9,3,5,5,",",",",C,754
60,1,10,3,3,3,C,C,C,753
60,1,11,3,5,5,",",",",C,641
60,1,12,3,5,5,",",",",C,753
60,1,13,3,5,5,",",",",C,498
60,1,14,3,3,3,C,C,C,658
60,1,15,3,5,5,",",",",C,658
60,1,16,3,2,6,X,X,C,594
60,1,17,3,1,2,Z,Z,C,786
60,1,18,3,1,2,Z,Z,C,1054
60,1,19,3,1,2,Z,Z,C,466
60,1,20,3,3,3,C,C,C,1105
60,1,21,3,4,4,M,M,C,657
60,1,22,3,1,2,Z,Z,C,513
60,1,23,3,1,2,Z,Z,C,738
60,1,24,3,4,4,X,M,I,494
60,1,25,3,2,6,X,X,C,997
60,1,26,3,4,4,M,M,C,996
60,1,27,3,1,2,Z,Z,C,590
60,1,28,3,1,2,Z,Z,C,530
60,1,29,3,6,1,.,.,C,1234
60,1,30,3,5,5,",",",",C,626
60,1,31,3,1,2,Z,Z,C,546
60,1,32,3,5,5,",",",",C,498
60,1,33,3,6,1,.,.,C,689
60,1,34,3,1,2,Z,Z,C,498
60,1,35,3,5,5,",",",",C,546
60,1,36,3,1,2,Z,Z,C,386
60,1,37,3,1,2,Z,Z,C,546
60,1,38,3,6,1,.,.,C,1362
60,1,39,3,1,2,Z,Z,C,562
60,1,40,3,1,2,Z,Z,C,498
60,1,41,3,4,4,M,M,C,865
60,1,42,3,6,1,.,.,C,689
60,1,43,3,3,3,C,C,C,606
60,1,44,3,1,2,Z,Z,C,526
60,1,45,3,1,2,Z,Z,C,530
60,1,46,3,6,1,",",.,I,770
60,1,47,3,3,3,C,C,C,1102
60,1,48,3,1,2,Z,Z,C,610
60,1,49,3,6,1,.,.,C,882
60,1,50,3,1,2,Z,Z,C,482
60,2,1,3,2,6,X,X,C,1034
60,2,2,3,6,1,.,.,C,1217
60,2,3,3,4,4,M,M,C,561
60,2,4,3,3,3,Z,C,I,529
60,2,5,3,1,2,Z,Z,C,622
60,2,6,3,2,6,X,X,C,1041
60,2,7,3,5,5,",",",",C,530
60,2,8,3,3,3,C,C,C,497
60,2,9,3,4,4,M,M,C,1026
60,2,10,3,3,3,C,C,C,913
60,2,11,3,1,2,Z,Z,C,498
60,2,12,3,5,5,",",",",C,577
60,2,13,3,5,5,",",",",C,513
60,2,14,3,3,3,C,C,C,612
60,2,15,3,5,5,",",",",C,498
60,2,16,3,4,4,M,M,C,718
60,2,17,3,3,3,C,C,C,895
60,2,18,3,3,3,C,C,C,626
60,2,19,3,2,6,X,X,C,657
60,2,20,3,5,5,",",",",C,574
60,2,21,3,2,6,X,X,C,929
60,2,22,3,6,1,.,.,C,542
60,2,23,3,4,4,M,M,C,770
60,2,24,3,6,1,",",.,I,594
60,2,25,3,2,6,X,X,C,1118
60,2,26,3,4,4,X,M,I,593
60,2,27,3,6,1,.,.,C,1038
60,2,28,3,6,1,.,.,C,942
60,2,29,3,6,1,.,.,C,596
60,2,30,3,4,4,M,M,C,689
60,2,31,3,4,4,M,M,C,801
60,2,32,3,6,1,.,.,C,1326
60,2,33,3,1,2,Z,Z,C,578
60,2,34,3,4,4,M,M,C,914
60,2,35,3,1,2,Z,Z,C,530
60,2,36,3,3,3,C,C,C,574
60,2,37,3,3,3,C,C,C,750
60,2,38,3,2,6,X,X,C,561
60,2,39,3,2,6,X,X,C,1009
60,2,40,3,6,1,.,.,C,754
60,2,41,3,4,4,M,M,C,706
60,2,42,3,1,2,Z,Z,C,546
60,2,43,3,6,1,.,.,C,690
60,2,44,3,4,4,M,M,C,801
60,2,45,3,1,2,Z,Z,C,494
60,2,46,3,3,3,C,C,C,657
60,2,47,3,5,5,",",",",C,977
60,2,48,3,3,3,C,C,C,674
60,2,49,3,5,5,",",",",C,962
60,2,50,3,5,5,",",",",C,578
60,3,1,3,5,5,",",",",C,1129
60,3,2,3,1,2,Z,Z,C,497
60,3,3,3,3,3,C,C,C,526
60,3,4,3,1,2,Z,Z,C,546
60,3,5,3,3,3,C,C,C,578
60,3,6,3,4,4,X,M,I,414
60,3,7,3,2,6,X,X,C,1227
60,3,8,3,6,1,.,.,C,974
60,3,9,3,5,5,",",",",C,606
60,3,10,3,2,6,X,X,C,1185
60,3,11,3,5,5,",",",",C,690
60,3,12,3,1,2,Z,Z,C,434
60,3,13,3,6,1,.,.,C,962
60,3,14,3,1,2,Z,Z,C,386
60,3,15,3,6,1,.,.,C,977
60,3,16,3,1,2,Z,Z,C,578
60,3,17,3,5,5,",",",",C,578
60,3,18,3,4,4,M,M,C,894
60,3,19,3,2,6,X,X,C,817
60,3,20,3,6,1,.,.,C,1106
60,3,21,3,4,4,M,M,C,674
60,3,22,3,1,2,Z,Z,C,514
60,3,23,3,3,3,C,C,C,878
60,3,24,3,6,1,.,.,C,978
60,3,25,3,1,2,Z,Z,C,578
60,3,26,3,2,6,X,X,C,753
60,3,27,3,5,5,",",",",C,674
60,3,28,3,5,5,",",",",C,1217
60,3,29,3,6,1,.,.,C,1330
60,3,30,3,1,2,Z,Z,C,530
60,3,31,3,1,2,Z,Z,C,498
60,3,32,3,4,4,M,M,C,1169
60,3,33,3,6,1,.,.,C,1038
60,3,34,3,3,3,C,C,C,642
60,3,35,3,1,2,Z,Z,C,433
60,3,36,3,5,5,",",",",C,626
60,3,37,3,6,1,.,.,C,453
60,3,38,3,2,6,X,X,C,514
60,3,39,3,3,3,C,C,C,418
60,3,40,3,3,3,C,C,C,466
60,3,41,3,1,2,Z,Z,C,416
60,3,42,3,3,3,C,C,C,558
60,3,43,3,5,5,",",",",C,610
60,3,44,3,3,3,C,C,C,514
60,3,45,3,6,1,.,.,C,802
60,3,46,3,3,3,C,C,C,561
60,3,47,3,4,4,M,M,C,498
60,3,48,3,6,1,.,.,C,802
60,3,49,3,4,4,M,M,C,735
60,3,50,3,6,1,.,.,C,1026
60,4,1,3,5,5,",",",",C,554
60,4,2,3,6,1,.,.,C,609
60,4,3,3,4,4,M,M,C,546
60,4,4,3,3,3,C,C,C,578
60,4,5,3,2,6,C,X,I,542
60,4,6,3,1,2,Z,Z,C,1166
60,4,7,3,5,5,",",",",C,846
60,4,8,3,1,2,Z,Z,C,561
60,4,9,3,3,3,C,C,C,721
60,4,10,3,4,4,M,M,C,1042
60,4,11,3,1,2,Z,Z,C,498
60,4,12,3,6,1,.,.,C,738
60,4,13,3,3,3,C,C,C,626
60,4,14,3,3,3,C,C,C,498
60,4,15,3,2,6,X,X,C,1026
60,4,16,3,6,1,.,.,C,754
60,4,17,3,1,2,Z,Z,C,529
60,4,18,3,6,1,.,.,C,722
60,4,19,3,1,2,Z,Z,C,498
60,4,20,3,2,6,X,X,C,994
60,4,21,3,1,2,Z,Z,C,546
60,4,22,3,5,5,",",",",C,782
60,4,23,3,1,2,Z,Z,C,562
60,4,24,3,4,4,M,M,C,1026
60,4,25,3,4,4,M,M,C,446
60,4,26,3,4,4,M,M,C,418
60,4,27,3,2,6,X,X,C,849
60,4,28,3,4,4,M,M,C,738
60,4,29,3,3,3,C,C,C,622
60,4,30,3,4,4,M,M,C,1074
60,4,31,3,2,6,X,X,C,1282
60,4,32,3,2,6,X,X,C,562
60,4,33,3,6,1,.,.,C,546
60,4,34,3,4,4,M,M,C,689
60,4,35,3,2,6,X,X,C,1009
60,4,36,3,2,6,X,X,C,510
60,4,37,3,6,1,.,.,C,658
60,4,38,3,4,4,M,M,C,1010
60,4,39,3,4,4,M,M,C,418
60,4,40,3,3,3,C,C,C,722
60,4,41,3,4,4,M,M,C,718
60,4,42,3,5,5,",",",",C,562
60,4,43,3,2,6,X,X,C,1134
60,4,44,3,1,2,Z,Z,C,530
60,4,45,3,1,2,Z,Z,C,389
60,4,46,3,6,1,.,.,C,722
60,4,47,3,6,1,.,.,C,706
60,4,48,3,1,2,Z,Z,C,514
60,4,49,3,6,1,.,.,C,1026
60,4,50,3,5,5,",",",",C,1074
60,5,1,3,6,1,.,.,C,695
60,5,2,3,5,5,",",",",C,623
60,5,3,3,4,4,M,M,C,610
60,5,4,3,4,4,M,M,C,750
60,5,5,3,3,3,C,C,C,466
60,5,6,3,2,6,X,X,C,737
60,5,7,3,5,5,",",",",C,1054
60,5,8,3,5,5,",",",",C,498
60,5,9,3,2,6,X,X,C,735
60,5,10,3,5,5,",",",",C,816
60,5,11,3,4,4,M,M,C,882
60,5,12,3,4,4,M,M,C,590
60,5,13,3,2,6,X,X,C,1153
60,5,14,3,1,2,Z,Z,C,498
60,5,15,3,3,3,C,C,C,481
60,5,16,3,5,5,",",",",C,882
60,5,17,3,3,3,C,C,C,546
60,5,18,3,5,5,",",",",C,1106
60,5,19,3,6,1,.,.,C,1394
60,5,20,3,4,4,M,M,C,578
60,5,21,3,5,5,",",",",C,530
60,5,22,3,4,4,M,M,C,498
60,5,23,3,6,1,.,.,C,609
60,5,24,3,3,3,C,C,C,418
60,5,25,3,3,3,C,C,C,498
60,5,26,3,5,5,",",",",C,482
60,5,27,3,1,2,Z,Z,C,498
60,5,28,3,4,4,M,M,C,658
60,5,29,3,4,4,M,M,C,574
60,5,30,3,6,1,.,.,C,546
60,5,31,3,2,6,X,X,C,754
60,5,32,3,1,2,Z,Z,C,578
60,5,33,3,1,2,Z,Z,C,1666
60,5,34,3,6,1,.,.,C,546
60,5,35,3,5,5,",",",",C,562
60,5,36,3,2,6,X,X,C,370
60,5,37,3,2,6,X,X,C,434
60,5,38,3,3,3,C,C,C,802
60,5,39,3,1,2,Z,Z,C,434
60,5,40,3,6,1,.,.,C,978
60,5,41,3,3,3,C,C,C,750
60,5,42,3,1,2,Z,Z,C,498
60,5,43,3,1,2,Z,Z,C,1074
60,5,44,3,3,3,C,C,C,610
60,5,45,3,5,5,",",",",C,622
60,5,46,3,4,4,M,M,C,914
60,5,47,3,5,5,",",",",C,722
60,5,48,3,4,4,M,M,C,1041
60,5,49,3,6,1,.,.,C,1042
60,5,50,3,1,2,Z,Z,C,530
60,6,1,3,2,6,X,X,C,378
60,6,2,3,4,4,M,M,C,529
60,6,3,3,5,5,",",",",C,530
60,6,4,3,3,3,C,C,C,514
60,6,5,3,3,3,C,C,C,386
60,6,6,3,4,4,M,M,C,770
60,6,7,3,2,6,X,X,C,914
60,6,8,3,3,3,C,C,C,654
60,6,9,3,4,4,M,M,C,1682
60,6,10,3,5,5,",",",",C,594
60,6,11,3,4,4,M,M,C,577
60,6,12,3,1,2,Z,Z,C,530
60,6,13,3,6,1,.,.,C,910
60,6,14,3,1,2,Z,Z,C,546
60,6,15,3,5,5,",",",",C,594
60,6,16,3,2,6,X,X,C,466
60,6,17,3,5,5,",",",",C,546
60,6,18,3,2,6,X,X,C,850
60,6,19,3,2,6,X,X,C,546
60,6,20,3,4,4,M,M,C,658
60,6,21,3,2,6,X,X,C,577
60,6,22,3,1,2,Z,Z,C,1298
60,6,23,3,6,1,.,.,C,850
60,6,24,3,1,2,Z,Z,C,498
60,6,25,3,3,3,C,C,C,642
60,6,26,3,4,4,M,M,C,626
60,6,27,3,2,6,X,X,C,786
60,6,28,3,1,2,Z,Z,C,626
60,6,29,3,4,4,X,M,I,706
60,6,30,3,6,1,.,.,C,814
60,6,31,3,5,5,",",",",C,594
60,6,32,3,5,5,",",",",C,1330
60,6,33,3,2,6,X,X,C,866
60,6,34,3,3,3,C,C,C,1150
60,6,35,3,6,1,.,.,C,962
60,6,36,3,1,2,Z,Z,C,466
60,6,37,3,2,6,X,X,C,625
60,6,38,3,2,6,X,X,C,482
60,6,39,3,5,5,",",",",C,542
60,6,40,3,2,6,X,X,C,530
60,6,41,3,5,5,",",",",C,1150
60,6,42,3,2,6,X,X,C,898
60,6,43,3,1,2,Z,Z,C,542
60,6,44,3,3,3,C,C,C,622
60,6,45,3,3,3,C,C,C,562
60,6,46,3,5,5,",",",",C,818
60,6,47,3,4,4,M,M,C,993
60,6,48,3,1,2,Z,Z,C,530
60,6,49,3,1,2,Z,Z,C,434
60,6,50,3,1,2,Z,Z,C,722
60,7,1,3,4,4,M,M,C,954
60,7,2,3,6,1,.,.,C,642
60,7,3,3,5,5,",",",",C,546
60,7,4,3,2,6,X,X,C,526
60,7,5,3,4,4,M,M,C,770
60,7,6,3,6,1,.,.,C,626
60,7,7,3,2,6,X,X,C,801
60,7,8,3,6,1,.,.,C,498
60,7,9,3,1,2,Z,Z,C,514
60,7,10,3,5,5,",",",",C,578
60,7,11,3,4,4,M,M,C,782
60,7,12,3,1,2,Z,Z,C,542
60,7,13,3,6,1,.,.,C,562
60,7,14,3,6,1,.,.,C,466
60,7,15,3,5,5,",",",",C,498
60,7,16,3,3,3,C,C,C,562
60,7,17,3,5,5,",",",",C,738
60,7,18,3,6,1,.,.,C,594
60,7,19,3,3,3,C,C,C,530
60,7,20,3,3,3,C,C,C,514
60,7,21,3,6,1,.,.,C,770
60,7,22,3,3,3,C,C,C,1086
60,7,23,3,5,5,",",",",C,674
60,7,24,3,2,6,X,X,C,642
60,7,25,3,6,1,.,.,C,914
60,7,26,3,4,4,M,M,C,721
60,7,27,3,3,3,C,C,C,578
60,7,28,3,1,2,Z,Z,C,946
60,7,29,3,5,5,",",",",C,930
60,7,30,3,3,3,C,C,C,802
60,7,31,3,3,3,C,C,C,450
60,7,32,3,4,4,M,M,C,814
60,7,33,3,5,5,",",",",C,1504
60,7,34,3,5,5,",",",",C,466
60,7,35,3,2,6,X,X,C,642
60,7,36,3,3,3,C,C,C,593
60,7,37,3,1,2,Z,Z,C,1330
60,7,38,3,5,5,",",",",C,562
60,7,39,3,2,6,X,X,C,850
60,7,40,3,4,4,M,M,C,642
60,7,41,3,5,5,",",",",C,594
60,7,42,3,2,6,X,X,C,482
60,7,43,3,3,3,C,C,C,658
60,7,44,3,6,1,.,.,C,658
60,7,45,3,2,6,X,X,C,466
60,7,46,3,6,1,.,.,C,751
60,7,47,3,2,6,X,X,C,722
60,7,48,3,2,6,X,X,C,482
60,7,49,3,5,5,",",",",C,594
60,7,50,3,6,1,.,.,C,722
60,8,1,3,4,4,M,M,C,954
60,8,2,3,2,6,X,X,C,1153
60,8,3,3,4,4,M,M,C,480
60,8,4,3,4,4,M,M,C,514
60,8,5,3,6,1,.,.,C,482
60,8,6,3,5,5,",",",",C,558
60,8,7,3,2,6,X,X,C,655
60,8,8,3,3,3,C,C,C,562
60,8,9,3,4,4,M,M,C,850
60,8,10,3,1,2,Z,Z,C,498
60,8,11,3,6,1,.,.,C,690
60,8,12,3,6,1,.,.,C,626
60,8,13,3,3,3,C,C,C,578
60,8,14,3,1,2,Z,Z,C,466
60,8,15,3,2,6,X,X,C,417
60,8,16,3,2,6,X,X,C,338
60,8,17,3,3,3,C,C,C,354
60,8,18,3,5,5,",",",",C,914
60,8,19,3,5,5,",",",",C,526
60,8,20,3,6,1,.,.,C,562
60,8,21,3,2,6,X,X,C,546
60,8,22,3,2,6,X,X,C,594
60,8,23,3,5,5,",",",",C,674
60,8,24,3,2,6,X,X,C,802
60,8,25,3,5,5,",",",",C,942
60,8,26,3,3,3,C,C,C,613
60,8,27,3,4,4,X,M,I,561
60,8,28,3,1,2,Z,Z,C,642
60,8,29,3,4,4,M,M,C,722
60,8,30,3,2,6,X,X,C,594
60,8,31,3,1,2,Z,Z,C,549
60,8,32,3,5,5,",",",",C,597
60,8,33,3,1,2,Z,Z,C,546
60,8,34,3,4,4,M,M,C,366
60,8,35,3,4,4,M,M,C,1026
60,8,36,3,4,4,M,M,C,418
60,8,37,3,1,2,Z,Z,C,514
60,8,38,3,6,1,.,.,C,574
60,8,39,3,3,3,C,C,C,562
60,8,40,3,5,5,",",",",C,526
60,8,41,3,4,4,M,M,C,642
60,8,42,3,5,5,",",",",C,530
60,8,43,3,2,6,X,X,C,772
60,8,44,3,3,3,C,C,C,562
60,8,45,3,5,5,",",",",C,608
60,8,46,3,6,1,.,.,C,738
60,8,47,3,2,6,X,X,C,514
60,8,48,3,1,2,Z,Z,C,446
60,8,49,3,1,2,Z,Z,C,658
60,8,50,3,2,6,X,X,C,1294
60,9,1,3,2,6,X,X,C,660
60,9,2,3,6,1,.,.,C,913
60,9,3,3,3,3,C,C,C,1058
60,9,4,3,3,3,C,C,C,446
60,9,5,3,2,6,X,X,C,545
60,9,6,3,4,4,M,M,C,353
60,9,7,3,3,3,C,C,C,546
60,9,8,3,5,5,",",",",C,578
60,9,9,3,6,1,.,.,C,850
60,9,10,3,3,3,C,C,C,546
60,9,11,3,1,2,Z,Z,C,498
60,9,12,3,6,1,.,.,C,686
60,9,13,3,2,6,X,X,C,610
60,9,14,3,2,6,X,X,C,498
60,9,15,3,6,1,.,.,C,546
60,9,16,3,5,5,",",",",C,882
60,9,17,3,6,1,.,.,C,754
60,9,18,3,6,1,.,.,C,718
60,9,19,3,4,4,M,M,C,773
60,9,20,3,2,6,X,X,C,802
60,9,21,3,6,1,.,.,C,642
60,9,22,3,3,3,C,C,C,578
60,9,23,3,1,2,Z,Z,C,562
60,9,24,3,3,3,C,C,C,498
60,9,25,3,3,3,C,C,C,530
60,9,26,3,4,4,M,M,C,978
60,9,27,3,1,2,Z,Z,C,510
60,9,28,3,1,2,Z,Z,C,562
60,9,29,3,3,3,C,C,C,610
60,9,30,3,6,1,.,.,C,658
60,9,31,3,5,5,",",",",C,610
60,9,32,3,6,1,.,.,C,690
60,9,33,3,3,3,C,C,C,498
60,9,34,3,5,5,",",",",C,542
60,9,35,3,1,2,Z,Z,C,546
60,9,36,3,5,5,",",",",C,914
60,9,37,3,6,1,.,.,C,661
60,9,38,3,1,2,Z,Z,C,546
60,9,39,3,5,5,",",",",C,1182
60,9,40,3,5,5,",",",",C,994
60,9,41,3,1,2,Z,Z,C,562
60,9,42,3,4,4,M,M,C,798
60,9,43,3,1,2,Z,Z,C,530
60,9,44,3,1,2,Z,Z,C,658
60,9,45,3,5,5,",",",",C,878
60,9,46,3,2,6,X,X,C,558
60,9,47,3,4,4,M,M,C,977
60,9,48,3,3,3,C,C,C,565
60,9,49,3,4,4,M,M,C,962
60,9,50,3,6,1,.,.,C,1154
60,10,1,3,4,4,M,M,C,807
60,10,2,3,4,4,M,M,C,417
60,10,3,3,2,6,X,X,C,850
60,10,4,3,1,2,Z,Z,C,494
60,10,5,3,5,5,",",",",C,558
60,10,6,3,5,5,",",",",C,418
60,10,7,3,2,6,X,X,C,626
60,10,8,3,3,3,C,C,C,594
60,10,9,3,1,2,Z,Z,C,514
60,10,10,3,4,4,M,M,C,1026
60,10,11,3,1,2,Z,Z,C,498
60,10,12,3,4,4,M,M,C,638
60,10,13,3,1,2,Z,Z,C,382
60,10,14,3,5,5,",",",",C,562
60,10,15,3,3,3,C,C,C,530
60,10,16,3,6,1,.,.,C,498
60,10,17,3,2,6,X,X,C,898
60,10,18,3,5,5,",",",",C,386
60,10,19,3,6,1,.,.,C,622
60,10,20,3,4,4,M,M,C,609
60,10,21,3,4,4,M,M,C,418
60,10,22,3,5,5,",",",",C,498
60,10,23,3,1,2,Z,Z,C,498
60,10,24,3,4,4,",",M,I,542
60,10,25,3,3,3,C,C,C,814
60,10,26,3,1,2,Z,Z,C,482
60,10,27,3,5,5,",",",",C,546
60,10,28,3,4,4,X,M,I,481
60,10,29,3,5,5,",",",",C,1969
60,10,30,3,6,1,.,.,C,738
60,10,31,3,2,6,X,X,C,1070
60,10,32,3,5,5,",",",",C,754
60,10,33,3,2,6,X,X,C,562
60,10,34,3,2,6,X,X,C,466
60,10,35,3,4,4,M,M,C,674
60,10,36,3,4,4,M,M,C,450
60,10,37,3,1,2,Z,Z,C,514
60,10,38,3,6,1,.,.,C,658
60,10,39,3,6,1,.,.,C,1602
60,10,40,3,3,3,C,C,C,722
60,10,41,3,2,6,X,X,C,642
60,10,42,3,3,3,C,C,C,1026
60,10,43,3,4,4,M,M,C,721
60,10,44,3,6,1,.,.,C,530
60,10,45,3,5,5,",",",",C,1250
60,10,46,3,5,5,",",",",C,738
60,10,47,3,5,5,",",",",C,834
60,10,48,3,4,4,M,M,C,642
60,10,49,3,1,2,Z,Z,C,530
60,10,50,3,5,5,",",",",C,962
60,11,1,3,6,1,.,.,C,1003
60,11,2,3,5,5,",",",",C,673
60,11,3,3,4,4,M,M,C,670
60,11,4,3,3,3,C,C,C,558
60,11,5,3,5,5,",",",",C,578
60,11,6,3,5,5,",",",",C,642
60,11,7,3,2,6,X,X,C,639
60,11,8,3,3,3,C,C,C,610
60,11,9,3,1,2,Z,Z,C,418
60,11,10,3,6,1,.,.,C,478
60,11,11,3,2,6,X,X,C,530
60,11,12,3,1,2,Z,Z,C,450
60,11,13,3,6,1,.,.,C,546
60,11,14,3,5,5,",",",",C,578
60,11,15,3,4,4,M,M,C,962
60,11,16,3,6,1,.,.,C,529
60,11,17,3,4,4,M,M,C,850
60,11,18,3,4,4,M,M,C,498
60,11,19,3,1,2,Z,Z,C,530
60,11,20,3,1,2,Z,Z,C,498
60,11,21,3,2,6,X,X,C,706
60,11,22,3,5,5,",",",",C,642
60,11,23,3,4,4,M,M,C,645
60,11,24,3,5,5,",",",",C,706
60,11,25,3,2,6,X,X,C,914
60,11,26,3,4,4,M,M,C,882
60,11,27,3,3,3,C,C,C,706
60,11,28,3,1,2,Z,Z,C,494
60,11,29,3,5,5,",",",",C,661
60,11,30,3,1,2,Z,Z,C,530
60,11,31,3,5,5,",",",",C,818
60,11,32,3,3,3,C,C,C,1134
60,11,33,3,1,2,Z,Z,C,565
60,11,34,3,3,3,C,C,C,722
60,11,35,3,2,6,X,X,C,658
60,11,36,3,1,2,Z,Z,C,498
60,11,37,3,6,1,.,.,C,1359
60,11,38,3,3,3,C,C,C,514
60,11,39,3,6,1,.,.,C,485
60,11,40,3,5,5,",",",",C,562
60,11,41,3,5,5,",",",",C,1106
60,11,42,3,6,1,.,.,C,478
60,11,43,3,3,3,C,C,C,562
60,11,44,3,6,1,.,.,C,738
60,11,45,3,4,4,M,M,C,802
60,11,46,3,2,6,X,X,C,562
60,11,47,3,6,1,.,.,C,562
60,11,48,3,6,1,.,.,C,402
60,11,49,3,4,4,M,M,C,613
60,11,50,3,1,2,Z,Z,C,562
60,12,1,3,1,2,Z,Z,C,555
60,12,2,3,1,2,Z,Z,C,466
60,12,3,3,2,6,X,X,C,546
60,12,4,3,4,4,M,M,C,722
60,12,5,3,1,2,Z,Z,C,482
60,12,6,3,3,3,C,C,C,786
60,12,7,3,5,5,",",",",C,818
60,12,8,3,3,3,C,C,C,562
60,12,9,3,5,5,",",",",C,754
60,12,10,3,5,5,",",",",C,370
60,12,11,3,1,2,Z,Z,C,482
60,12,12,3,4,4,M,M,C,769
60,12,13,3,4,4,M,M,C,446
60,12,14,3,3,3,C,C,C,498
60,12,15,3,6,1,.,.,C,530
60,12,16,3,2,6,X,X,C,386
60,12,17,3,3,3,C,C,C,546
60,12,18,3,5,5,",",",",C,850
60,12,19,3,5,5,",",",",C,734
60,12,20,3,6,1,.,.,C,1410
60,12,21,3,4,4,M,M,C,527
60,12,22,3,4,4,M,M,C,946
60,12,23,3,2,6,X,X,C,354
60,12,24,3,5,5,",",",",C,578
60,12,25,3,1,2,Z,Z,C,466
60,12,26,3,5,5,",",",",C,546
60,12,27,3,1,2,Z,Z,C,501
60,12,28,3,3,3,C,C,C,562
60,12,29,3,3,3,C,C,C,546
60,12,30,3,5,5,",",",",C,498
60,12,31,3,6,1,.,.,C,622
60,12,32,3,4,4,M,M,C,530
60,12,33,3,6,1,.,.,C,498
60,12,34,3,6,1,.,.,C,718
60,12,35,3,3,3,C,C,C,514
60,12,36,3,3,3,C,C,C,594
60,12,37,3,3,3,C,C,C,386
60,12,38,3,5,5,",",",",C,722
60,12,39,3,2,6,X,X,C,613
60,12,40,3,3,3,C,C,C,561
60,12,41,3,3,3,C,C,C,386
60,12,42,3,4,4,M,M,C,834
60,12,43,3,5,5,",",",",C,946
60,12,44,3,3,3,C,C,C,578
60,12,45,3,3,3,C,C,C,994
60,12,46,3,1,2,Z,Z,C,606
60,12,47,3,5,5,",",",",C,578
60,12,48,3,2,6,X,X,C,562
60,12,49,3,5,5,",",",",C,978
60,12,50,3,2,6,X,X,C,514
60,13,1,3,5,5,",",",",C,730
60,13,2,3,3,3,C,C,C,510
60,13,3,3,3,3,C,C,C,434
60,13,4,3,2,6,X,X,C,626
60,13,5,3,1,2,Z,Z,C,482
60,13,6,3,5,5,",",",",C,622
60,13,7,3,6,1,.,.,C,558
60,13,8,3,2,6,X,X,C,478
60,13,9,3,3,3,C,C,C,1074
60,13,10,3,4,4,M,M,C,1009
60,13,11,3,1,2,Z,Z,C,494
60,13,12,3,2,6,Z,X,I,478
60,13,13,3,6,1,.,.,C,542
60,13,14,3,1,2,Z,Z,C,498
60,13,15,3,1,2,Z,Z,C,562
60,13,16,3,6,1,.,.,C,818
60,13,17,3,1,2,Z,Z,C,506
60,13,18,3,3,3,C,C,C,594
60,13,19,3,2,6,X,X,C,898
60,13,20,3,2,6,X,X,C,434
60,13,21,3,3,3,C,C,C,1282
60,13,22,3,1,2,Z,Z,C,866
60,13,23,3,1,2,Z,Z,C,430
60,13,24,3,6,1,.,.,C,577
60,13,25,3,4,4,M,M,C,814
60,13,26,3,6,1,.,.,C,498
60,13,27,3,5,5,",",",",C,594
60,13,28,3,6,1,.,.,C,1282
60,13,29,3,1,2,Z,Z,C,530
60,13,30,3,1,2,Z,Z,C,386
60,13,31,3,6,1,.,.,C,546
60,13,32,3,5,5,",",",",C,514
60,13,33,3,2,6,X,X,C,322
60,13,34,3,3,3,C,C,C,450
60,13,35,3,3,3,C,C,C,386
60,13,36,3,4,4,X,M,I,549
60,13,37,3,5,5,",",",",C,562
60,13,38,3,6,1,.,.,C,657
60,13,39,3,3,3,C,C,C,562
60,13,40,3,5,5,",",",",C,562
60,13,41,3,2,6,X,X,C,370
60,13,42,3,6,1,.,.,C,1233
60,13,43,3,1,2,Z,Z,C,610
60,13,44,3,5,5,",",",",C,544
60,13,45,3,1,2,Z,Z,C,514
60,13,46,3,3,3,C,C,C,594
60,13,47,3,3,3,C,C,C,626
60,13,48,3,5,5,",",",",C,834
60,13,49,3,1,2,Z,Z,C,562
60,13,50,3,1,2,Z,Z,C,690
60,14,1,3,6,1,.,.,C,839
60,14,2,3,4,4,M,M,C,770
60,14,3,3,2,6,X,X,C,338
60,14,4,3,2,6,X,X,C,529
60,14,5,3,2,6,X,X,C,322
60,14,6,3,4,4,M,M,C,542
60,14,7,3,4,4,M,M,C,818
60,14,8,3,3,3,C,C,C,594
60,14,9,3,3,3,C,C,C,514
60,14,10,3,4,4,M,M,C,734
60,14,11,3,2,6,X,X,C,306
60,14,12,3,3,3,C,C,C,641
60,14,13,3,2,6,X,X,C,558
60,14,14,3,2,6,X,X,C,386
60,14,15,3,6,1,.,.,C,850
60,14,16,3,5,5,",",",",C,530
60,14,17,3,5,5,",",",",C,562
60,14,18,3,6,1,.,.,C,530
60,14,19,3,3,3,C,C,C,546
60,14,20,3,1,2,Z,Z,C,562
60,14,21,3,3,3,C,C,C,542
60,14,22,3,1,2,Z,Z,C,498
60,14,23,3,5,5,",",",",C,626
60,14,24,3,6,1,.,.,C,594
60,14,25,3,5,5,",",",",C,910
60,14,26,3,5,5,",",",",C,594
60,14,27,3,6,1,.,.,C,661
60,14,28,3,1,2,Z,Z,C,514
60,14,29,3,3,3,C,C,C,766
60,14,30,3,5,5,",",",",C,674
60,14,31,3,1,2,Z,Z,C,562
60,14,32,3,2,6,X,X,C,914
60,14,33,3,3,3,C,C,C,610
60,14,34,3,2,6,X,X,C,558
60,14,35,3,4,4,M,M,C,993
60,14,36,3,5,5,",",",",C,782
60,14,37,3,6,1,.,.,C,562
60,14,38,3,4,4,M,M,C,738
60,14,39,3,4,4,M,M,C,450
60,14,40,3,6,1,.,.,C,491
60,14,41,3,5,5,",",",",C,770
60,14,42,3,4,4,M,M,C,577
60,14,43,3,6,1,.,.,C,475
60,14,44,3,2,6,X,X,C,834
60,14,45,3,6,1,.,.,C,866
60,14,46,3,5,5,",",",",C,658
60,14,47,3,4,4,M,M,C,642
60,14,48,3,2,6,X,X,C,962
60,14,49,3,5,5,",",",",C,610
60,14,50,3,5,5,",",",",C,514
60,15,1,3,4,4,M,M,C,826
60,15,2,3,6,1,.,.,C,513
60,15,3,3,4,4,M,M,C,495
60,15,4,3,3,3,C,C,C,578
60,15,5,3,5,5,",",",",C,594
60,15,6,3,5,5,.,",",I,629
60,15,7,3,2,6,X,X,C,594
60,15,8,3,6,1,.,.,C,588
60,15,9,3,5,5,",",",",C,594
60,15,10,3,2,6,X,X,C,562
60,15,11,3,6,1,.,.,C,626
60,15,12,3,4,4,M,M,C,850
60,15,13,3,2,6,X,X,C,801
60,15,14,3,4,4,M,M,C,562
60,15,15,3,2,6,X,X,C,1042
60,15,16,3,5,5,",",",",C,594
60,15,17,3,4,4,M,M,C,718
60,15,18,3,3,3,C,C,C,610
60,15,19,3,2,6,X,X,C,926
60,15,20,3,1,2,Z,Z,C,514
60,15,21,3,3,3,C,C,C,386
60,15,22,3,1,2,Z,Z,C,562
60,15,23,3,1,2,Z,Z,C,546
60,15,24,3,3,3,C,C,C,834
60,15,25,3,1,2,Z,Z,C,642
60,15,26,3,2,6,X,X,C,594
60,15,27,3,1,2,Z,Z,C,559
60,15,28,3,3,3,C,C,C,770
60,15,29,3,3,3,C,C,C,530
60,15,30,3,5,5,",",",",C,786
60,15,31,3,3,3,C,C,C,626
60,15,32,3,5,5,",",",",C,1282
60,15,33,3,5,5,",",",",C,898
60,15,34,3,3,3,C,C,C,818
60,15,35,3,4,4,M,M,C,1041
60,15,36,3,4,4,M,M,C,545
60,15,37,3,1,2,Z,Z,C,722
60,15,38,3,5,5,",",",",C,898
60,15,39,3,3,3,C,C,C,590
60,15,40,3,4,4,M,M,C,785
60,15,41,3,1,2,Z,Z,C,654
60,15,42,3,2,6,X,X,C,837
60,15,43,3,3,3,C,C,C,738
60,15,44,3,5,5,",",",",C,770
60,15,45,3,3,3,C,C,C,866
60,15,46,3,2,6,X,X,C,978
60,15,47,3,2,6,X,X,C,510
60,15,48,3,4,4,M,M,C,690
60,15,49,3,4,4,M,M,C,846
60,15,50,3,6,1,.,.,C,674
6,1,1,3,3,6,Z,C,I,922
6,1,2,3,5,2,",",",",C,1935
6,1,3,3,2,3,X,X,C,1841
6,1,4,3,3,6,C,C,C,770
6,1,5,3,4,5,M,M,C,1186
6,1,6,3,5,2,",",",",C,754
6,1,7,3,1,1,Z,Z,C,1266
6,1,8,3,5,2,",",",",C,1314
6,1,9,3,3,6,C,C,C,962
6,1,10,3,5,2,",",",",C,850
6,1,11,3,4,5,M,M,C,754
6,1,12,3,1,1,Z,Z,C,1071
6,1,13,3,4,5,M,M,C,1138
6,1,14,3,1,1,Z,Z,C,863
6,1,15,3,2,3,X,X,C,674
6,1,16,3,2,3,X,X,C,594
6,1,17,3,1,1,Z,Z,C,978
6,1,18,3,2,3,X,X,C,639
6,1,19,3,4,5,M,M,C,1026
6,1,20,3,5,2,",",",",C,594
6,1,21,3,1,1,Z,Z,C,626
6,1,22,3,2,3,X,X,C,594
6,1,23,3,1,1,Z,Z,C,687
6,1,24,3,2,3,X,X,C,492
6,1,25,3,2,3,X,X,C,562
6,1,26,3,5,2,",",",",C,895
6,1,27,3,4,5,M,M,C,786
6,1,28,3,4,5,M,M,C,933
6,1,29,3,3,6,X,C,I,767
6,1,30,3,1,1,Z,Z,C,735
6,1,31,3,3,6,C,C,C,658
6,1,32,3,4,5,M,M,C,754
6,1,33,3,4,5,M,M,C,959
6,1,34,3,3,6,M,C,I,498
6,1,35,3,4,5,M,M,C,818
6,1,36,3,4,5,M,M,C,514
6,1,37,3,4,5,M,M,C,402
6,1,38,3,3,6,C,C,C,754
6,1,39,3,3,6,C,C,C,386
6,1,40,3,4,5,M,M,C,588
6,1,41,3,4,5,M,M,C,436
6,1,42,3,5,2,",",",",C,1394
6,1,43,3,1,1,Z,Z,C,1202
6,1,44,3,3,6,C,C,C,882
6,1,45,3,4,5,M,M,C,495
6,1,46,3,6,4,.,.,C,994
6,1,47,3,5,2,",",",",C,642
6,1,48,3,4,5,M,M,C,639
6,1,49,3,4,5,M,M,C,639
6,1,50,3,4,5,M,M,C,338
6,2,1,3,5,2,",",",",C,986
6,2,2,3,2,3,X,X,C,1410
6,2,3,3,3,6,C,C,C,1058
6,2,4,3,6,4,.,.,C,898
6,2,5,3,2,3,C,X,I,866
6,2,6,3,2,3,X,X,C,895
6,2,7,3,5,2,",",",",C,1231
6,2,8,3,5,2,",",",",C,498
6,2,9,3,4,5,M,M,C,658
6,2,10,3,4,5,M,M,C,415
6,2,11,3,1,1,Z,Z,C,834
6,2,12,3,2,3,X,X,C,562
6,2,13,3,4,5,M,M,C,706
6,2,14,3,4,5,M,M,C,367
6,2,15,3,5,2,.,",",I,610
6,2,16,3,6,4,.,.,C,639
6,2,17,3,1,1,Z,Z,C,862
6,2,18,3,3,6,C,C,C,1423
6,2,19,3,5,2,",",",",C,962
6,2,20,3,1,1,Z,Z,C,850
6,2,21,3,4,5,M,M,C,607
6,2,22,3,3,6,C,C,C,833
6,2,23,3,1,1,Z,Z,C,626
6,2,24,3,5,2,",",",",C,1170
6,2,25,3,6,4,.,.,C,1249
6,2,26,3,3,6,C,C,C,530
6,2,27,3,6,4,.,.,C,626
6,2,28,3,6,4,.,.,C,530
6,2,29,3,4,5,M,M,C,562
6,2,30,3,1,1,Z,Z,C,866
6,2,31,3,2,3,X,X,C,898
6,2,32,3,2,3,X,X,C,527
6,2,33,3,2,3,X,X,C,383
6,2,34,3,3,6,C,C,C,706
6,2,35,3,5,2,",",",",C,642
6,2,36,3,4,5,M,M,C,687
6,2,37,3,3,6,C,C,C,863
6,2,38,3,2,3,X,X,C,946
6,2,39,3,5,2,",",",",C,898
6,2,40,3,6,4,.,.,C,578
6,2,41,3,4,5,M,M,C,546
6,2,42,3,4,5,M,M,C,338
6,2,43,3,2,3,X,X,C,1026
6,2,44,3,5,2,",",",",C,658
6,2,45,3,1,1,Z,Z,C,674
6,2,46,3,2,3,X,X,C,770
6,2,47,3,3,6,C,C,C,850
6,2,48,3,3,6,C,C,C,498
6,2,49,3,5,2,",",",",C,626
6,2,50,3,6,4,.,.,C,770
6,3,1,3,5,2,",",",",C,986
6,3,2,3,6,4,.,.,C,913
6,3,3,3,2,3,X,X,C,786
6,3,4,3,2,3,X,X,C,498
6,3,5,3,1,1,Z,Z,C,607
6,3,6,3,6,4,.,.,C,722
6,3,7,3,4,5,M,M,C,610
6,3,8,3,5,2,",",",",C,978
6,3,9,3,4,5,M,M,C,818
6,3,10,3,3,6,C,C,C,687
6,3,11,3,2,3,X,X,C,623
6,3,12,3,1,1,Z,Z,C,645
6,3,13,3,1,1,Z,Z,C,527
6,3,14,3,4,5,M,M,C,578
6,3,15,3,6,4,.,.,C,1074
6,3,16,3,5,2,",",",",C,562
6,3,17,3,3,6,C,C,C,1090
6,3,18,3,1,1,Z,Z,C,962
6,3,19,3,2,3,X,X,C,639
6,3,20,3,1,1,Z,Z,C,718
6,3,21,3,6,4,.,.,C,1121
6,3,22,3,3,6,C,C,C,946
6,3,23,3,5,2,",",",",C,930
6,3,24,3,1,1,Z,Z,C,597
6,3,25,3,6,4,.,.,C,1090
6,3,26,3,3,6,C,C,C,1121
6,3,27,3,2,3,X,X,C,719
6,3,28,3,6,4,C,.,I,658
6,3,29,3,6,4,.,.,C,626
6,3,30,3,2,3,X,X,C,930
6,3,31,3,5,2,",",",",C,607
6,3,32,3,3,6,C,C,C,895
6,3,33,3,6,4,.,.,C,802
6,3,34,3,3,6,C,C,C,786
6,3,35,3,6,4,.,.,C,514
6,3,36,3,6,4,.,.,C,434
6,3,37,3,2,3,X,X,C,802
6,3,38,3,3,6,C,C,C,850
6,3,39,3,6,4,.,.,C,594
6,3,40,3,6,4,.,.,C,418
6,3,41,3,2,3,X,X,C,802
6,3,42,3,4,5,M,M,C,706
6,3,43,3,4,5,M,M,C,402
6,3,44,3,2,3,X,X,C,946
6,3,45,3,1,1,Z,Z,C,674
6,3,46,3,6,4,.,.,C,1074
6,3,47,3,2,3,X,X,C,735
6,3,48,3,6,4,.,.,C,594
6,3,49,3,1,1,Z,Z,C,626
6,3,50,3,2,3,X,X,C,610
6,4,1,3,4,5,M,M,C,791
6,4,2,3,1,1,Z,Z,C,1377
6,4,3,3,3,6,C,C,C,1346
6,4,4,3,3,6,C,C,C,479
6,4,5,3,3,6,C,C,C,402
6,4,6,3,5,2,",",",",C,910
6,4,7,3,5,2,",",",",C,402
6,4,8,3,1,1,Z,Z,C,850
6,4,9,3,6,4,.,.,C,802
6,4,10,3,3,6,C,C,C,802
6,4,11,3,1,1,Z,Z,C,610
6,4,12,3,4,5,M,M,C,498
6,4,13,3,3,6,C,C,C,994
6,4,14,3,4,5,M,M,C,548
6,4,15,3,4,5,M,M,C,386
6,4,16,3,2,3,X,X,C,738
6,4,17,3,2,3,X,X,C,703
6,4,18,3,5,2,",",",",C,962
6,4,19,3,5,2,",",",",C,354
6,4,20,3,5,2,",",",",C,434
6,4,21,3,3,6,C,C,C,946
6,4,22,3,3,6,C,C,C,482
6,4,23,3,1,1,Z,Z,C,658
6,4,24,3,1,1,Z,Z,C,415
6,4,25,3,2,3,X,X,C,818
6,4,26,3,1,1,Z,Z,C,721
6,4,27,3,2,3,X,X,C,674
6,4,28,3,3,6,M,C,I,687
6,4,29,3,1,1,Z,Z,C,754
6,4,30,3,4,5,M,M,C,674
6,4,31,3,1,1,Z,Z,C,609
6,4,32,3,5,2,",",",",C,1058
6,4,33,3,1,1,Z,Z,C,674
6,4,34,3,1,1,Z,Z,C,514
6,4,35,3,6,4,.,.,C,962
6,4,36,3,3,6,C,C,C,866
6,4,37,3,4,5,M,M,C,575
6,4,38,3,6,4,.,.,C,610
6,4,39,3,1,1,Z,Z,C,898
6,4,40,3,3,6,C,C,C,658
6,4,41,3,5,2,",",",",C,770
6,4,42,3,5,2,",",",",C,466
6,4,43,3,4,5,M,M,C,658
6,4,44,3,5,2,M,",",I,466
6,4,45,3,6,4,.,.,C,862
6,4,46,3,5,2,",",",",C,690
6,4,47,3,3,6,C,C,C,1042
6,4,48,3,4,5,M,M,C,482
6,4,49,3,1,1,Z,Z,C,706
6,4,50,3,5,2,",",",",C,738
6,5,1,3,1,1,Z,Z,C,858
6,5,2,3,2,3,X,X,C,834
6,5,3,3,6,4,.,.,C,930
6,5,4,3,4,5,M,M,C,594
6,5,5,3,5,2,",",",",C,610
6,5,6,3,5,2,",",",",C,642
6,5,7,3,6,4,.,.,C,578
6,5,8,3,2,3,X,X,C,815
6,5,9,3,1,1,Z,Z,C,655
6,5,10,3,2,3,X,X,C,658
6,5,11,3,5,2,",",",",C,670
6,5,12,3,6,4,.,.,C,689
6,5,13,3,5,2,",",",",C,626
6,5,14,3,3,6,C,C,C,847
6,5,15,3,1,1,Z,Z,C,658
6,5,16,3,1,1,Z,Z,C,770
6,5,17,3,4,5,M,M,C,690
6,5,18,3,4,5,M,M,C,434
6,5,19,3,3,6,C,C,C,1138
6,5,20,3,2,3,X,X,C,946
6,5,21,3,3,6,C,C,C,738
6,5,22,3,2,3,X,X,C,671
6,5,23,3,2,3,X,X,C,530
6,5,24,3,1,1,Z,Z,C,687
6,5,25,3,3,6,C,C,C,687
6,5,26,3,1,1,Z,Z,C,930
6,5,27,3,1,1,Z,Z,C,434
6,5,28,3,3,6,C,C,C,610
6,5,29,3,4,5,M,M,C,674
6,5,30,3,6,4,.,.,C,671
6,5,31,3,6,4,.,.,C,530
6,5,32,3,4,5,M,M,C,591
6,5,33,3,4,5,M,M,C,479
6,5,34,3,6,4,.,.,C,511
6,5,35,3,5,2,",",",",C,866
6,5,36,3,2,3,X,X,C,898
6,5,37,3,4,5,M,M,C,754
6,5,38,3,2,3,X,X,C,914
6,5,39,3,1,1,Z,Z,C,1199
6,5,40,3,5,2,",",",",C,946
6,5,41,3,6,4,.,.,C,658
6,5,42,3,1,1,Z,Z,C,1039
6,5,43,3,3,6,C,C,C,914
6,5,44,3,5,2,",",",",C,754
6,5,45,3,3,6,C,C,C,1058
6,5,46,3,1,1,Z,Z,C,978
6,5,47,3,4,5,M,M,C,642
6,5,48,3,2,3,X,X,C,930
6,5,49,3,1,1,Z,Z,C,1266
6,5,50,3,1,1,Z,Z,C,514
6,6,1,3,2,3,X,X,C,906
6,6,2,3,1,1,Z,Z,C,930
6,6,3,3,1,1,Z,Z,C,479
6,6,4,3,3,6,C,C,C,706
6,6,5,3,2,3,X,X,C,610
6,6,6,3,4,5,M,M,C,738
6,6,7,3,4,5,M,M,C,514
6,6,8,3,5,2,",",",",C,1426
6,6,9,3,3,6,C,C,C,850
6,6,10,3,3,6,C,C,C,479
6,6,11,3,3,6,C,C,C,370
6,6,12,3,1,1,Z,Z,C,1042
6,6,13,3,4,5,M,M,C,610
6,6,14,3,5,2,",",",",C,546
6,6,15,3,6,4,.,.,C,690
6,6,16,3,2,3,X,X,C,690
6,6,17,3,6,4,.,.,C,834
6,6,18,3,6,4,.,.,C,530
6,6,19,3,6,4,.,.,C,418
6,6,20,3,3,6,C,C,C,706
6,6,21,3,3,6,C,C,C,482
6,6,22,3,6,4,.,.,C,706
6,6,23,3,3,6,C,C,C,642
6,6,24,3,5,2,",",",",C,914
6,6,25,3,1,1,Z,Z,C,690
6,6,26,3,3,6,C,C,C,850
6,6,27,3,5,2,",",",",C,1010
6,6,28,3,3,6,C,C,C,786
6,6,29,3,2,3,X,X,C,738
6,6,30,3,3,6,C,C,C,738
6,6,31,3,3,6,C,C,C,402
6,6,32,3,4,5,M,M,C,594
6,6,33,3,6,4,.,.,C,994
6,6,34,3,2,3,X,X,C,674
6,6,35,3,3,6,C,C,C,722
6,6,36,3,4,5,M,M,C,578
6,6,37,3,2,3,X,X,C,658
6,6,38,3,6,4,.,.,C,930
6,6,39,3,6,4,.,.,C,514
6,6,40,3,1,1,Z,Z,C,1074
6,6,41,3,6,4,.,.,C,562
6,6,42,3,6,4,.,.,C,418
6,6,43,3,4,5,M,M,C,623
6,6,44,3,6,4,.,.,C,482
6,6,45,3,3,6,C,C,C,818
6,6,46,3,6,4,.,.,C,482
6,6,47,3,6,4,.,.,C,450
6,6,48,3,3,6,C,C,C,546
6,6,49,3,5,2,",",",",C,946
6,6,50,3,6,4,.,.,C,722
6,7,1,3,1,1,Z,Z,C,827
6,7,2,3,1,1,Z,Z,C,402
6,7,3,3,5,2,",",",",C,1154
6,7,4,3,4,5,M,M,C,594
6,7,5,3,4,5,M,M,C,370
6,7,6,3,6,4,.,.,C,562
6,7,7,3,1,1,M,Z,I,514
6,7,8,3,3,6,C,C,C,990
6,7,9,3,6,4,.,.,C,607
6,7,10,3,2,3,X,X,C,1106
6,7,11,3,3,6,C,C,C,914
6,7,12,3,6,4,.,.,C,546
6,7,13,3,3,6,C,C,C,898
6,7,14,3,6,4,.,.,C,610
6,7,15,3,6,4,.,.,C,450
6,7,16,3,6,4,.,.,C,370
6,7,17,3,6,4,.,.,C,498
6,7,18,3,3,6,Z,C,I,770
6,7,19,3,1,1,Z,Z,C,639
6,7,20,3,3,6,C,C,C,802
6,7,21,3,3,6,C,C,C,370
6,7,22,3,3,6,C,C,C,306
6,7,23,3,5,2,",",",",C,1314
6,7,24,3,5,2,",",",",C,578
6,7,25,3,3,6,C,C,C,722
6,7,26,3,1,1,Z,Z,C,706
6,7,27,3,3,6,C,C,C,511
6,7,28,3,3,6,C,C,C,354
6,7,29,3,5,2,",",",",C,770
6,7,30,3,5,2,",",",",C,386
6,7,31,3,3,6,C,C,C,655
6,7,32,3,6,4,.,.,C,578
6,7,33,3,4,5,M,M,C,626
6,7,34,3,6,4,.,.,C,578
6,7,35,3,4,5,M,M,C,514
6,7,36,3,5,2,",",",",C,850
6,7,37,3,2,3,X,X,C,722
6,7,38,3,4,5,M,M,C,546
6,7,39,3,4,5,",",M,I,492
6,7,40,3,4,5,M,M,C,527
6,7,41,3,2,3,X,X,C,1042
6,7,42,3,4,5,M,M,C,642
6,7,43,3,1,1,Z,Z,C,764
6,7,44,3,4,5,M,M,C,622
6,7,45,3,2,3,X,X,C,738
6,7,46,3,4,5,M,M,C,575
6,7,47,3,2,3,X,X,C,959
6,7,48,3,1,1,Z,Z,C,642
6,7,49,3,6,4,.,.,C,1010
6,7,50,3,1,1,Z,Z,C,962
6,8,1,3,2,3,X,X,C,923
6,8,2,3,6,4,.,.,C,898
6,8,3,3,5,2,",",",",C,834
6,8,4,3,1,1,Z,Z,C,754
6,8,5,3,1,1,Z,Z,C,626
6,8,6,3,2,3,X,X,C,626
6,8,7,3,1,1,Z,Z,C,642
6,8,8,3,3,6,C,C,C,738
6,8,9,3,1,1,Z,Z,C,642
6,8,10,3,1,1,Z,Z,C,498
6,8,11,3,2,3,X,X,C,725
6,8,12,3,4,5,M,M,C,658
6,8,13,3,6,4,.,.,C,706
6,8,14,3,2,3,X,X,C,866
6,8,15,3,6,4,.,.,C,972
6,8,16,3,5,2,",",",",C,770
6,8,17,3,5,2,",",",",C,418
6,8,18,3,4,5,M,M,C,578
6,8,19,3,3,6,C,C,C,690
6,8,20,3,2,3,X,X,C,751
6,8,21,3,4,5,M,M,C,722
6,8,22,3,2,3,X,X,C,703
6,8,23,3,4,5,M,M,C,594
6,8,24,3,5,2,",",",",C,882
6,8,25,3,4,5,M,M,C,533
6,8,26,3,3,6,C,C,C,722
6,8,27,3,3,6,C,C,C,450
6,8,28,3,5,2,",",",",C,594
6,8,29,3,1,1,Z,Z,C,866
6,8,30,3,5,2,",",",",C,687
6,8,31,3,5,2,",",",",C,498
6,8,32,3,1,1,Z,Z,C,626
6,8,33,3,3,6,C,C,C,930
6,8,34,3,4,5,M,M,C,559
6,8,35,3,1,1,Z,Z,C,850
6,8,36,3,2,3,X,X,C,914
6,8,37,3,6,4,.,.,C,767
6,8,38,3,1,1,Z,Z,C,575
6,8,39,3,3,6,C,C,C,658
6,8,40,3,5,2,",",",",C,1186
6,8,41,3,1,1,Z,Z,C,626
6,8,42,3,6,4,.,.,C,770
6,8,43,3,1,1,Z,Z,C,578
6,8,44,3,2,3,X,X,C,690
6,8,45,3,4,5,M,M,C,578
6,8,46,3,5,2,",",",",C,956
6,8,47,3,3,6,C,C,C,882
6,8,48,3,2,3,X,X,C,837
6,8,49,3,5,2,",",",",C,962
6,8,50,3,1,1,Z,Z,C,706
6,9,1,3,6,4,.,.,C,907
6,9,2,3,6,4,.,.,C,482
6,9,3,3,2,3,X,X,C,850
6,9,4,3,6,4,.,.,C,527
6,9,5,3,6,4,.,.,C,463
6,9,6,3,6,4,.,.,C,418
6,9,7,3,6,4,.,.,C,402
6,9,8,3,4,5,M,M,C,594
6,9,9,3,2,3,X,X,C,738
6,9,10,3,6,4,.,.,C,674
6,9,11,3,4,5,M,M,C,626
6,9,12,3,6,4,.,.,C,578
6,9,13,3,1,1,Z,Z,C,658
6,9,14,3,2,3,X,X,C,1234
6,9,15,3,2,3,X,X,C,562
6,9,16,3,2,3,X,X,C,402
6,9,17,3,2,3,X,X,C,530
6,9,18,3,2,3,X,X,C,405
6,9,19,3,5,2,",",",",C,786
6,9,20,3,5,2,",",",",C,434
6,9,21,3,3,6,C,C,C,946
6,9,22,3,6,4,.,.,C,658
6,9,23,3,1,1,Z,Z,C,610
6,9,24,3,1,1,Z,Z,C,754
6,9,25,3,3,6,C,C,C,751
6,9,26,3,5,2,",",",",C,1215
6,9,27,3,3,6,C,C,C,754
6,9,28,3,6,4,.,.,C,622
6,9,29,3,3,6,C,C,C,594
6,9,30,3,4,5,M,M,C,642
6,9,31,3,2,3,X,X,C,946
6,9,32,3,2,3,X,X,C,450
6,9,33,3,5,2,",",",",C,639
6,9,34,3,1,1,Z,Z,C,706
6,9,35,3,6,4,.,.,C,1122
6,9,36,3,1,1,Z,Z,C,754
6,9,37,3,5,2,",",",",C,720
6,9,38,3,5,2,",",",",C,530
6,9,39,3,3,6,C,C,C,994
6,9,40,3,1,1,Z,Z,C,658
6,9,41,3,3,6,C,C,C,962
6,9,42,3,2,3,X,X,C,690
6,9,43,3,5,2,",",",",C,626
6,9,44,3,6,4,.,.,C,802
6,9,45,3,2,3,X,X,C,1058
6,9,46,3,3,6,C,C,C,706
6,9,47,3,4,5,M,M,C,671
6,9,48,3,2,3,X,X,C,658
6,9,49,3,2,3,X,X,C,450
6,9,50,3,2,3,X,X,C,450
6,10,1,3,4,5,M,M,C,618
6,10,2,3,5,2,",",",",C,1058
6,10,3,3,5,2,",",",",C,482
6,10,4,3,4,5,M,M,C,514
6,10,5,3,4,5,M,M,C,495
6,10,6,3,4,5,M,M,C,386
6,10,7,3,1,1,C,Z,I,654
6,10,8,3,4,5,M,M,C,658
6,10,9,3,4,5,M,M,C,482
6,10,10,3,1,1,Z,Z,C,799
6,10,11,3,3,6,C,C,C,882
6,10,12,3,1,1,Z,Z,C,882
6,10,13,3,6,4,.,.,C,914
6,10,14,3,1,1,Z,Z,C,896
6,10,15,3,5,2,",",",",C,866
6,10,16,3,1,1,Z,Z,C,923
6,10,17,3,4,5,M,M,C,834
6,10,18,3,3,6,C,C,C,1090
6,10,19,3,3,6,C,C,C,802
6,10,20,3,6,4,.,.,C,642
6,10,21,3,1,1,Z,Z,C,914
6,10,22,3,6,4,.,.,C,802
6,10,23,3,5,2,",",",",C,882
6,10,24,3,6,4,.,.,C,898
6,10,25,3,1,1,Z,Z,C,702
6,10,26,3,1,1,Z,Z,C,514
6,10,27,3,3,6,C,C,C,798
6,10,28,3,3,6,C,C,C,434
6,10,29,3,6,4,.,.,C,578
6,10,30,3,3,6,C,C,C,786
6,10,31,3,5,2,",",",",C,706
6,10,32,3,4,5,M,M,C,578
6,10,33,3,3,6,C,C,C,753
6,10,34,3,4,5,M,M,C,578
6,10,35,3,4,5,M,M,C,482
6,10,36,3,4,5,M,M,C,370
6,10,37,3,4,5,M,M,C,322
6,10,38,3,3,6,C,C,C,670
6,10,39,3,6,4,.,.,C,686
6,10,40,3,6,4,.,.,C,514
6,10,41,3,3,6,C,C,C,882
6,10,42,3,6,4,.,.,C,770
6,10,43,3,6,4,.,.,C,462
6,10,44,3,5,2,",",",",C,818
6,10,45,3,3,6,C,C,C,818
6,10,46,3,4,5,M,M,C,642
6,10,47,3,5,2,",",",",C,610
6,10,48,3,1,1,Z,Z,C,722
6,10,49,3,4,5,M,M,C,639
6,10,50,3,3,6,C,C,C,770
6,11,1,3,4,5,M,M,C,651
6,11,2,3,3,6,C,C,C,1009
6,11,3,3,2,3,X,X,C,658
6,11,4,3,6,4,.,.,C,834
6,11,5,3,2,3,X,X,C,1058
6,11,6,3,3,6,C,C,C,866
6,11,7,3,3,6,C,C,C,562
6,11,8,3,2,3,X,X,C,655
6,11,9,3,2,3,X,X,C,434
6,11,10,3,6,4,.,.,C,818
6,11,11,3,5,2,",",",",C,735
6,11,12,3,5,2,",",",",C,642
6,11,13,3,5,2,",",",",C,354
6,11,14,3,5,2,",",",",C,466
6,11,15,3,4,5,M,M,C,562
6,11,16,3,5,2,",",",",C,511
6,11,17,3,4,5,M,M,C,530
6,11,18,3,4,5,M,M,C,514
6,11,19,3,3,6,.,C,I,562
6,11,20,3,4,5,M,M,C,555
6,11,21,3,6,4,.,.,C,990
6,11,22,3,2,3,X,X,C,946
6,11,23,3,6,4,.,.,C,1506
6,11,24,3,5,2,",",",",C,754
6,11,25,3,6,4,.,.,C,622
6,11,26,3,3,6,C,C,C,690
6,11,27,3,3,6,C,C,C,478
6,11,28,3,6,4,.,.,C,609
6,11,29,3,5,2,",",",",C,578
6,11,30,3,2,3,X,X,C,658
6,11,31,3,5,2,",",",",C,530
6,11,32,3,4,5,M,M,C,610
6,11,33,3,4,5,M,M,C,562
6,11,34,3,5,2,",",",",C,767
6,11,35,3,5,2,",",",",C,610
6,11,36,3,4,5,M,M,C,498
6,11,37,3,6,4,.,.,C,994
6,11,38,3,5,2,",",",",C,626
6,11,39,3,6,4,.,.,C,530
6,11,40,3,6,4,.,.,C,418
6,11,41,3,1,1,Z,Z,C,1010
6,11,42,3,4,5,M,M,C,546
6,11,43,3,1,1,Z,Z,C,574
6,11,44,3,4,5,M,M,C,914
6,11,45,3,2,3,X,X,C,754
6,11,46,3,5,2,",",",",C,674
6,11,47,3,2,3,",",X,I,530
6,11,48,3,6,4,.,.,C,1249
6,11,49,3,6,4,.,.,C,434
6,11,50,3,4,5,M,M,C,593
6,12,1,3,6,4,.,.,C,1063
6,12,2,3,2,3,X,X,C,786
6,12,3,3,6,4,.,.,C,578
6,12,4,3,4,5,M,M,C,530
6,12,5,3,2,3,X,X,C,946
6,12,6,3,3,6,C,C,C,898
6,12,7,3,2,3,X,X,C,578
6,12,8,3,5,2,",",",",C,610
6,12,9,3,4,5,M,M,C,544
6,12,10,3,6,4,.,.,C,878
6,12,11,3,5,2,",",",",C,770
6,12,12,3,2,3,X,X,C,626
6,12,13,3,4,5,M,M,C,514
6,12,14,3,3,6,C,C,C,770
6,12,15,3,4,5,M,M,C,466
6,12,16,3,6,4,.,.,C,1410
6,12,17,3,1,1,Z,Z,C,690
6,12,18,3,3,6,C,C,C,834
6,12,19,3,4,5,M,M,C,498
6,12,20,3,3,6,C,C,C,1166
6,12,21,3,1,1,Z,Z,C,625
6,12,22,3,3,6,C,C,C,594
6,12,23,3,2,3,X,X,C,946
6,12,24,3,3,6,C,C,C,591
6,12,25,3,2,3,X,X,C,610
6,12,26,3,3,6,C,C,C,594
6,12,27,3,1,1,Z,Z,C,754
6,12,28,3,6,4,.,.,C,770
6,12,29,3,3,6,C,C,C,578
6,12,30,3,4,5,M,M,C,626
6,12,31,3,2,3,X,X,C,671
6,12,32,3,1,1,Z,Z,C,610
6,12,33,3,4,5,M,M,C,642
6,12,34,3,2,3,X,X,C,578
6,12,35,3,6,4,.,.,C,994
6,12,36,3,3,6,C,C,C,994
6,12,37,3,4,5,M,M,C,642
6,12,38,3,2,3,X,X,C,594
6,12,39,3,2,3,X,X,C,466
6,12,40,3,4,5,M,M,C,591
6,12,41,3,4,5,M,M,C,466
6,12,42,3,5,2,X,",",I,738
6,12,43,3,3,6,C,C,C,926
6,12,44,3,6,4,.,.,C,722
6,12,45,3,1,1,Z,Z,C,994
6,12,46,3,3,6,C,C,C,766
6,12,47,3,2,3,X,X,C,594
6,12,48,3,5,2,",",",",C,514
6,12,49,3,1,1,M,Z,I,594
6,12,50,3,5,2,",",",",C,866
6,13,1,3,2,3,X,X,C,698
6,13,2,3,5,2,",",",",C,593
6,13,3,3,5,2,",",",",C,498
6,13,4,3,4,5,M,M,C,674
6,13,5,3,2,3,X,X,C,866
6,13,6,3,1,1,Z,Z,C,754
6,13,7,3,2,3,X,X,C,530
6,13,8,3,5,2,",",",",C,546
6,13,9,3,1,1,Z,Z,C,786
6,13,10,3,5,2,",",",",C,706
6,13,11,3,3,6,C,C,C,606
6,13,12,3,2,3,X,X,C,591
6,13,13,3,6,4,.,.,C,850
6,13,14,3,2,3,X,X,C,642
6,13,15,3,3,6,C,C,C,722
6,13,16,3,5,2,",",",",C,642
6,13,17,3,5,2,",",",",C,418
6,13,18,3,6,4,.,.,C,914
6,13,19,3,6,4,.,.,C,415
6,13,20,3,6,4,.,.,C,402
6,13,21,3,1,1,Z,Z,C,802
6,13,22,3,4,5,M,M,C,626
6,13,23,3,1,1,Z,Z,C,850
6,13,24,3,4,5,M,M,C,530
6,13,25,3,5,2,",",",",C,1294
6,13,26,3,5,2,",",",",C,482
6,13,27,3,2,3,X,X,C,546
6,13,28,3,2,3,X,X,C,418
6,13,29,3,5,2,",",",",C,594
6,13,30,3,5,2,",",",",C,514
6,13,31,3,3,6,C,C,C,958
6,13,32,3,5,2,",",",",C,546
6,13,33,3,4,5,M,M,C,658
6,13,34,3,5,2,",",",",C,706
6,13,35,3,1,1,Z,Z,C,770
6,13,36,3,4,5,M,M,C,626
6,13,37,3,3,6,C,C,C,802
6,13,38,3,3,6,C,C,C,434
6,13,39,3,3,6,C,C,C,437
6,13,40,3,3,6,C,C,C,386
6,13,41,3,3,6,C,C,C,402
6,13,42,3,2,3,X,X,C,754
6,13,43,3,2,3,X,X,C,434
6,13,44,3,2,3,X,X,C,370
6,13,45,3,1,1,Z,Z,C,738
6,13,46,3,3,6,C,C,C,686
6,13,47,3,4,5,M,M,C,642
6,13,48,3,5,2,",",",",C,658
6,13,49,3,3,6,C,C,C,670
6,13,50,3,3,6,C,C,C,402
6,14,1,3,5,2,",",",",C,683
6,14,2,3,5,2,",",",",C,417
6,14,3,3,3,6,C,C,C,878
6,14,4,3,5,2,",",",",C,610
6,14,5,3,4,5,M,M,C,526
6,14,6,3,2,3,X,X,C,786
6,14,7,3,6,4,.,.,C,1106
6,14,8,3,6,4,.,.,C,562
6,14,9,3,4,5,M,M,C,578
6,14,10,3,3,6,C,C,C,722
6,14,11,3,5,2,",",",",C,606
6,14,12,3,6,4,.,.,C,626
6,14,13,3,4,5,M,M,C,514
6,14,14,3,1,1,Z,Z,C,658
6,14,15,3,4,5,M,M,C,594
6,14,16,3,6,4,.,.,C,530
6,14,17,3,3,6,C,C,C,610
6,14,18,3,1,1,Z,Z,C,610
6,14,19,3,2,3,X,X,C,802
6,14,20,3,2,3,X,X,C,610
6,14,21,3,4,5,M,M,C,514
6,14,22,3,4,5,M,M,C,510
6,14,23,3,4,5,M,M,C,453
6,14,24,3,5,2,",",",",C,578
6,14,25,3,2,3,X,X,C,642
6,14,26,3,4,5,M,M,C,530
6,14,27,3,3,6,C,C,C,642
6,14,28,3,5,2,",",",",C,594
6,14,29,3,1,1,Z,Z,C,706
6,14,30,3,2,3,X,X,C,626
6,14,31,3,4,5,M,M,C,607
6,14,32,3,1,1,Z,Z,C,770
6,14,33,3,1,1,Z,Z,C,482
6,14,34,3,3,6,C,C,C,751
6,14,35,3,4,5,M,M,C,562
6,14,36,3,4,5,M,M,C,562
6,14,37,3,1,1,Z,Z,C,1186
6,14,38,3,5,2,",",",",C,786
6,14,39,3,3,6,C,C,C,687
6,14,40,3,6,4,.,.,C,658
6,14,41,3,6,4,.,.,C,466
6,14,42,3,2,3,X,X,C,754
6,14,43,3,4,5,M,M,C,626
6,14,44,3,6,4,.,.,C,1378
6,14,45,3,2,3,X,X,C,594
6,14,46,3,6,4,.,.,C,626
6,14,47,3,2,3,X,X,C,671
6,14,48,3,4,5,M,M,C,642
6,14,49,3,5,2,X,",",I,770
6,14,50,3,6,4,.,.,C,846
6,15,1,3,1,1,Z,Z,C,856
6,15,2,3,2,3,X,X,C,625
6,15,3,3,2,3,X,X,C,514
6,15,4,3,1,1,Z,Z,C,674
6,15,5,3,6,4,.,.,C,626
6,15,6,3,5,2,",",",",C,642
6,15,7,3,3,6,C,C,C,754
6,15,8,3,2,3,X,X,C,690
6,15,9,3,2,3,X,X,C,434
6,15,10,3,5,2,",",",",C,754
6,15,11,3,4,5,C,M,I,642
6,15,12,3,2,3,X,X,C,642
6,15,13,3,3,6,C,C,C,1074
6,15,14,3,3,6,C,C,C,466
6,15,15,3,1,1,Z,Z,C,738
6,15,16,3,4,5,M,M,C,642
6,15,17,3,6,4,.,.,C,626
6,15,18,3,1,1,Z,Z,C,642
6,15,19,3,5,2,",",",",C,638
6,15,20,3,2,3,X,X,C,626
6,15,21,3,3,6,C,C,C,866
6,15,22,3,6,4,.,.,C,610
6,15,23,3,5,2,",",",",C,642
6,15,24,3,4,5,M,M,C,546
6,15,25,3,4,5,M,M,C,530
6,15,26,3,5,2,",",",",C,546
6,15,27,3,2,3,X,X,C,626
6,15,28,3,3,6,C,C,C,642
6,15,29,3,3,6,C,C,C,494
6,15,30,3,5,2,",",",",C,658
6,15,31,3,2,3,X,X,C,658
6,15,32,3,1,1,Z,Z,C,658
6,15,33,3,2,3,X,X,C,706
6,15,34,3,2,3,X,X,C,482
6,15,35,3,2,3,X,X,C,466
6,15,36,3,1,1,Z,Z,C,623
6,15,37,3,1,1,Z,Z,C,450
6,15,38,3,2,3,X,X,C,606
6,15,39,3,6,4,.,.,C,610
6,15,40,3,2,3,X,X,C,530
6,15,41,3,6,4,.,.,C,578
6,15,42,3,3,6,C,C,C,1170
6,15,43,3,3,6,C,C,C,434
6,15,44,3,1,1,Z,Z,C,546
6,15,45,3,5,2,",",",",C,738
6,15,46,3,3,6,C,C,C,674
6,15,47,3,5,2,",",",",C,703
6,15,48,3,3,6,C,C,C,770
6,15,49,3,6,4,.,.,C,626
6,15,50,3,1,1,Z,Z,C,530
59,1,1,2,2,4,X,X,C,3162
59,1,2,2,2,4,X,X,C,1794
59,1,3,2,2,4,X,X,C,2658
59,1,4,2,5,5,",",",",C,1186
59,1,5,2,1,1,Z,Z,C,802
59,1,6,2,1,1,Z,Z,C,642
59,1,7,2,2,4,X,X,C,658
59,1,8,2,6,2,.,.,C,706
59,1,9,2,2,4,X,X,C,631
59,1,10,2,1,1,Z,Z,C,578
59,1,11,2,5,5,",",",",C,1026
59,1,12,2,4,6,M,M,C,642
59,1,13,2,6,2,.,.,C,690
59,1,14,2,6,2,.,.,C,998
59,1,15,2,2,4,X,X,C,850
59,1,16,2,6,2,.,.,C,567
59,1,17,2,4,6,M,M,C,903
59,1,18,2,1,1,Z,Z,C,578
59,1,19,2,5,5,",",",",C,578
59,1,20,2,5,5,",",",",C,674
59,1,21,2,4,6,M,M,C,742
59,1,22,2,5,5,",",",",C,578
59,1,23,2,6,2,.,.,C,594
59,1,24,2,5,5,",",",",C,594
59,1,25,2,5,5,",",",",C,551
59,1,26,2,2,4,X,X,C,562
59,1,27,2,2,4,X,X,C,546
59,1,28,2,6,2,.,.,C,626
59,1,29,2,2,4,X,X,C,482
59,1,30,2,4,6,M,M,C,759
59,1,31,2,5,5,",",",",C,466
59,1,32,2,6,2,.,.,C,439
59,1,33,2,5,5,",",",",C,482
59,1,34,2,3,3,X,C,I,534
59,1,35,2,3,3,C,C,C,611
59,1,36,2,4,6,M,M,C,1106
59,1,37,2,6,2,.,.,C,510
59,1,38,2,5,5,",",",",C,504
59,1,39,2,3,3,C,C,C,610
59,1,40,2,3,3,C,C,C,482
59,1,41,2,4,6,M,M,C,574
59,1,42,2,3,3,C,C,C,670
59,1,43,2,4,6,M,M,C,706
59,1,44,2,6,2,.,.,C,594
59,1,45,2,1,1,Z,Z,C,574
59,1,46,2,5,5,",",",",C,738
59,1,47,2,1,1,Z,Z,C,962
59,1,48,2,1,1,Z,Z,C,647
59,1,49,2,3,3,C,C,C,615
59,1,50,2,3,3,C,C,C,487
59,2,1,2,6,2,.,.,C,731
59,2,2,2,4,6,M,M,C,606
59,2,3,2,6,2,.,.,C,450
59,2,4,2,1,1,Z,Z,C,658
59,2,5,2,6,2,.,.,C,487
59,2,6,2,6,2,.,.,C,434
59,2,7,2,4,6,M,M,C,610
59,2,8,2,2,4,X,X,C,498
59,2,9,2,4,6,M,M,C,706
59,2,10,2,4,6,M,M,C,466
59,2,11,2,2,4,X,X,C,594
59,2,12,2,2,4,X,X,C,498
59,2,13,2,3,3,C,C,C,530
59,2,14,2,3,3,C,C,C,450
59,2,15,2,2,4,X,X,C,494
59,2,16,2,4,6,C,M,I,594
59,2,17,2,6,2,.,.,C,647
59,2,18,2,3,3,C,C,C,519
59,2,19,2,3,3,C,C,C,478
59,2,20,2,6,2,.,.,C,590
59,2,21,2,4,6,M,M,C,594
59,2,22,2,1,1,Z,Z,C,578
59,2,23,2,5,5,",",",",C,482
59,2,24,2,5,5,",",",",C,558
59,2,25,2,1,1,Z,Z,C,526
59,2,26,2,2,4,X,X,C,502
59,2,27,2,4,6,M,M,C,498
59,2,28,2,5,5,",",",",C,530
59,2,29,2,3,3,C,C,C,578
59,2,30,2,5,5,",",",",C,514
59,2,31,2,4,6,C,M,I,583
59,2,32,2,3,3,C,C,C,567
59,2,33,2,3,3,C,C,C,562
59,2,34,2,2,4,X,X,C,562
59,2,35,2,4,6,M,M,C,530
59,2,36,2,4,6,M,M,C,486
59,2,37,2,2,4,X,X,C,530
59,2,38,2,2,4,X,X,C,546
59,2,39,2,2,4,X,X,C,466
59,2,40,2,3,3,C,C,C,531
59,2,41,2,2,4,X,X,C,498
59,2,42,2,3,3,C,C,C,531
59,2,43,2,5,5,",",",",C,578
59,2,44,2,3,3,C,C,C,674
59,2,45,2,4,6,M,M,C,594
59,2,46,2,6,2,.,.,C,594
59,2,47,2,5,5,",",",",C,590
59,2,48,2,1,1,Z,Z,C,627
59,2,49,2,6,2,.,.,C,558
59,2,50,2,1,1,Z,Z,C,402
59,3,1,2,6,2,.,.,C,574
59,3,2,2,1,1,Z,Z,C,466
59,3,3,2,4,6,M,M,C,690
59,3,4,2,6,2,.,.,C,510
59,3,5,2,3,3,C,C,C,546
59,3,6,2,4,6,M,M,C,546
59,3,7,2,3,3,C,C,C,594
59,3,8,2,1,1,Z,Z,C,546
59,3,9,2,6,2,.,.,C,514
59,3,10,2,5,5,",",",",C,450
59,3,11,2,1,1,Z,Z,C,502
59,3,12,2,1,1,Z,Z,C,430
59,3,13,2,3,3,C,C,C,850
59,3,14,2,3,3,C,C,C,582
59,3,15,2,4,6,M,M,C,418
59,3,16,2,3,3,C,C,C,514
59,3,17,2,6,2,.,.,C,450
59,3,18,2,3,3,C,C,C,503
59,3,19,2,4,6,M,M,C,428
59,3,20,2,6,2,.,.,C,418
59,3,21,2,2,4,X,X,C,592
59,3,22,2,2,4,X,X,C,454
59,3,23,2,3,3,C,C,C,526
59,3,24,2,1,1,Z,Z,C,562
59,3,25,2,1,1,Z,Z,C,514
59,3,26,2,2,4,X,X,C,525
59,3,27,2,6,2,.,.,C,567
59,3,28,2,4,6,M,M,C,450
59,3,29,2,2,4,X,X,C,498
59,3,30,2,6,2,.,.,C,446
59,3,31,2,3,3,C,C,C,498
59,3,32,2,6,2,.,.,C,482
59,3,33,2,5,5,",",",",C,402
59,3,34,2,3,3,C,C,C,546
59,3,35,2,5,5,",",",",C,546
59,3,36,2,1,1,Z,Z,C,483
59,3,37,2,5,5,",",",",C,482
59,3,38,2,2,4,X,X,C,462
59,3,39,2,6,2,.,.,C,466
59,3,40,2,6,2,.,.,C,391
59,3,41,2,2,4,X,X,C,478
59,3,42,2,4,6,M,M,C,562
59,3,43,2,4,6,M,M,C,430
59,3,44,2,6,2,.,.,C,402
59,3,45,2,3,3,C,C,C,542
59,3,46,2,3,3,C,C,C,418
59,3,47,2,3,3,C,C,C,434
59,3,48,2,5,5,",",",",C,466
59,3,49,2,3,3,C,C,C,402
59,3,50,2,6,2,.,.,C,590
59,4,1,2,4,6,M,M,C,719
59,4,2,2,5,5,",",",",C,402
59,4,3,2,6,2,.,.,C,338
59,4,4,2,6,2,.,.,C,407
59,4,5,2,2,4,X,X,C,382
59,4,6,2,1,1,Z,Z,C,412
59,4,7,2,6,2,.,.,C,418
59,4,8,2,1,1,Z,Z,C,454
59,4,9,2,5,5,",",",",C,434
59,4,10,2,2,4,X,X,C,514
59,4,11,2,3,3,C,C,C,466
59,4,12,2,5,5,",",",",C,471
59,4,13,2,6,2,.,.,C,418
59,4,14,2,5,5,",",",",C,438
59,4,15,2,3,3,C,C,C,578
59,4,16,2,3,3,C,C,C,407
59,4,17,2,6,2,.,.,C,482
59,4,18,2,4,6,M,M,C,726
59,4,19,2,2,4,X,X,C,498
59,4,20,2,5,5,",",",",C,418
59,4,21,2,5,5,",",",",C,402
59,4,22,2,2,4,X,X,C,454
59,4,23,2,2,4,X,X,C,430
59,4,24,2,6,2,.,.,C,642
59,4,25,2,4,6,M,M,C,498
59,4,26,2,4,6,M,M,C,434
59,4,27,2,5,5,",",",",C,354
59,4,28,2,6,2,.,.,C,478
59,4,29,2,2,4,X,X,C,466
59,4,30,2,4,6,M,M,C,626
59,4,31,2,4,6,M,M,C,466
59,4,32,2,1,1,Z,Z,C,466
59,4,33,2,6,2,.,.,C,546
59,4,34,2,6,2,.,.,C,466
59,4,35,2,5,5,",",",",C,498
59,4,36,2,5,5,",",",",C,483
59,4,37,2,6,2,.,.,C,467
59,4,38,2,5,5,",",",",C,402
59,4,39,2,3,3,M,C,I,622
59,4,40,2,6,2,.,.,C,455
59,4,41,2,1,1,Z,Z,C,451
59,4,42,2,2,4,X,X,C,482
59,4,43,2,3,3,C,C,C,493
59,4,44,2,4,6,M,M,C,455
59,4,45,2,2,4,X,X,C,546
59,4,46,2,5,5,",",",",C,436
59,4,47,2,3,3,C,C,C,606
59,4,48,2,1,1,Z,Z,C,610
59,4,49,2,6,2,.,.,C,494
59,4,50,2,2,4,X,X,C,482
59,5,1,2,2,4,X,X,C,462
59,5,2,2,5,5,",",",",C,434
59,5,3,2,5,5,",",",",C,403
59,5,4,2,5,5,",",",",C,402
59,5,5,2,2,4,X,X,C,434
59,5,6,2,4,6,M,M,C,434
59,5,7,2,5,5,",",",",C,455
59,5,8,2,6,2,.,.,C,401
59,5,9,2,2,4,X,X,C,530
59,5,10,2,1,1,Z,Z,C,387
59,5,11,2,1,1,Z,Z,C,434
59,5,12,2,3,3,C,C,C,535
59,5,13,2,4,6,",",M,I,498
59,5,14,2,5,5,",",",",C,466
59,5,15,2,2,4,X,X,C,514
59,5,16,2,3,3,C,C,C,482
59,5,17,2,1,1,Z,Z,C,402
59,5,18,2,6,2,.,.,C,414
59,5,19,2,4,6,M,M,C,542
59,5,20,2,6,2,.,.,C,658
59,5,21,2,1,1,Z,Z,C,531
59,5,22,2,3,3,C,C,C,579
59,5,23,2,2,4,X,X,C,498
59,5,24,2,3,3,C,C,C,563
59,5,25,2,6,2,.,.,C,487
59,5,26,2,5,5,",",",",C,478
59,5,27,2,6,2,.,.,C,530
59,5,28,2,5,5,",",",",C,386
59,5,29,2,1,1,Z,Z,C,654
59,5,30,2,6,2,.,.,C,450
59,5,31,2,1,1,C,Z,I,514
59,5,32,2,2,4,Z,X,I,102
59,5,33,2,3,3,C,C,C,626
59,5,34,2,1,1,Z,Z,C,418
59,5,35,2,3,3,C,C,C,418
59,5,36,2,6,2,.,.,C,450
59,5,37,2,4,6,M,M,C,514
59,5,38,2,4,6,M,M,C,470
59,5,39,2,5,5,",",",",C,386
59,5,40,2,6,2,.,.,C,351
59,5,41,2,6,2,.,.,C,519
59,5,42,2,3,3,C,C,C,610
59,5,43,2,1,1,Z,Z,C,462
59,5,44,2,1,1,Z,Z,C,418
59,5,45,2,6,2,.,.,C,338
59,5,46,2,4,6,M,M,C,530
59,5,47,2,2,4,X,X,C,530
59,5,48,2,2,4,X,X,C,478
59,5,49,2,3,3,C,C,C,466
59,5,50,2,6,2,.,.,C,482
59,6,1,2,2,4,X,X,C,458
59,6,2,2,6,2,.,.,C,423
59,6,3,2,3,3,X,C,I,482
59,6,4,2,4,6,M,M,C,503
59,6,5,2,2,4,X,X,C,491
59,6,6,2,5,5,",",",",C,446
59,6,7,2,1,1,Z,Z,C,466
59,6,8,2,4,6,M,M,C,614
59,6,9,2,4,6,M,M,C,466
59,6,10,2,1,1,Z,Z,C,450
59,6,11,2,5,5,",",",",C,434
59,6,12,2,6,2,.,.,C,311
59,6,13,2,1,1,Z,Z,C,386
59,6,14,2,5,5,",",",",C,434
59,6,15,2,5,5,",",",",C,414
59,6,16,2,3,3,C,C,C,562
59,6,17,2,5,5,",",",",C,438
59,6,18,2,2,4,X,X,C,550
59,6,19,2,4,6,M,M,C,510
59,6,20,2,2,4,X,X,C,546
59,6,21,2,2,4,X,X,C,433
59,6,22,2,4,6,M,M,C,414
59,6,23,2,4,6,M,M,C,530
59,6,24,2,6,2,.,.,C,514
59,6,25,2,3,3,C,C,C,508
59,6,26,2,5,5,",",",",C,414
59,6,27,2,6,2,.,.,C,434
59,6,28,2,3,3,C,C,C,498
59,6,29,2,3,3,C,C,C,434
59,6,30,2,4,6,M,M,C,498
59,6,31,2,6,2,.,.,C,562
59,6,32,2,6,2,.,.,C,510
59,6,33,2,2,4,",",X,I,518
59,6,34,2,3,3,C,C,C,519
59,6,35,2,4,6,",",M,I,462
59,6,36,2,6,2,.,.,C,430
59,6,37,2,4,6,M,M,C,434
59,6,38,2,3,3,C,C,C,562
59,6,39,2,4,6,.,M,I,419
59,6,40,2,3,3,C,C,C,530
59,6,41,2,6,2,.,.,C,451
59,6,42,2,3,3,C,C,C,610
59,6,43,2,6,2,.,.,C,451
59,6,44,2,5,5,",",",",C,387
59,6,45,2,6,2,.,.,C,467
59,6,46,2,3,3,C,C,C,446
59,6,47,2,1,1,Z,Z,C,574
59,6,48,2,6,2,.,.,C,466
59,6,49,2,1,1,Z,Z,C,494
59,6,50,2,2,4,X,X,C,606
59,7,1,2,6,2,.,.,C,443
59,7,2,2,5,5,",",",",C,354
59,7,3,2,6,2,.,.,C,462
59,7,4,2,2,4,X,X,C,519
59,7,5,2,1,1,Z,Z,C,391
59,7,6,2,1,1,Z,Z,C,467
59,7,7,2,3,3,C,C,C,558
59,7,8,2,2,4,X,X,C,450
59,7,9,2,2,4,X,X,C,482
59,7,10,2,6,2,.,.,C,507
59,7,11,2,4,6,C,M,I,563
59,7,12,2,2,4,X,X,C,471
59,7,13,2,3,3,C,C,C,539
59,7,14,2,1,1,Z,Z,C,466
59,7,15,2,5,5,",",",",C,530
59,7,16,2,6,2,.,.,C,355
59,7,17,2,2,4,X,X,C,530
59,7,18,2,3,3,C,C,C,626
59,7,19,2,5,5,",",",",C,423
59,7,20,2,3,3,C,C,C,642
59,7,21,2,4,6,M,M,C,418
59,7,22,2,3,3,C,C,C,562
59,7,23,2,5,5,",",",",C,462
59,7,24,2,1,1,Z,Z,C,482
59,7,25,2,6,2,.,.,C,462
59,7,26,2,2,4,X,X,C,466
59,7,27,2,6,2,.,.,C,462
59,7,28,2,5,5,",",",",C,434
59,7,29,2,3,3,C,C,C,510
59,7,30,2,5,5,",",",",C,466
59,7,31,2,2,4,X,X,C,510
59,7,32,2,3,3,C,C,C,640
59,7,33,2,5,5,",",",",C,466
59,7,34,2,5,5,",",",",C,482
59,7,35,2,3,3,C,C,C,514
59,7,36,2,4,6,M,M,C,434
59,7,37,2,2,4,X,X,C,498
59,7,38,2,1,1,Z,Z,C,471
59,7,39,2,6,2,.,.,C,466
59,7,40,2,6,2,.,.,C,498
59,7,41,2,1,1,Z,Z,C,498
59,7,42,2,1,1,Z,Z,C,415
59,7,43,2,3,3,C,C,C,526
59,7,44,2,3,3,C,C,C,482
59,7,45,2,5,5,",",",",C,546
59,7,46,2,6,2,.,.,C,402
59,7,47,2,5,5,",",",",C,478
59,7,48,2,5,5,",",",",C,450
59,7,49,2,5,5,",",",",C,398
59,7,50,2,5,5,",",",",C,466
59,8,1,2,5,5,",",",",C,475
59,8,2,2,4,6,M,M,C,338
59,8,3,2,4,6,M,M,C,418
59,8,4,2,6,2,",",.,I,430
59,8,5,2,3,3,C,C,C,530
59,8,6,2,5,5,",",",",C,354
59,8,7,2,1,1,C,Z,I,407
59,8,8,2,2,4,X,X,C,546
59,8,9,2,6,2,.,.,C,435
59,8,10,2,3,3,C,C,C,494
59,8,11,2,4,6,M,M,C,610
59,8,12,2,2,4,X,X,C,514
59,8,13,2,4,6,M,M,C,722
59,8,14,2,3,3,C,C,C,515
59,8,15,2,4,6,M,M,C,567
59,8,16,2,6,2,.,.,C,526
59,8,17,2,3,3,C,C,C,518
59,8,18,2,5,5,",",",",C,470
59,8,19,2,2,4,X,X,C,498
59,8,20,2,2,4,X,X,C,418
59,8,21,2,3,3,C,C,C,466
59,8,22,2,2,4,X,X,C,514
59,8,23,2,5,5,",",",",C,482
59,8,24,2,4,6,M,M,C,594
59,8,25,2,3,3,C,C,C,450
59,8,26,2,6,2,.,.,C,402
59,8,27,2,6,2,.,.,C,482
59,8,28,2,3,3,C,C,C,610
59,8,29,2,3,3,C,C,C,482
59,8,30,2,4,6,M,M,C,519
59,8,31,2,2,4,C,X,I,466
59,8,32,2,5,5,",",",",C,438
